Acc_Betrag,Acc_X,Acc_Y,Acc_Z,Ori_Betrag,Ori_X,Ori_Y,Ori_Z,Timestamp
1.174019033492816,-85.030697502181,-357.9898609382151,534.9632009077359,0.015061561914699042,-28.555119125330798,7.2645457802821225,6.971571460586507,1735409891524.0
1.164133787056959,584.964527794311,-1105.3112284276312,260.15371599111654,0.027331935308691744,2.3442702043274712,3.0317247497842548,-35.776626718307966,1735409891552.0
0.9962564440558478,1538.703468652327,-1196.002244744684,256.6931327113647,0.03314548918683506,13.457105741572867,-0.5245509099802543,-11.560021678217707,1735409891583.0
1.3777189754092323,953.3813586240824,-1131.7798745122222,867.0074119413381,0.02933708611929004,-2.21340610352744,-9.270113538083887,-28.582127247909185,1735409891613.0
0.9903369861638657,-438.25037183324105,-1414.5484595056196,-1059.667341318765,-0.00902287778922288,15.657351366541718,-8.67338563501976,10.16797736734991,1735409891643.0
0.9157686336502624,1322.404843339622,-422.84229215910835,14.999065269138356,0.05643432466151853,13.728711690094617,11.242818505799946,-52.75186803796065,1735409891673.0
1.8540273302750507,225.02230993781902,-883.5678012409204,562.8911984491835,0.04125089468629311,16.08359989909291,19.51209339153314,-83.1813851502304,1735409891703.0
1.2854705371563884,-138.78641193530848,-485.4625681812847,-884.3302585210827,0.03312348477473872,50.79940381083354,3.9610336639844874,-48.77117951562145,1735409891733.0
0.8345453170696707,202.05720321402268,-7.620935304046384,818.6191304969971,0.04605970997439705,34.76877071069508,-3.7537066023062007,-56.50362231458565,1735409891763.0
0.8183288971810845,1209.288264158468,-618.3650169187579,-26.55331643346065,0.014471121721608832,31.483152247795267,9.189739028585473,-13.375109456178585,1735409891793.0
0.9900458195843,211.2152648663511,-1439.1329507028609,458.36322647688894,0.03152852555554581,64.69368812627053,9.338693282959127,-33.18296481114982,1735409891823.0
0.47078302592946886,499.7848621054384,-362.6664164967949,-207.39267973070093,0.029080350022937216,57.063775318977676,1.727354029510213,-20.854292237481516,1735409891853.0
0.6648518466889933,154.18619032412965,-1709.1491173544732,-412.323817048563,0.05024017611901202,26.301064397845156,-0.1943009860616245,-92.22776942203646,1735409891883.0
-0.14963170783888358,858.5086150179822,-200.1144125410334,287.846335518257,0.07118863462058057,-28.043068936392693,19.097353253741936,-48.01819815941037,1735409891941.0
1.6923868958822268,295.99388559739725,-154.46606675285898,1353.117671431577,0.02180811158660458,28.132335546830195,-6.549040949479491,48.457695037537185,1735409891944.0
0.3406081825457018,708.5350349014305,-1295.066924408884,1653.5754287285113,0.05477358529770188,-44.352518532889896,-5.18895061417712,-1.9174133596050282,1735409891973.0
1.0705315923438772,-616.3142843851327,-1181.472688481328,-666.6700682380475,0.03205262651746823,-39.42069369533857,-24.02563341700637,20.936505056819,1735409892003.0
0.6380678191710858,-121.98033526309722,-1267.1011613489409,-692.7796124369864,0.0452084995157665,42.527901175671516,-18.06061337788141,4.8913476074078375,1735409892033.0
0.7965709766274625,-428.0879273428262,-902.8747340734067,505.10079685305334,0.034312209394007205,3.655350402992074,-22.146182499815406,14.702414725135759,1735409892063.0
0.7367294649835678,332.2616551726968,-736.751133304869,1039.1637995242777,0.025342886348820926,1.1790372938583396,0.867739327726035,24.913291993755507,1735409892093.0
0.1739251829764415,-691.9078430442938,-1208.5988447441619,878.5669402021277,0.03350530359265466,23.121965769701717,-12.897191295984717,-28.8094809150674,1735409892123.0
0.8127473700154679,-15.421355566971542,-1190.9751303259459,128.5468399051934,0.02253804676326866,34.189764691218855,18.032943209452682,-38.40769304031113,1735409892154.0
-0.02450129566543202,-489.35322553151406,-822.9943682544132,-181.9397286730958,0.025669258778639473,2.2852006592953575,18.594115433924877,-24.322721831281363,1735409892184.0
0.5466384428129699,-514.7814076998791,-1001.1028443014848,515.9204337540689,0.004115574094606306,12.682861069486542,-1.712821843197371,-17.74243533879004,1735409892213.0
-0.2634200753759299,-611.4616576611921,435.53929117097067,949.6534431911033,0.008784251560420678,-51.53668706034423,-10.380111277321278,-13.184869473318152,1735409892243.0
-0.18907736964249622,-451.71304984581957,-161.2391454690891,515.0087987351459,0.04997036973773859,55.07478476140052,-10.053948637951365,19.649273257663314,1735409892273.0
-0.5284388589062429,185.6472370241283,-892.9834687691138,622.0968104757402,0.03246540160560372,25.02015758579292,-0.7167901309099207,-6.379659586362019,1735409892303.0
3.3956807193500764,2314.0310198898196,1462.4237570480873,1934.5676317311909,0.012750240093106142,22.3299968605001,-2.434027916868109,-34.77967360956819,1735409892333.0
3.4709275621811027,1074.7449419178638,2310.305483025213,1139.4471054203996,0.06456275738264514,-27.949227838557835,11.492884145447675,-38.19664794151589,1735409892364.0
3.9838692511220684,2810.504529033649,1703.5990347206025,2445.3719731588535,0.056663678557748856,32.61553001977402,-29.889196802353815,36.81468902491335,1735409892393.0
-0.2849414777971445,395.75359371071863,508.9141169639872,-217.50528512713169,0.051066097433146815,14.367651175279814,8.920320517115943,25.61368949461157,1735409892423.0
0.743986835148344,-130.6950462932573,-78.99904457107232,349.53331131248075,0.02978338103521684,-13.219534576240878,-2.0748215905424385,-27.625001387632242,1735409892454.0
0.248980402424601,308.36790131823966,-305.19330105469527,1204.4799907033203,0.048979785382598125,1.030796797138187,-7.571444227695851,22.338183797786343,1735409892483.0
0.6918474558043439,-12.622596263986793,1024.7511074459048,-138.99421033380182,0.07560089533284883,-26.473883310250727,-6.141277316239066,-32.80633790994524,1735409892512.0
0.09955720188904199,792.1312677607424,-112.41275018188162,-715.848134753272,0.040534244438677806,-6.407549803789715,-12.427665054489548,17.928828902227362,1735409892544.0
0.5091208974980704,420.0930312013199,-316.8228394576934,198.64217484492877,0.022691913874494495,-19.01523684977714,-11.801498629093158,2.92265295523117,1735409892573.0
1.4412326955039032,509.58608916587406,-522.0431027758164,-785.0855008892447,0.015893734436271387,-3.232836313620119,4.6585548570748685,-20.821886467912204,1735409892603.0
1.3702810628058573,-471.25693331504976,1026.4863644051916,-1604.2888085358697,0.03162028905825088,-17.37043890308084,-13.931649388731655,-7.226626006424521,1735409892633.0
2.1166593453951617,-789.4567966936269,849.4719511736422,-1739.808079840046,0.04743531015816747,37.417946324989146,-23.7525546606183,44.52462350520195,1735409892663.0
0.8959014299493288,-34.98417556325076,-860.600390793332,-844.3395367152234,0.021741120355569816,102.81365810151115,-12.709368219282648,34.57828085900648,1735409892694.0
1.5354070740692891,-203.94670666961514,667.6825992115405,-1022.5400850736748,0.044197244722273515,42.20038294296565,6.455445115555559,26.634344451382223,1735409892723.0
0.31279439212440807,359.63377741614806,-594.5321011380548,-430.23135108748284,0.0453553258730711,92.69272534433372,16.313016896126857,-22.92139995231954,1735409892753.0
1.1973534083777553,29.815507925392012,-210.97267234066476,-1133.3582925212668,0.0392381851968709,-20.269713828296602,20.30646223324672,-80.03940016141038,1735409892782.0
0.430963248067181,903.796071285215,129.09080737583224,-855.2009973961673,0.06233500121946599,-61.00836349728396,-0.5245476486171414,-22.86928923130862,1735409892813.0
0.8966548943890279,505.50153636774303,201.02068376664135,-1643.285410067599,0.04575229835936588,-30.233145598058222,0.6697013082588184,-31.818259108242735,1735409892843.0
0.8546586456557184,-217.95335326843463,285.489143738707,-1286.5096656900646,0.06903585117124028,-19.04514036880436,22.111746160853286,-4.388368255626695,1735409892873.0
1.0388677762401948,68.70883053768148,633.305543227332,-694.9110088368641,0.026763548498208844,-7.186115382948753,12.655686378373538,-34.45686252973105,1735409892903.0
1.1277728074531674,-637.6062030696119,1178.7557039315566,-646.2889128380002,0.042212318569820106,-11.659388013056379,-7.525347848710303,1.7386767045674105,1735409892933.0
0.8642021211417666,-113.56703989131142,394.5139587602347,-1058.0833619441025,0.047870966387872596,-16.15304533428259,-18.58559485135066,-37.48636614906994,1735409892963.0
0.8483070120578187,219.31465150262412,-627.5208018390537,-1376.3645052743616,0.03768032440200542,8.959966387758946,-24.70899246098334,-24.479876369369876,1735409892993.0
1.4693002643074111,909.3172337505772,429.4496265194786,-976.1169414352687,0.0661559765443396,4.3216268527795805,0.1547957505470497,-13.095619568714012,1735409893023.0
1.2846267635165396,101.38711708172495,436.4703107954952,-1987.812519853615,0.04600741750796532,-14.272143209579433,-10.466294443741655,-3.0416981728385366,1735409893053.0
0.8721481792303968,-854.086092293654,1516.7629494576165,-991.980759069782,0.03728282445473643,-62.62069869260755,15.225395181650843,48.75983253884352,1735409893083.0
0.14754036408624183,688.1197198446922,225.24093307125983,-1056.1560037003387,0.041909318723873254,-48.304896419863546,-0.6967666811523126,-2.6399411332617815,1735409893113.0
1.7250381886939046,-580.40087454128,1366.0859498432756,-961.9151212160691,0.037128023105066556,-73.38023188329417,4.513572648621733,7.644751104884035,1735409893143.0
0.19438440020960612,-301.1109193244402,-360.20503460019904,-304.25375136931643,0.0518449167139726,-72.65121672053752,-2.5566320221629053,17.828825293084666,1735409893173.0
0.8905143142176234,385.13925056364957,1374.9085809775631,-1319.8381104677794,0.027261519880161626,-26.785059524040214,18.46654967008487,0.3072668280519869,1735409893203.0
0.9153940741705892,216.6829566807113,496.8513554097341,-1706.1482790818,0.029906131771753025,-77.91553803056176,-10.148459555288127,-30.10637861425907,1735409893233.0
1.795086548729444,659.8519082115847,-314.30382207822413,-1107.9105339122232,0.057689408847943026,-39.12953783549463,-4.98131034339977,39.95503050400432,1735409893263.0
1.4424914363373817,-642.3759332205574,-354.4235436021428,-929.8921932594221,0.015824453905967092,-97.07527741868668,14.174290304931276,-1.0243112732957016,1735409893293.0
0.5578171646839827,663.2159230862956,369.9392122868328,-2370.684768656687,0.028751837191995755,-1.656879821413625,8.70769271947664,62.12452075262859,1735409893323.0
0.5184418609457299,3.9268384848689664,372.7878654250901,-1071.5346058671437,0.04298577272243739,-100.26985114164557,-2.6350943481681366,5.7540568494911515,1735409893353.0
2.011411964669172,849.4342795262352,22.51036323241334,-1534.5111118485916,0.044773402985824315,-53.56834179267477,14.7499321854797,-55.69711731119355,1735409893383.0
1.3856428310093425,115.75186145808522,270.9969198251336,-124.4163820720953,0.049419478906091364,-43.42165794349731,7.8002177064647595,4.405496782773099,1735409893413.0
0.9731955862441346,-373.6743097612874,136.57391117461546,32.64182363088605,0.08010956815401896,-55.782369096814506,10.273454464778723,22.02642607592011,1735409893443.0
1.87168658149842,291.3286917978712,217.08374743927627,-1261.0006893880945,0.06000061275975112,-73.73302640236892,3.3283131293155,-33.05110370202583,1735409893473.0
1.1550002601929321,196.6047888081781,9.806163572905689,-375.8521664917705,0.045249093145451565,-51.317655173614526,9.743991538024927,23.552244366657888,1735409893502.0
0.8692792365469698,-28.086317582799836,607.2107861129286,-711.4720267176272,0.06991961550591681,-36.55425240850852,7.286039980214736,-9.333208566588993,1735409893534.0
1.2573962790827398,1592.2435322400554,344.65250546143085,-1738.0249519220251,0.05958352811479325,-66.13568144673886,-2.824401637948447,-29.274014743204624,1735409893564.0
0.12549926350113905,707.0534161577572,12.786915085167436,279.48214987242955,0.043235256099836576,-58.91183255892983,-3.293311044604242,16.941362918373567,1735409893564.0
