Acc_Betrag,Acc_X,Acc_Y,Acc_Z,Ori_Betrag,Ori_X,Ori_Y,Ori_Z,Timestamp
1.1557048284021718,-640.8878755536044,88.46476913013358,-274.7212161491515,0.04168349122164,32.24528540380231,-17.95938363950803,30.169199749555872,1735409770805.0
0.2947559008921966,-1094.7731446614678,-69.07370791867879,-445.85019701793954,0.042756982214939857,39.052456620530975,-6.827413620040472,-13.520480359616617,1735409770830.0
1.0571265127650986,-986.3621466505616,120.69589536256504,-148.51222639381172,0.06584333964919731,91.28288751171374,-14.507872672881472,-25.815565024470775,1735409770891.0
1.5054472758814452,-481.25037948025556,-117.21736010655457,-564.5652159351354,0.058636798535808624,-21.53397871776066,-30.12380268190649,-13.474245945724817,1735409770920.0
0.47866681414448553,-1364.7740691776796,910.8883475935882,-331.84778559912553,0.03498381336161219,46.264818853677404,-6.290296466644444,-21.6399007174365,1735409770950.0
1.1422262492573625,-903.7935293245308,662.3915536795291,-834.5673147429188,0.061297799159394206,63.55304393715505,3.330255236851883,-101.45055449448243,1735409770980.0
0.6562211583921133,-871.2496528050613,281.9684123911093,-583.8865831219705,0.013144225165452918,32.190408940978166,-33.01224892651356,-10.302789423520327,1735409771010.0
0.297276799422482,-1487.2622893974267,8.068533154722871,112.34461652889979,0.035214471457401204,42.79318404363326,-25.707778265859147,-82.74981473403574,1735409771040.0
1.07721581902355,59.65288633368209,1128.2378292028393,53.071037204883,0.05285687077981629,73.27723345642278,-8.659655143188681,13.216386788937879,1735409771070.0
1.756448866735501,-1099.3244207585083,-713.548498287034,310.7198407865988,0.0677205385697375,8.552941363514407,-13.221128574082162,-11.24265818951687,1735409771100.0
1.396173802738214,-1064.9770876326875,-551.0711386978717,-285.90950614888504,0.02444141366480485,55.74891863215769,-21.803302142253255,-16.335565032868054,1735409771129.0
1.9017020174021402,-1744.14529201096,-580.9916961066156,-509.89548729757007,0.04150650369523035,45.74244562348779,-1.7055917155974998,-45.89885632942048,1735409771160.0
1.7918893531787248,-1953.502412838253,-299.782783202365,-319.99804655127843,0.05267746594586009,38.452355639093504,-10.780065410675794,-36.85731587788011,1735409771191.0
0.6076221809867224,-1765.260462338198,-295.4069373472586,-1206.6613788161067,0.055163785657992306,65.3347633077039,-2.844700448897213,-47.076293945005204,1735409771220.0
0.5193480506407235,-334.68198344863123,213.7956033380579,-978.6372999662395,0.040563106937741816,77.8986907043207,-14.554971135966927,0.8404283240228949,1735409771250.0
2.2243686464416763,-851.6904164593434,-890.7018559674627,-1180.91769601096,0.04922533518693305,46.507112401742866,-0.8529570556486723,-59.02117920794697,1735409771280.0
0.34120645250814186,-1466.9221399642126,-32.014035221735284,-361.66577211195204,0.07152600666791786,38.58393570020682,-23.91048060487727,-13.921130718653679,1735409771310.0
0.6630279439536392,-672.9892784772236,202.82905068193148,1185.5799354749643,0.07968945597471523,-55.94537525675185,-11.010216331348092,-40.97520057511237,1735409771340.0
-0.25118348284909897,384.0711346350423,-57.98547866967087,626.8472159712943,0.05553027822499133,-47.14290460985317,-4.062465529747161,21.90457470171492,1735409771370.0
-0.30827460220772457,-660.7138193558719,140.09453419893032,-1488.1941054614629,0.06668779949213169,2.4719877098518594,-11.426229782178906,-3.504634462092504,1735409771400.0
0.4656318093225735,72.74465596882926,4.931551107449245,-143.60667146300608,0.021146991939735543,-89.07152478982347,-4.094099952466161,47.898003367421104,1735409771430.0
-0.14533446202116232,450.95977389337224,-532.9762346447042,1278.7821989895092,0.062090679205150504,-91.49244037874108,0.5711087767151999,-71.9145461767818,1735409771460.0
0.18211334149199113,15.949211839794447,-11.163547164648534,1007.4302788198129,0.07026838821316439,-31.713845807516073,-6.676758802643257,-0.07646984815833235,1735409771489.0
-0.2968839075658236,-387.99266025258873,665.1998267807353,315.2606019109061,0.06946912765656169,-57.91056880562907,-11.001233188118821,12.295048066767897,1735409771519.0
-0.3838928610414852,-4.772216929784497,-255.18396221724575,347.0039286583634,0.046597625627892963,49.17770072447639,-9.906501256931739,-50.25612369087628,1735409771549.0
-0.1954225091313245,-181.3016075232108,396.14125059044386,-1578.5602750985697,0.03712199874866882,33.956215042821206,8.053563193899132,-22.697662984453167,1735409771579.0
0.24683256673527243,-681.4725913557119,-886.4272836932194,-620.798502275625,0.03182166142993876,60.449147857800696,9.10084607484254,11.337792492327097,1735409771609.0
0.9230477664618909,-137.63607547768748,743.0882948025869,-430.62840476568743,0.030771353015250927,34.98669730545556,-6.9848394810604715,66.32081042602205,1735409771639.0
1.4363781100581865,343.80117263912973,1392.0559261215844,-280.7175873298869,0.03524330360026391,7.12572502280625,-11.87506114589891,-3.900469449872002,1735409771669.0
1.6618421963315066,503.8847280475635,995.2480712846896,444.6862498801358,0.05183005057095078,65.2720954457723,-20.41039902266165,-19.33763571580929,1735409771701.0
0.8348261433739932,-411.59320686186715,960.1842324931763,-421.61126212799167,0.026394166604613738,-58.2276205695439,-8.996582559059648,-28.16029233352183,1735409771730.0
1.7022747268913592,-117.17904015729388,960.1626363373568,-281.03285573560146,0.061878502366696564,53.37568401925071,-3.7776098699791794,2.261803232199206,1735409771761.0
0.852117029669573,-246.60724091832844,243.5134287553817,-255.91786429029784,0.09284583744864719,48.504023822838725,-9.473637919734236,20.41490905191559,1735409771792.0
1.2429774990186402,-472.186731876031,558.6587865713952,-632.1210643417359,0.049302963812068425,68.52034537111415,3.890636562577349,-52.3281385693023,1735409771821.0
0.1380678783526218,156.90654506402166,1136.3535646437826,577.5648787160782,0.060374401281933374,-74.42452343888213,-5.428396924225731,35.19079722904944,1735409771850.0
1.0214401828262327,-1629.0537081421512,2084.94111880602,-239.40705663211918,0.046692806235615975,-50.62534489678934,-7.921681684086502,-17.589746071157357,1735409771879.0
0.21184913138856332,-609.0166756066449,711.2488824913993,155.13101049703397,0.047805550283545356,-117.9823519248865,-19.09334344107654,-14.964317312964992,1735409771911.0
0.8228090925988246,-884.8795602888861,1591.6444939704616,-119.12895280926301,0.060914442009466774,-61.5422616314051,-27.3653419188135,34.69590810261519,1735409771940.0
0.6762267585611934,133.3216002032309,938.8630534639859,314.35087010988025,0.03928798868163064,40.287096260569925,-14.641536895689025,30.029992165600962,1735409771969.0
0.23861478596715413,-955.2737908800431,439.1525478485906,288.75824565406447,0.05043711598075229,10.955119183492583,-14.04716414709164,31.325552988741215,1735409771999.0
1.2158813219385651,151.08634034222632,993.5044894747555,844.5262139403727,0.012421212409148792,-27.29905320085865,-21.29562274049541,31.41992173671329,1735409772029.0
1.0100359543487432,230.08341026948756,1534.3723672806113,-1247.1490020185606,0.04953735159932317,34.77245735379448,-20.03849902722311,101.45334311262931,1735409772059.0
1.4990107130700134,190.2587386792261,363.9047680826841,1551.871380598669,0.04285095067693372,-14.320994704292904,-18.445526840751896,-31.05968055186745,1735409772089.0
1.4594647964111362,-472.0823351604398,1033.0463194739118,-544.1961161828375,0.0708597050966614,-33.52656734442327,2.3490793131193026,-61.28926306502798,1735409772120.0
0.734524446683198,-59.14540716625527,935.8182264987166,-10.998781464211362,0.07187156763460309,-23.798875136151743,-13.309913842671925,-47.970973342857505,1735409772149.0
1.3983637048421282,-1575.1634476964025,525.4024299768258,-181.3359273036179,0.028714779749539617,-15.224990665505821,-3.9837970191685397,-22.889404550743553,1735409772181.0
1.7762601540612022,-774.6661948011634,1059.8855119144096,372.42307400612424,0.04741420758274393,28.96439052103114,-14.74399520508895,-27.826173507151005,1735409772211.0
0.7269504380515553,-413.24149834586217,1888.8983200749624,-206.4301477831495,0.06525007622443042,-19.44094426498686,-10.25718070876784,-41.60003206324905,1735409772240.0
1.0040170527401917,-339.8543627030376,1449.0649555559526,-73.31164203478511,0.03277107847906295,-34.619591968799526,-4.880274151791895,-37.468273808240944,1735409772270.0
1.148381562449366,-839.1178543025453,966.2541213588776,-377.9168745943395,0.044292689605056716,-42.04229523126221,-24.611990508320094,-48.71591945325166,1735409772300.0
1.4186967426446615,-1002.2700878208827,457.67716519449436,-1030.0283834719326,0.036148440127950966,5.417768289439252,-20.949366378228785,-17.762078599820015,1735409772331.0
0.6707424345420442,-656.354829934382,745.1736935418895,208.84910044159528,0.05945974880076333,-19.302701057922583,-19.66085753158697,57.11082784920988,1735409772360.0
0.4398313323110157,-1018.5658903850992,854.2187604096777,972.3529568688896,0.03799119637169432,66.65089870370784,-4.185539605488943,-24.10873202778032,1735409772390.0
0.44555596603925285,285.1757801280211,1098.0560691716355,-159.22548195436212,0.08569068767266409,-37.31999498286384,-3.1691005670558425,-0.5706727040634902,1735409772420.0
0.5803893988946682,-1150.1750220017102,1043.1913547422887,-1066.0533876672112,0.05312369447892612,35.8095485317002,-40.46764304848652,-3.1053898396088266,1735409772450.0
1.1897796461601495,-1058.222058852348,700.3018645601036,-757.0004001145091,0.06698761605544032,7.219144114412359,-17.06052302219929,-30.479575050139708,1735409772480.0
1.0256399415252222,84.56838553188084,554.4016656828283,160.2361832181137,0.0633711578150307,-15.425162416801825,-7.0968097950652576,-25.680899609042413,1735409772510.0
2.111621041419643,-459.5472855912115,1395.7495908637832,-116.91483801330865,0.04065484004063477,-62.86829576938135,-10.05233290972998,-70.10381878718206,1735409772540.0
0.45469259984103527,571.649788780961,274.67877839467167,263.9184384854615,0.022001000057335296,-78.58634754046321,-16.69203973210041,23.320337364364782,1735409772570.0
1.1715669308629773,-1359.7684133847401,-135.5146860611669,495.15500009303446,0.0520346887247929,-65.92970199183439,-12.720334223073598,-51.823539401342316,1735409772600.0
1.0302019731753476,-778.0709666040373,319.5599602957929,-1645.5138888984757,0.04066130906595108,23.773068839880608,-11.453741518342502,-11.241338304108774,1735409772630.0
1.9873768736976625,-1444.9550650411145,998.6940353251346,430.72204871857326,0.0313337334879492,-51.56630367766813,-8.775816804878746,4.1104424947925855,1735409772661.0
0.8440883634499506,204.7508336859711,221.79728237353743,-1156.7110845588675,0.04170590065382178,-27.58210237025395,-16.484058372346553,-10.6636160682978,1735409772690.0
1.197884296465439,-204.62376994771432,-122.57718264796426,288.8741046915882,0.06455377208670467,1.2196088140899874,-23.649791630622726,50.712423434442286,1735409772720.0
0.7217207288484754,-325.43976535015764,1416.587631884846,1076.3196321049702,0.05245658993005412,71.16875948902161,-24.778138513635017,68.88745873155416,1735409772750.0
0.03772464197585701,-518.4180961050876,1050.694923235125,-1006.5462619252679,0.0704557647497841,54.2378056248928,-41.13683651739553,-21.712270950078388,1735409772781.0
0.16579977671681378,-959.5762229705897,-492.38395865936513,-1584.1355054830483,0.0687435814539269,-18.520083252783014,-16.48701995527424,-11.588700157288073,1735409772810.0
0.8350517181216843,-1034.2232470238973,1110.1170370581708,449.8999445812085,0.03567030076670777,-114.03126892314768,-16.526290277464334,29.86990027997229,1735409772841.0
1.1412055735911661,-1028.9373047621702,454.1457948638678,912.2264196713683,0.04825659901057182,101.12505156296282,-15.758233979608786,10.583068061134487,1735409772869.0
1.3061072925223787,-832.0299384558766,1406.3927102803664,-292.2959230404261,0.06535604551705135,34.418215993755844,-0.7696194144979076,-1.404900117545889,1735409772869.0
