Acc_Betrag,Acc_X,Acc_Y,Acc_Z,Ori_Betrag,Ori_X,Ori_Y,Ori_Z,Timestamp
1.38066322825071,723.5033794344481,1181.5305887337922,-140.40292306510398,0.059511703720005624,-96.52549225452903,12.889245004392096,-26.772483618664143,1735409672099.0
1.2472001265233454,742.9247649089809,451.5812760912967,-90.49878845431599,0.0620567978937031,66.35975174968411,24.130488277986053,-63.89740878407832,1735409672128.0
1.602495098149752,1013.2774431925634,1881.4717143679368,-462.1048327324406,0.07572339631770868,83.89019382664631,9.79346221077761,-15.719814478710514,1735409672158.0
0.8306678078025854,863.6062950494644,1143.8214733577256,-1108.2769619679489,0.055613337411093554,35.4476103824232,23.98763666977866,-10.941301452291697,1735409672188.0
1.6986041794835973,154.53946654822255,443.8200738026991,389.36306349127517,0.029612561853137393,59.089544344958895,-9.727100555796175,133.71586492533035,1735409672218.0
0.8285974554908913,440.29263207530414,480.592838953021,-228.06813129967122,0.05752867646304308,30.27844847778721,8.167303827372859,1.4432498072360502,1735409672248.0
0.896850489015786,1554.7457034354575,-445.0083120953126,852.023877075974,0.03340690106612826,59.571820643496736,-6.769505367153538,29.4184501595087,1735409672278.0
1.493758308485339,2114.7103759019355,480.15303335746864,511.62046607843604,0.048317615453393664,50.43044080038367,-5.863644083851644,65.9683091136418,1735409672309.0
1.7007187346091008,1300.1420927611996,275.88324789604167,682.5042453800249,0.04861298110484613,69.95357345130236,9.504343273660648,48.8909881014966,1735409672338.0
1.1659852257215193,1748.4708575995783,3.0948609762326384,-671.6063346868573,0.043754636604213394,24.939121418213862,15.470932417005514,50.01114318035539,1735409672367.0
0.8327336499394582,1968.9254715139623,-721.5408537444459,1088.8036744083283,0.03535023703124206,63.31416802131582,1.9451317623833657,11.319035091142268,1735409672397.0
1.554507584130445,391.76034944092044,-706.5637151517262,-553.5087613002299,0.04701258198626546,20.902820449629218,-9.149594694814365,0.8465313383427904,1735409672427.0
1.1285235857174358,1893.4920471429655,-667.0922659367122,-417.062746033791,0.031229243686716632,-46.75183810650651,6.040820930523735,-19.362470172183023,1735409672457.0
1.104961028028475,999.1904815841503,-18.844233007257458,267.0618735851227,0.054795863100338606,-8.2044511754472,-0.33125229231729847,-65.50349056934088,1735409672487.0
1.1826276647710157,454.08694991579836,-1546.4579040396143,240.29903241101852,0.060599047428490455,-24.491852092432634,2.4930174634941284,55.36896103975276,1735409672517.0
0.0006958814599833385,1831.7122567094725,412.66958776065337,462.9469846498371,0.07425719783809753,-56.058031561742126,6.899517050237769,-26.666961610291906,1735409672547.0
1.5461359979299911,1821.145667793931,-139.95607775196368,-161.72561447193536,0.030627656243623264,-44.72627586171181,-5.483844725634852,-25.213678089846464,1735409672577.0
0.5102104522894025,1851.471215649496,-1185.8846866467497,-749.2973328105842,0.06317024248010075,-53.08728480323706,12.310363366071646,18.20024041024512,1735409672607.0
1.3295524777194405,897.4552393328053,-560.0452388093739,1452.524549035987,0.027874854863162185,-60.10085796135567,10.720954918198245,13.392965592775726,1735409672637.0
1.7823121820940044,994.0090261458037,-700.0675271914703,146.51039838692765,0.059581489304505825,-43.17584880952847,11.628869832697038,79.31735466233413,1735409672668.0
1.222155722899498,690.4980333115961,32.15997458550589,-670.4994971730207,0.053003148149005946,5.0808998840470085,25.51230492838629,18.633662917314737,1735409672698.0
1.7737526364673237,703.1595881776711,-507.4810411371345,-950.368689401762,0.06441614124259579,10.597723196931318,26.910262069734355,-63.53463926938409,1735409672728.0
0.5071114852228435,559.8348714174136,-833.7493809297432,-637.1007723437474,0.05929245357025124,0.5791998032715853,8.762161008112098,60.32124335824615,1735409672758.0
0.22301564841831367,838.4617288209334,-188.30923144314613,-278.4413097647082,0.04465808491393494,-3.7358570403001377,17.928401266153983,78.40492577938892,1735409672788.0
0.49302892783412733,830.1822729167038,-320.80213601230867,-1291.589447160681,0.03635257212625314,42.78946063910556,16.950824421840853,36.427138170223316,1735409672818.0
1.7985121589280109,1245.9128796849889,-976.7886366002999,1185.5059878344912,0.031554350447178005,49.420061123987225,28.05508303951168,52.18289369188107,1735409672848.0
0.6803185353489325,507.57775690184627,-1222.6268104014873,414.8293912698168,0.0290921189447367,-11.010928420152538,16.235704105548486,30.51775779116488,1735409672878.0
1.2926115087125125,1433.9278331134465,445.1204739929685,1300.4992004821547,0.024779733519767252,9.492576320701753,24.177259576509503,48.24783446982269,1735409672908.0
0.8772804861050719,1781.3242158260618,-181.19287108588873,-1902.119474894443,0.06253636880180574,62.36719777274537,1.2409824476894293,25.044904389296043,1735409672938.0
1.1851456303041705,861.270008977833,-1051.6144635833684,-913.2221381339093,0.0390688835222755,50.30519814008083,1.8642504056686349,42.906756121718914,1735409672968.0
0.3036324768333734,605.4237564502072,436.70415807757837,-689.1876743954234,0.047938238279041256,4.177406208661068,11.667427480751652,52.41398900373243,1735409672998.0
-0.07048108473057774,354.5779894487654,-124.0548802725021,-612.195844834049,0.05274014803288056,-7.674875577539289,26.623393629243672,-5.491843516444533,1735409673027.0
-0.17473997257662174,414.65206670167055,-233.8683528747092,313.26252371496787,0.07034765036271735,69.07097088303347,5.336598840721714,-100.39475400645321,1735409673058.0
-0.8705821763623318,-305.3038513915987,-96.7220950046354,523.2291640512067,0.07219247209613101,19.232189314167968,8.431748266925565,-63.96061489876901,1735409673089.0
0.07597463011324598,-738.9574702637168,-443.6179755305552,-262.68521570314545,0.039267734949170414,-79.6886127916871,-0.5766786041662897,-29.05967615970505,1735409673119.0
-0.07240023559579825,-408.5931206347265,283.31112434200304,463.2416603547594,0.06717147821730698,-53.3929176760933,0.46532653575561156,6.205684823736622,1735409673149.0
2.7219294685847797,1506.464689516858,1686.407284602967,-71.25100724053698,0.05384655612717947,-67.23461071427275,-1.3509845465201487,-27.473055461788494,1735409673178.0
3.220909931595697,2083.96225289799,748.0999374757996,1023.4161105578006,0.05697705177606395,-76.81509815723678,-8.434529106408416,30.463644638970315,1735409673208.0
3.5975672419643447,1926.750915284444,1252.9710127264254,791.5126361456366,0.052499716362294835,-20.37053388464546,-10.499717744215609,-5.449816738074538,1735409673238.0
1.124090910347388,46.937329809992036,-52.43961965644917,955.5045605297785,0.04628436494418496,-27.893154553217595,-1.9608238949156895,-21.684341718952457,1735409673269.0
1.7260070332844601,1153.7828083241664,-607.6648908165203,586.8436792248432,0.0724665196215696,66.13138879176454,-28.588615200428542,14.299720644592874,1735409673298.0
1.0870836527768182,-1.412881069443415,624.2628888075262,-610.0284399449552,0.05325332680777458,55.86479253148238,-16.229705279277596,-29.24993344239147,1735409673328.0
0.9109592791255072,713.0086222615143,-149.12232172423796,442.359997007624,0.05661228287154003,50.32917922696525,-13.39775618938789,-30.23226227590371,1735409673358.0
1.5040899201353246,869.0312458369762,1658.1041432189154,-1558.2127516494843,0.04590265130110624,-10.856682673321362,-1.1400853469448382,-82.7330501590586,1735409673388.0
1.8631378385214865,1098.381340493079,1872.4564958836631,-1364.6438373744877,0.028879931428927485,57.36093532517854,1.6958941218391415,-54.30297100691821,1735409673418.0
1.5543082304629574,1649.3719119874313,633.0516101533469,-1353.231450943365,-0.02324271817358912,80.48717486180868,-9.011877799440866,-5.274034356032782,1735409673447.0
0.40838963778183,-551.2749391694407,286.64438051597875,1310.2458255805234,0.009013681682451521,-27.269461311803294,-13.338081625811128,-20.145881650764885,1735409673478.0
0.7722643647975331,-301.04704207448646,828.0432856220244,-1494.0790584657639,0.03569810748411083,43.12935898320319,-5.01154632212266,37.67874600840473,1735409673508.0
0.6308336954192921,-708.5945791452889,-357.04161082311623,-964.3437067486575,0.04587265381827539,-40.249403694624405,10.172267391979084,-26.58569092805116,1735409673537.0
2.9695766322162247,1941.4020635143381,1531.0580525536516,-2732.874097853484,0.06208510708303427,57.64768366078266,-3.688886609609246,-17.79961959049503,1735409673569.0
2.4423354684775367,1923.1149817678738,1950.5019981538953,-1970.7191943228152,0.0695796973752383,38.717715834564146,16.08598225120329,27.422729047974634,1735409673598.0
2.614413549606632,674.3301274799572,1738.2070431180532,-2194.0999070200287,0.039668159013456765,41.25071404138362,9.112083375136706,36.85716959744153,1735409673628.0
1.8697622279099055,1130.0505304738801,1032.2068272438178,-1893.097688401295,0.03616626474598762,-42.43472230358289,24.289124507402818,17.179753638008606,1735409673658.0
1.3296839061685846,-284.96396208866616,-383.01905842835464,-342.50501668386664,0.03370799586504204,32.14027659353137,3.128125750377099,-20.86428082058078,1735409673688.0
1.7909542463463008,784.45447869017,839.8460071512799,-1171.6785487491024,0.06373160404365215,99.20499409980653,16.0684153210039,27.820962881500378,1735409673718.0
1.8619648995803035,148.70023569949836,-126.55534597826204,-1329.1469359008963,0.04878737142370141,-1.771636879017361,0.5718345082271723,78.48635854755756,1735409673747.0
0.5185747865427978,1529.6804618965828,513.7520234543539,-2384.49573359439,0.05489075279469439,72.25054484395424,12.474281267740546,35.007225774030374,1735409673778.0
0.6692191468251276,1537.2097478298836,4.340002903137076,-4.201849144264656,0.051122903194000015,12.642557980661028,22.18385652961835,77.47929511023239,1735409673808.0
0.5211210521099834,909.1630721160425,1932.309106958143,-1464.0778561360917,0.05911198996141664,95.76836362510744,-3.974455897097858,-16.082748200157404,1735409673838.0
0.46762603128434765,-196.1227441564651,1631.3414767621107,-762.1943881127759,0.06579042169094787,73.3881771341694,25.86063548319213,93.99526613581045,1735409673868.0
0.4317978743501303,282.34563702831645,1281.9991783981293,113.10442223256541,0.0677597721383737,75.14244408881645,7.86992816496652,77.68799779981543,1735409673898.0
0.9280870731995765,-114.88296372104116,-398.8936143409247,-315.98451746271564,0.07551788732094593,11.2980465201749,9.6411794423961,17.662710442486592,1735409673928.0
1.2858686354516093,-345.1136004515085,508.52425704125744,-1822.9190957122505,0.06369377584838123,32.22567835011287,6.27178836677413,-46.99436627668523,1735409673958.0
1.4216041047940788,276.79827167072233,1031.1433995650787,-1281.1808342410357,0.08380592330951857,23.984489919262437,15.596077826917334,-72.8803500440962,1735409673988.0
0.9471635118760172,-859.1299250582115,358.65134758062715,-408.78690112539766,0.05543680615768298,-69.41191829603187,8.18403226610471,-61.34362787801458,1735409674018.0
1.3282577230375263,-435.41171916754445,256.4084467992295,-2156.1913273116443,0.06900604737405185,-48.45596163804999,32.59967804407165,-35.18462556189337,1735409674048.0
0.37666737783958115,-217.05823765259277,-141.29829643109684,-1084.2138728127593,0.08421609879362564,-44.339251960170486,8.212495385638931,-75.15165201878705,1735409674078.0
2.1809605468422184,62.504160646490334,156.80927913559196,-2464.310392258638,0.039800244044636335,-13.480902861905932,16.300368148292605,-7.767843933783077,1735409674109.0
1.399106705805578,306.31846574245856,515.4152000206111,-2262.4610080396724,0.04701691190595231,-54.502654079788556,24.232919166531026,8.92554160889484,1735409674138.0
1.4212097318774113,178.35079184130694,-897.2086125380438,-45.3152338612158,0.040073762724412945,-20.59122275878703,0.049555953459726965,-23.120143308647474,1735409674138.0
