Acc_Betrag,Acc_X,Acc_Y,Acc_Z,Ori_Betrag,Ori_X,Ori_Y,Ori_Z,Timestamp
1.1224851021736717,839.9564528919186,462.5164327067614,-1607.4271159555822,0.05561291935338202,41.29328607452293,-28.011836869956362,34.31647649334103,1735409797687
0.8872100884001772,906.8536171606424,-52.755497324950696,-741.608807647479,0.05044031105738924,36.89323063443655,-20.223303579237864,58.98852300295232,1735409797712
1.698772136425458,412.5655623204303,62.31772000722436,-312.138074197675,0.0615907242402414,48.256744370888,-7.618855617254663,33.858080372636245,1735409797742
0.6596639330753407,457.2572759972497,353.3096636833292,429.13049353389147,0.0865805966384833,-34.17523736842765,10.81028008519354,-36.25075640675044,1735409797771
0.2715111485189313,-627.8299355312583,529.6075788569871,-1501.6259180089564,0.04263600219280362,-48.605557822880904,-17.0085100741578,-27.458321792204856,1735409797802
1.7493502250371005,-312.4205556483134,910.8538586089508,-522.8184853036878,0.056016494158994415,-44.10143350627638,-19.009844972298467,55.715186468554094,1735409797831
0.3430220892759447,-264.3891132510565,447.7807860446613,-1975.7363768614105,0.04822519432856859,-17.869800176713653,-23.198928022102788,23.62902074156849,1735409797861
1.4166341036693986,-388.04341363864506,1190.5227235336354,361.4284085832062,0.05663899235199543,-99.92141264679313,-22.016834053596664,26.818076233451507,1735409797892
1.4524971054977693,-428.8095149730611,1492.1222201677938,773.8683226425342,0.03965106697798404,95.90670662610935,5.2112422549647,3.309904910760918,1735409797921
1.5871373733369742,-867.489309686962,1128.6840227281955,-204.6880053186634,0.04008413833227791,-0.9711716273330993,5.509516840088981,52.596463100507584,1735409797951
1.229685591685907,245.8887944895764,25.963401396857137,20.863252931553234,0.044773804083810674,8.108703222770544,-11.630476738186935,-37.87901059863617,1735409797981
0.5036204964469168,1028.4379876891712,-217.17128813604515,-1192.2863888867923,0.05860486180891893,28.52835933884916,2.7842769774237173,-88.05797028657396,1735409798011
0.5750373837957012,260.89264291085607,-643.5513269262366,-78.65425478591214,0.042502995380351086,79.43968212838274,-16.63290557768476,20.89405847447452,1735409798041
0.6332366130028955,418.3349852583687,410.48029581080493,24.296902050577117,0.04372499241499931,48.08323187627828,-18.783238264838968,-10.848948181364316,1735409798072
-0.14980394181325163,-166.05914677580827,596.8838811595982,-164.0852552772218,0.06901891473040216,113.89640266912292,-6.7231332661205805,-40.24148789560511,1735409798101
-0.052256518771466975,489.7694597221876,8.776785265799184,-920.4575926546307,0.05440828799805733,58.57993405992034,-26.673709117219307,31.342152971034515,1735409798131
-0.14765476901928648,-385.6624412865375,-252.75900109542033,242.05402521528794,0.012101362088068172,55.40869513114431,5.443835327048082,-7.676471622745433,1735409798160
-0.2340106681345666,-677.398315490134,-361.963417513803,-875.8641838190103,0.07365295852836154,42.72622241194895,1.9899478245180973,-21.059935317103715,1735409798191
-0.1989515234970428,-403.6618594217241,-285.01018983440076,-25.47850640325221,0.05453006370907409,28.17772428997824,8.207442512743386,-66.06919016207516,1735409798221
0.4477315432932725,455.37900551858974,-93.28101582814152,1122.418301442807,0.02949008459032173,19.378353246652548,-4.337289646191021,56.45106444531048,1735409798251
0.465956357632496,369.5129410251331,-298.9658667811922,-1184.36791519533,0.024663494685552765,14.096510274935586,-12.61262068032435,55.863958691600004,1735409798281
0.14941726299378322,-70.21288161224253,633.8116821951934,-565.340060663533,0.028680836201733555,-9.132046241215173,0.7847626484565658,44.92159010768501,1735409798311
-1.0113271403788293,-470.3853155045596,951.9853687092105,640.5801367172501,0.03608517531801984,-33.60346272100371,-2.054864273438356,-15.83194440782557,1735409798341
3.200525138176831,2076.0288557350877,2447.7826420697775,1305.2901572894416,0.047096690551476424,23.760502122462885,-0.3442680435824377,90.1467192499268,1735409798371
3.163265474537282,1615.1021336306756,1749.7050978197465,1801.531626510486,0.05624575714047478,4.4734371363195,2.3761569662870254,44.78552589488059,1735409798402
2.352614521530124,2301.756096553544,1503.2888101489234,3003.4795169636363,0.048463853239838275,61.603771393595615,4.957041111141412,39.532027649710614,1735409798431
1.7647145618095452,-24.55717003068014,487.06367492557195,1793.1181472270252,0.027148122898607727,3.4477251452272686,4.995567913649184,5.389407179799591,1735409798461
0.9006114030921173,670.9162957701328,877.6542718216272,1148.682158698125,0.004722128884937345,49.83034581387744,11.49002900234165,102.45724556101615,1735409798491
0.7302084031568952,1508.5850828452112,75.00159436172862,1005.2633689392562,0.04129892658071163,65.36066426087085,-15.481072670176555,68.36933742902724,1735409798521
0.29591593821139905,381.68474896816264,705.9242951285502,976.0614613296236,0.013917531092268454,51.60233891868113,-3.865095711697749,27.973469901715358,1735409798551
2.271461854257764,16.366319473925955,-1888.4800335234609,1624.2675550995705,0.013170010209957037,24.280258509390983,14.226988491120377,52.984681495097455,1735409798581
0.9847382417276371,-122.07008838355793,-822.874884282019,2101.3341572508034,0.032022400112910146,51.77618431103748,7.367909749384091,-26.76705437589498,1735409798611
1.54072824489146,175.00811068012712,166.15286896670705,-132.624055666113,0.07205315716995163,-5.738369737715093,23.49343529327939,25.127222861081783,1735409798641
1.7373153847165048,116.58319562819293,486.12462426733487,1181.574120812823,0.036663027256107684,16.09122103761362,7.736538117970541,-9.970506847416885,1735409798672
2.021705784101038,-325.3352378875943,245.17791942756025,1464.5140295508386,0.061750864539068626,31.842403690160747,18.98835463178886,80.8907020288481,1735409798702
1.2385409606228541,-213.86986589680495,400.4766392094302,1342.6658098884293,0.07420349469272186,35.5355855042209,22.175316761512466,-78.32214858947465,1735409798732
0.35789209757604146,-524.7825893089316,-216.39544884543483,1579.4681122757704,0.08190558870875726,-0.29722122624126524,12.563643858501873,42.040721425823,1735409798761
1.276602189225772,-781.2509615779193,626.3814137089579,1263.9010473523103,0.05083380932263607,38.6244434634692,23.617408272991927,63.285703378241294,1735409798791
1.068404821623331,193.84143700778708,-481.79334907977983,-108.61496862219292,0.06773692509471035,-22.01929971650273,0.09595088400117646,61.64766493172718,1735409798821
0.4757634852403212,-1046.0289329509455,-268.04808558726995,337.3556347861303,0.062216848713830014,78.08619140288475,-4.465499731251495,-69.9009106302482,1735409798851
1.4224638382932764,-1024.3368661164664,-693.4502663889691,1246.9030213457993,0.04451797245673396,-6.703459416088273,-2.58662340879261,97.58135975516187,1735409798880
0.5392849281824473,350.6874455748649,21.799965503396663,641.9259986767548,0.029378208335872957,-14.569462329066761,2.77404920343616,31.597873622594854,1735409798911
0.4586610892337249,719.6714069358749,-490.9949585265175,63.70727121600703,0.026813919419076168,-12.789941450157695,10.330312039836675,80.80882286346298,1735409798941
0.4161844801400265,80.69711329983025,154.4236804253756,293.32061608962,0.003333167638783243,-23.73930016939032,-5.405207680947503,15.528675549172103,1735409798971
0.9235504834593942,162.86755377581767,-11.199538718027924,1155.6350594878188,0.01007710117171419,-37.44262591787159,3.3692569559259837,22.315757679618294,1735409799000
1.760958382456326,1262.2355324740943,250.3305378788013,1360.138083186317,0.010598889538241934,2.5453187638097754,20.118030915814238,50.166159590085655,1735409799031
0.8331041693304027,-241.67115452156136,-6.08176576632809,1647.1416766069021,0.031644873951196924,-33.08693557672212,-0.4609911801855928,-1.5180579248053583,1735409799061
1.7106728270679903,-323.79741888374633,-550.2497466642685,2973.9982354429812,0.05015855151691535,-49.18522622470833,-1.5740707711468527,62.65809162201049,1735409799091
0.05362534269514885,173.56199658527186,-211.55517475776705,1118.6226129965403,0.015416755712591802,-0.7981746663559841,0.6162770282665577,56.970883557733636,1735409799121
0.6801819087565663,-1082.020093962134,-372.11157497929275,1273.56987504434,0.019078840486720264,18.990651920705155,16.490050051761937,66.49746824735887,1735409799151
1.2650193844237039,-470.7897390691064,-326.3173849477839,1275.2859185406126,0.005102296001794189,2.0922383803283644,-12.198428694603322,14.74619094030849,1735409799181
0.8402072374238303,-370.3217252761199,-444.1931916516239,992.2253567380246,0.009430650758728317,24.849907285207376,0.0007147409854679765,31.692098120690787,1735409799211
1.4024917892561475,168.04138711482602,-264.91817927452536,1911.1026673239853,0.004162408819595113,28.83256114730017,1.215785426752796,-3.5277994273155464,1735409799241
1.1664578917480477,306.4937004160731,364.99235391724426,463.1670308714227,0.04789324669845787,-20.858191103458005,-6.514825306590338,42.023799846359395,1735409799271
0.50913651078647,-572.1294872093553,-326.16087798011205,229.0785991798915,0.022847397693323106,-46.78542169426252,-8.14502836073726,34.93641084312662,1735409799301
1.3606081531987826,166.10756819021032,6.366572330722363,1597.2705906029764,0.04562512206775782,36.03467845548542,-3.203320277003847,25.94522329347111,1735409799331
1.3215614948792782,-753.832483159509,622.6307021936195,945.7319445209457,-0.007686983733321407,-26.16769300681044,0.30753522293629487,-10.479809210003703,1735409799360
1.0615401384801837,289.95554898602677,160.6647911279511,2123.7924275990135,0.02370805019246372,12.015558502780115,10.637380908278143,64.74470375099791,1735409799391
1.2471159411898847,-472.90111543496187,-178.4207906077887,613.5273804442687,0.02375459883306162,-3.5402531294393733,-4.435159203037422,1.939666415548639,1735409799421
0.4938106663228947,836.327088572467,-532.6811742550258,-733.6102861540526,0.015996990462259903,-0.8602707894117456,-7.574460233367207,18.05083568677325,1735409799451
1.8221776040660846,-584.2997749796882,-579.5458594596896,1688.032268576314,0.018562701342956345,52.8330688382006,-9.35555882160926,38.806390364079576,1735409799481
0.51823155038187,-1090.8855139607758,-666.7338491548144,1266.9953893433767,0.006982023499029001,-40.25979566405531,-7.056272643267855,-19.032317743206892,1735409799511
0.47555528374603084,-1039.4928625019966,-439.8046546949746,1040.4530954856368,0.03376573108432366,-30.19039197391382,-3.6888413996505305,10.414528132670949,1735409799541
1.1131120913587367,-162.56717706890197,-663.6431438372983,1587.383785246784,0.016024386494761143,24.053048817111545,1.3024113281319272,-35.247207471979486,1735409799571
-0.3204688023486345,-768.0565916675314,-541.9586785630356,252.1222105631175,0.0017909997279266857,-4.621306301469274,-21.477089376272392,36.1817581547218,1735409799601
0.9953109541205546,-173.97049308128427,-14.580977798689105,1813.092979713535,-7.426194239801027e-05,-3.0577114205644715,-2.2683561269167942,37.22672109299997,1735409799631
0.9455570173141558,-225.47957206263888,-350.22577157431283,-532.4379180430585,0.002043635432663087,-24.219377015124522,-3.4887132771760037,-4.44760134092248,1735409799661
1.251285086407578,-515.2340122145183,-186.97482310414227,593.715533530795,-0.005705334375652814,14.383542165678532,-8.054966041211792,-10.826539894384789,1735409799691
0.3042643184476439,-716.1938735254853,-101.47897912612616,765.1344318738176,0.018420720382944532,-33.211215755045515,-9.109043776325809,-31.76664689925289,1735409799722
1.0783300991347458,-131.35467342749092,-825.9268816907974,981.8525349250177,0.013489702431677898,9.34542960007213,-2.87676954219527,29.770765782902522,1735409799751
