Acc_Betrag,Acc_X,Acc_Y,Acc_Z,Ori_Betrag,Ori_X,Ori_Y,Ori_Z,Timestamp
0.9491028109216139,-228.7081830643898,-1086.029693107082,-153.25907805466687,0.012693645708583846,-13.096455175337688,15.51529928729791,-0.03649318439121885,1735410056677.0
1.0364419430906993,-221.4606520277157,-488.69143371655423,1197.8649364368928,-0.005518856510509033,5.175845383452416,3.657039602728238,28.24588554113995,1735410056735.0
1.8967419109105639,744.2000835727921,-985.3733184959135,-1016.4976746950567,0.004396655161435599,-11.8058429055238,-0.7514908303225685,-12.251982358209647,1735410056737.0
0.5853543439234372,1078.134719366898,-1604.1612936497465,-252.7943290865731,0.02410750832246039,43.10402052761771,27.675466993450826,-23.587777646817145,1735410056766.0
1.1578687759179476,1340.0405119822071,-1855.1531395873537,619.4493389413007,0.006705576057729557,21.845329918974713,2.644858839484786,-19.58651146801992,1735410056796.0
0.7019263488900294,553.4904374826555,-1301.0152820161584,-695.6783156660797,0.011452661270191544,12.30281279702578,11.834062897663262,-15.626877507544233,1735410056826.0
1.098312780973943,765.2126171012543,-658.9072164133704,-418.2226988479413,0.018874669554465092,38.97466113137473,9.572827352250545,-2.7300631738538286,1735410056856.0
0.8921027670254627,75.53341652591484,-563.8870454057958,238.3424609960476,0.03326988442064837,48.54538461195164,11.262932962264266,-39.13219565282653,1735410056886.0
0.9044554896183721,1001.0731649290979,-350.0491369310677,23.28213208867446,0.01674193483416108,10.586855508043772,6.861172207522663,-2.2148571017374366,1735410056916.0
0.88169709383573,372.7414579211544,-562.0358608537043,-160.54742394022537,0.03591988953371822,19.397739446729048,-6.273996232194618,-41.646986521486724,1735410056947.0
0.8249138701683328,-445.8593753615123,-1364.856543241186,-601.9716904775306,0.03913707737510322,-25.795806139588404,-11.815340414016033,-17.91287569283424,1735410056976.0
1.1002162845384815,1434.5690322207165,-896.900155304713,949.0953019408275,0.032790616848135494,-42.934705524393735,-3.232785512493713,-69.59901089893472,1735410057036.0
0.9516071778413244,-94.47150482790721,-467.73754197534544,284.6657642824195,0.028739812425427513,11.850389191177976,10.260454225684995,-17.79485347364279,1735410057037.0
1.3000819670894102,713.6637809312545,-1165.1620319863466,693.9658186696004,0.0585672360315075,2.694494920871559,17.539248304903577,-66.92146258057222,1735410057067.0
1.0039690959822227,733.5096424648468,-1128.912704152349,296.62137433939597,0.031944111518309816,2.4519370825909883,24.174274204364657,-19.463902078848857,1735410057097.0
2.1037227619044487,643.0410546998488,1489.3013769503473,276.0431333962843,0.06506084587980371,6.388023865774155,5.4459884345666065,-17.754411609082695,1735410057127.0
1.2947461247054521,239.44355299605445,-666.5385591677299,930.5914922455418,0.038710424820898925,10.93353177916246,18.716099533615875,-45.329479618580756,1735410057157.0
1.7970672469094062,1131.9015777692402,-959.2215855457442,146.2387722885203,0.06019432055275781,-32.615196764904766,7.567372707016437,20.527155542565744,1735410057186.0
0.2724124961348381,-416.1200773746743,-448.6267885773933,-1765.5521035423928,0.056117249109383704,28.893210587580725,24.157095969723574,8.98261572399199,1735410057217.0
-0.2056110424226442,646.3935796659085,534.4364230042161,501.69223619471165,0.01566411030356612,34.160672954403886,-5.7497303784657685,28.5235391750227,1735410057246.0
-0.3289510102377042,-390.750879258168,-118.64400182591359,-296.9171759204912,0.056414221247248514,1.5296254600683958,-2.204981598661167,38.40654011636593,1735410057276.0
-0.6023892760954218,-521.9999493310081,148.10161922466233,567.6282806742589,0.052162448861720064,-30.540900678059874,-17.706271761617494,48.60103558093899,1735410057337.0
-0.4612516408379969,362.9238084781783,-356.8363243172281,198.90158989674714,0.06022306844549141,-35.48260318223049,18.254313365318517,46.5977156850052,1735410057337.0
0.161497353774518,29.870914858166657,392.42200807181086,550.4876841136273,0.05856234853860828,-12.748136884985222,-4.70197034480884,-25.917937083041515,1735410057366.0
0.4718424313090028,-271.027557058772,-655.6309824000009,1664.670268846788,0.03593655584297697,-69.28466795354849,4.484411664004168,-51.00636628380413,1735410057396.0
1.3426499974631676,1007.5773888777846,295.38685711247103,-3177.8962294221046,0.06589690741702024,-14.451043643743493,-18.454864202486643,69.37435329632177,1735410057426.0
3.0396050291762924,499.15265975619775,1198.7991792663586,-2932.3928703785873,0.05497210445372951,-66.41577453764114,17.271758172117792,-26.66226260254309,1735410057456.0
1.7177761801969018,-195.26957386917059,1083.1552841705713,-1628.019836105731,0.07002060824977083,-110.26633670372502,-27.75403134786729,-21.268648533498006,1735410057486.0
-0.3136827188279372,-261.0976934949863,49.9291827665988,-606.9077782306593,0.04958444464978064,-35.57285107864695,-13.655172624283331,-73.37288427961084,1735410057516.0
-0.1128562561290345,615.5916223316599,317.5291133368106,-996.7339435551232,0.06057840340873928,46.14271235469477,-2.666748283286066,55.69247422205073,1735410057546.0
0.9744820596591179,254.26375621264387,-165.769939038361,-788.2729273138675,0.04173532165762873,94.42255552595992,16.57438589946371,24.453005462673044,1735410057608.0
0.632480154110882,208.04109405322154,-81.1246448858308,-322.3805553811833,0.02572534855141899,47.86121013412224,10.293073735311822,-32.70638652789525,1735410057608.0
0.06241679029139474,-342.5020488546791,415.06201377476987,-365.1760910803612,-0.004022754427300088,22.60544867395217,3.145800816775835,-34.82356213094013,1735410057637.0
1.4061931516439137,417.36176270905486,-642.3753515179541,-56.553235485560435,0.016086831767220436,-6.351543628748637,-24.09205288562834,4.854851052774371,1735410057667.0
0.9009963433542543,-469.30822446175506,-362.0925863507306,-125.22507206844136,0.04725817352034077,-35.354671047532705,-12.98441695928232,19.859270292596342,1735410057697.0
0.3345624790414789,-462.03609515148116,-284.1931628806463,1086.8607385038204,0.07961498069400011,60.50409367528982,-12.231957124339434,-30.845079719339882,1735410057727.0
-0.0874857045782661,-376.9915995675805,1216.5114631607205,948.650998622253,0.017979922548289406,-16.509412820178824,-8.95852264424179,4.695935324408446,1735410057756.0
0.7265555135372416,579.1187186205672,-304.8370072754906,105.10467558169091,0.009029697768527124,60.52849357762346,-3.077407170528284,38.338929801500605,1735410057786.0
0.5772983580190874,-491.19255898645565,760.8646049298936,1984.4042817875834,0.015715101934267117,9.439867668466235,9.52521241880226,-32.01460865416656,1735410057816.0
0.8514139925152011,-925.4659096449152,-1210.281037849772,868.1720426881245,0.03555563921364323,-0.640817493801852,-12.575839947243686,-19.38391664624522,1735410057847.0
1.0901106761693908,-1101.107319442817,189.1689190233855,1179.5200097589957,0.026452112107986044,34.419337913411134,-14.558955312475266,-25.029388628579092,1735410057877.0
1.3863396196881883,-137.15838703398802,88.71447483658898,1914.0325740270428,0.024596964644105504,-31.540004291819276,5.322845417223111,-49.346808350556955,1735410057906.0
1.4713354402925198,1014.6249904823954,-29.437632555452353,1342.4359152790048,0.04796213340450707,7.815942379451787,4.222480099555927,-13.085487927582484,1735410057936.0
0.7074516467942378,214.60562825532992,-346.61375536454375,341.63930644498555,0.039358083498383795,17.364096786716953,8.60895583017399,-35.0412905835689,1735410057966.0
1.413088619435974,166.92213018226724,357.7998924902445,2753.2089965792848,0.03531854305387221,26.269204995542523,-6.342356401937225,-27.38336862093837,1735410057996.0
1.2505643244973939,81.76596988310185,-306.860599062502,737.5499800463411,0.06599958326511471,-12.634480395406982,-12.284241626635023,28.77789901190746,1735410058026.0
0.7856865954032086,70.04084514952423,-407.05158955851414,1866.6999056649488,0.05044491796935811,-21.106080568583426,-14.259521018353468,35.394586828867695,1735410058056.0
0.8186686573976193,706.2230794180052,-133.3032021576014,1344.389368923843,0.044117359709655544,3.0007469341660946,15.851753297185379,43.08796709860459,1735410058086.0
0.6549762341715526,-604.1592684933973,-279.142655838546,65.83513689912525,0.06330306915746908,0.2905313964463887,-1.1472085865453094,71.13910665652571,1735410058116.0
1.4363556503438775,582.8388253735179,-620.370601918785,511.6876898192503,0.05301483869872902,17.49554350165282,-20.401710812360207,19.597635324172604,1735410058146.0
1.5413093553848647,-84.47489932678496,-781.1514561035121,-415.5296952334452,0.026763198840082797,22.79631207268156,13.364872774140444,24.740030252124065,1735410058176.0
0.5813829784892098,-549.6235906750836,247.6842239487131,1941.7657340969436,0.05682494995902102,-42.54340544640937,0.38942939940843146,79.18165777435546,1735410058235.0
1.784902333254362,-10.748363601079049,-22.97083378553606,1271.7197411821076,0.04845884402301247,17.096106972972684,3.344281720129296,23.560279444562216,1735410058237.0
0.7903927318224564,-38.04159441942599,194.01302382290658,803.7116865371895,0.04405030407613631,-51.91115085987789,-19.90151098956621,58.64412029970791,1735410058266.0
0.6854233882790013,84.92463016606285,27.31337317752724,-16.284508395630837,0.035508799088393175,-53.752683729293835,-13.224562252976902,12.40342965325977,1735410058296.0
0.8327595753087919,-973.678790764697,-1201.938476744135,425.42172273056053,0.025332670460413084,9.186736039913987,-10.752087768677928,15.940305006401346,1735410058326.0
1.656961901145256,250.1300127041336,117.42609052306972,1702.7186428131538,0.024441150578097114,-27.50533976510885,11.844029603840056,-13.15490291003551,1735410058387.0
2.035517373194924,785.5857698857684,-181.73868353372285,818.1740548041824,0.05029602330747174,-42.34534735728813,-13.242001855001671,52.64623015769738,1735410058387.0
2.1355906429040274,-347.79609843398447,-178.31204549283842,1105.7529906043064,0.02164025860888452,-7.583776731097862,-3.3624167663518496,17.3727997102473,1735410058416.0
1.1431449884832194,100.39827100325417,-972.6776967318181,1043.4871575343154,0.026895288421602357,-25.925651851146913,-0.48603417826385575,31.87000564360467,1735410058446.0
1.5913691558021195,-60.55510091304807,424.0047047895391,786.3495279908284,0.053616247446888365,29.731750098965872,-3.490561488635392,47.192847947899544,1735410058476.0
0.7306270959909409,-1255.4138300097811,257.6529412251364,728.508182855171,0.04243575817055327,0.6043967741398819,1.0430033237827265,9.78562423248055,1735410058535.0
0.5794118988807924,-176.41221229891906,-913.4376736167619,488.59294675042855,0.0008997965497430094,-12.4157361168481,-18.070848516207903,31.992116826724356,1735410058537.0
0.6574239822885823,-426.88513774280227,-485.7718217275482,562.6805625945026,0.00969254905569207,-48.2293330780853,-8.516573136787398,-5.251851156432483,1735410058566.0
1.046109779494435,-595.4671718976942,260.09398524473033,-365.74689191744164,0.003815395604121783,61.04334886020926,-13.15544507909582,10.231600186720671,1735410058596.0
0.953707234439318,744.5091315295556,77.16914876261728,1331.8300998896589,0.032254769423723906,-57.65514333336729,-13.25733415500228,40.715325962739115,1735410058626.0
1.3097870661532425,-1056.8305666064828,-32.23387212824687,1587.3976156800807,0.026705110298125417,20.746712415795677,-1.2572147089808223,-4.419239843349146,1735410058656.0
0.1825770847904803,255.4016253661659,-622.8505821006404,1920.8935152742315,-0.0008897479450655898,-31.98587546182646,-5.1835273094057985,-34.53877203561274,1735410058686.0
0.7858234429009185,783.9111101815612,-331.06763420277616,-653.2043245764937,0.012720677120002464,16.584345259491688,-2.452050115394571,38.52473193810985,1735410058717.0
1.3470491999801115,972.7180009216038,-1053.6051339842452,1134.5703002760154,0.028167940300849105,-36.22580744358765,1.5484405131484285,-2.569792172772683,1735410058717.0
