Acc_Betrag,Acc_X,Acc_Y,Acc_Z,Ori_Betrag,Ori_X,Ori_Y,Ori_Z,Timestamp
0.29349746455792236,33.54476564312802,316.30103680340716,838.1750999036885,0.019693498626756324,-34.03705284052162,18.798657936070004,18.76190300884212,1735404996705.0
1.9183427760988896,372.79226646103734,-704.399703215561,1361.3163067991295,0.006519537357609315,9.693767583275076,27.567798802340178,-25.968448278976535,1735404996736.0
0.5945414426032756,-1315.3256847569705,440.4364784098992,959.2006940523588,0.002195560912021964,-5.389534954644064,9.419926191304487,28.98007288338836,1735404996795.0
0.6448528869602335,-165.4087597436984,-258.00950373460455,1475.0960305583608,-0.0016053437160128935,-13.424466035379975,15.563175344950935,51.87189146342026,1735404996796.0
0.8597134794032145,226.79626164398064,145.14991386454042,278.57060405827224,0.010686319134692606,21.157242276058984,-2.75189104114531,3.419018623293464,1735404996825.0
1.2517198550874717,-547.0658052070303,668.3265346678461,1655.5750246360744,0.01024125135078367,1.0513089044307073,33.765269645145324,-1.0538498964542686,1735404996854.0
0.6970601807168548,-276.5209916491917,131.36638210211314,1065.1411644417312,0.0076434799769704445,-41.3504358634143,10.611888666328797,16.5426454354471,1735404996885.0
0.8599403194848917,24.20183920210036,1029.2107052476354,10.32935553353957,-0.005556767853204154,-25.2612408340336,-4.191251680380919,26.493590195023863,1735404996915.0
1.4114826918777414,285.7971138714852,-767.2618061300324,1807.8454721243565,0.03356913482073093,-63.24795593597053,5.610151973739724,14.8851917054401,1735404996945.0
0.9207580076644114,-349.66448347653375,-1225.4700716814293,770.5543154541311,0.04916592165483792,54.56492288141946,28.346562366678487,5.323280439212695,1735404996975.0
1.1047225689902658,130.28774568705597,-82.93211279651317,1656.2141773848302,0.03167100505968146,-14.517938567626246,11.692321313681482,-0.6260183235905856,1735404997005.0
1.1374355883917002,-470.78794338137544,-371.7180708330115,2907.677509072515,0.026404721344464557,34.57741899310792,11.881645032461247,12.725472642385895,1735404997035.0
1.9164641748538889,-47.15041503304848,583.8679471085931,2112.8149231431335,0.024620302324159803,9.936578830137115,12.480548253165303,7.613291227421338,1735404997065.0
1.0346134524882094,-129.47975637255266,-15.405055009513234,-236.23076214303023,0.010555936551757973,-17.690438118759996,8.306361054090383,11.906425038540021,1735404997094.0
0.8366762292689855,613.1933378367182,126.17553537240445,1363.8888007240157,0.002625135229577415,-22.623874633856502,20.698935504640144,1.667076026720392,1735404997124.0
-0.6178072223066277,326.917979582216,155.7094707754165,-459.971914033538,-0.0012893038541231042,-8.16666773330206,21.54069312859238,26.63788183673148,1735404997155.0
0.22686169709490683,360.8539008372598,71.99282884800337,-1380.4115577602586,0.021350401318449685,95.26097203765946,23.71670095971776,13.461737737809136,1735404997185.0
-0.19864965232427323,-1092.0968276702595,-342.312118829591,902.8443942085657,0.06772812950418898,12.59251436035209,12.761323284234585,41.021770156497276,1735404997214.0
0.7966026335135645,338.2830858550804,-3.1097029010491966,-1294.3245918674556,0.06548928566795796,-118.9213821649625,10.400037173115651,32.70159780445284,1735404997245.0
-0.20446335666476662,-187.98274627243984,653.6202602146443,70.06239540215869,0.04968758437883554,-8.429136282029013,4.3475254020087295,43.13438872678663,1735404997275.0
0.684899251500653,-324.2521326724928,4.9685553732967875,48.86867498491621,0.06579514168310964,-21.325175178697062,-4.026962263909122,30.81883156489671,1735404997305.0
-0.450930683510271,-392.96833449418045,279.08930106406973,-338.61545001740444,0.029648568243500935,-29.482579260825077,2.5503457735500064,79.19930961534075,1735404997334.0
0.9012788498902677,670.1333511230087,-789.6908793458931,-666.3584136409675,0.04704130817808448,-66.22884533779833,-2.8753175996662685,31.434465075647022,1735404997364.0
0.3860830810965181,437.4990550863501,-366.84991918088883,-2541.642197296444,0.06191201129692637,-30.314904253066533,7.296112644945419,-30.511527761920764,1735404997394.0
2.361165436948534,-435.10867370483766,124.0317784598999,-1506.716027856112,0.031902447407639756,-58.00376690883611,13.052539376514392,-28.07503898171952,1735404997424.0
-0.11487865504855012,-117.55065502918987,-216.41037532355506,624.6280205304729,0.003462294023137167,-69.43050707521226,24.792685400885954,1.7521963552335018,1735404997455.0
-0.023836350451744218,-436.92144754083654,-1348.8885699285709,-309.9639998510383,0.03621082017439711,14.068675947282486,-10.065868558695815,-14.271947705478357,1735404997485.0
0.46272588458868075,151.39522573421195,15.129071244382466,-1211.0945535064413,0.013774416124729192,8.152484309786942,-25.13396918417716,12.644298504475923,1735404997515.0
-0.46748998940107706,16.29291407632443,-456.70896018910366,529.4429493196858,0.05330270839282838,-33.403269681138894,-24.616346752206933,-57.189925917811706,1735404997545.0
0.7265384923279672,-1185.6045392204342,715.8092508084867,-314.7465052900145,0.05900155990639133,-13.189179204198409,14.248393919840556,-51.78121714719123,1735404997574.0
1.2769045805677453,-642.5430006097365,953.1140154182792,2336.8160351818988,0.030648812913074842,46.762219822601956,17.31938439320689,38.356232637066405,1735404997604.0
1.1754197112653204,-81.91466802517532,814.5605867934673,1572.310478463793,0.06503012326996721,-58.31010479258946,19.75641185578747,18.41387154253317,1735404997635.0
1.2132183498147537,-53.306818103847945,545.125054516148,495.40005345600764,0.05412663724984043,10.959177567726321,4.1736424525018165,-7.078086384853709,1735404997666.0
0.7336637727445765,-163.10542487319125,-184.2525941248952,1078.9291621423301,0.028831817499687676,-10.620842451412141,24.4769214065897,24.44641384697511,1735404997696.0
0.6403263343625283,-315.87863227833515,131.51618669268,1217.4422699734964,0.004497413468246357,-25.886518061243745,-7.142128594038702,0.9252788660044402,1735404997724.0
0.20632761235206953,-292.8875661442286,933.588684597203,1428.8989151574406,0.03542503575696454,56.76113212772074,29.81866912508698,6.576177040765273,1735404997756.0
1.2354661230924104,-431.55010014055756,532.3334042844937,583.2378768582289,0.015491728290290831,-42.996800812810925,9.432855977500472,42.43772049597174,1735404997785.0
1.2466895122137773,-890.186655447061,-704.0287885101421,1075.0615708033154,0.010459214226540177,-10.077412349244637,16.40828554342413,36.5148088247944,1735404997815.0
1.7335140096887836,-385.1643522757323,193.68823830157422,1047.2418145516185,0.014136437575515711,-38.77848425104049,14.336356269833182,35.35526330833264,1735404997843.0
0.7689022618258532,253.92018344024405,936.5972902079197,1881.338018371635,0.04698079461246108,-14.738569572839431,1.276772241733263,-3.4221906471436583,1735404997876.0
0.7858655854283727,-1205.5641587713226,-729.6600757774551,1719.390938432805,0.023312725001611037,-5.0441627128258215,-0.824134266021959,33.026932769998034,1735404997906.0
1.701857221121085,95.52743483159583,-616.9299413111827,-1108.2369449201938,0.034574606903081846,38.93717137368621,26.858541352101064,-27.663478364344318,1735404997935.0
1.3609863281712915,-575.8508334262855,-34.0713408772569,637.0539555488492,0.03562724340653526,3.854873027598922,22.323987764663386,29.219693380938693,1735404997965.0
0.7633523005664501,344.75045091994264,38.0990336770842,629.3204492206091,0.01485488300965406,-33.47373259895796,23.942226948142803,-21.716690767814534,1735404997996.0
0.620285743760414,143.73081047508117,-297.1132704814324,964.5941597510591,0.028359080022723287,-7.628015763489863,11.546448132300345,20.970061295868188,1735404998025.0
0.0386020993841969,-144.05378878229817,77.27260355499503,205.6244300557753,0.029828405372480014,-1.1477451635008742,8.269041553322422,35.312866078465724,1735404998053.0
0.4735521346140946,-754.4942824390539,-33.57264830989239,1414.787888202002,0.0026622873903337854,-31.4036810003925,21.282305948937818,36.25985272891713,1735404998085.0
0.817004730501908,-128.28547252179894,-887.4598050381212,906.5151267083191,0.03793967826756167,-26.615448452636453,9.550204628686181,56.15708386717644,1735404998116.0
0.9748544267855741,-141.90585709703652,588.1860164907189,-35.965760376014714,0.010337726308582195,-12.34767923184904,20.206065015658986,19.98843631913841,1735404998145.0
0.8669073549522973,-444.1008127947652,193.55072370528288,-759.561940639237,0.007728592089127486,-3.178838471435332,22.552124916975664,-16.581664139390035,1735404998174.0
-0.17118120036594697,-586.0596341242781,-536.1349671708894,595.2677136426694,0.028142776363212833,-52.787292535255155,11.934589939789094,-36.09406231564266,1735404998205.0
0.7730398865742456,-374.370388462478,171.8851797361778,630.8096815487561,0.019923928989358734,49.97333367396668,1.258197282580248,15.395637424454726,1735404998235.0
0.9268326258882543,407.52591595901583,144.4528337819305,705.1471178639439,0.011429423816572425,-27.4158765430129,16.2549638752489,23.66263055527439,1735404998265.0
1.492900290396845,-1233.9518010884897,85.9185825041927,544.5644027036518,0.019114723003251836,-26.418412372560955,-2.943764517337968,-7.384378626995808,1735404998325.0
2.020369120563966,225.13744711296175,273.06825759466085,1448.7143652868974,0.008771167386879237,-39.71023541801876,5.988017244210759,57.8813225290851,1735404998326.0
1.0696878764714344,528.0716919055733,-321.8243260955234,595.1508092866725,0.04672314365573656,-14.119349920147336,10.908251522577837,82.56129410939428,1735404998354.0
1.4490681054890113,-244.08681624891577,39.943934739986815,76.97205596236643,0.05018721379685538,-52.907473114920556,13.065266163220924,-1.9403299742303481,1735404998384.0
1.577811552605311,308.4562180151763,417.6613827983019,461.8244580241125,0.0409697859283463,28.258693238537674,5.884538738283434,24.49577334210282,1735404998414.0
0.008839679910394471,-261.8041042541622,115.83264961689073,1844.6315286082145,-0.0017137737570230224,-18.50311258709196,17.76144732118005,48.31245640256789,1735404998444.0
0.8734170719531102,-636.6418639675794,1079.5252588719693,977.7541484232125,0.025335425123042547,20.825098295791268,10.797613150159592,59.53408878757289,1735404998475.0
0.24159702948417483,202.71691936297543,-225.73044798026854,585.7678309129456,0.023487215559482025,-33.243790921573044,21.87912524345066,38.12076807564547,1735404998505.0
1.2636504136501039,-737.7704580129744,378.40738477130407,231.42991187787254,0.019967421182534667,10.36214903976954,11.492795738719686,7.732380974565277,1735404998535.0
0.9263886499296268,227.14775250766104,812.3074126986585,1200.7419949117493,0.020821597181234816,-17.31363070112512,-1.9009404701426593,30.848924173601784,1735404998563.0
1.1332363431968118,3.3206955884847957,852.4046648998473,440.9701163104739,-0.01200977789462706,-18.680420782438553,15.5697915421272,35.6689750998756,1735404998596.0
1.9777492591646435,-304.77722016755513,-167.64749622063903,1182.475404824112,0.052477926833177715,-77.24742476714873,25.6405360310794,27.387817813094603,1735404998625.0
0.8720523223271912,-189.9243378668562,-272.60320817742144,1270.7657051619922,0.034608855467327025,5.025818988143999,8.475987546843616,43.71551093983193,1735404998654.0
0.884637769775847,-255.75121311051237,680.1908829381125,1145.3273448575899,-0.010511772172468622,-33.516445232765705,12.295433938264727,-56.37380736103103,1735404998684.0
1.031197672183096,-532.1074653879854,-184.06946386490085,441.07748737081477,0.07190434587112124,17.78761494084028,-6.515769398694138,41.498494793103056,1735404998715.0
0.6676614573224097,582.7346857686431,-466.3942168132454,1434.9797389163848,0.021839728257254238,1.9859065285022044,8.475931172476573,67.59308233772438,1735404998745.0
1.6864663951043217,53.49762493847845,170.62076491835754,1118.8256413087172,0.042923186591051925,43.439790491218865,15.74996202219763,99.23332670741975,1735404998745.0
