Acc_Betrag,Acc_X,Acc_Y,Acc_Z,Ori_Betrag,Ori_X,Ori_Y,Ori_Z,Timestamp
0.2732745841485993,401.54873213133806,1680.6162356050904,612.0771670627015,0.03485761279711708,-41.15749317942371,5.443811160625554,-90.74312761792638,1735404945104.0
1.2181604815850566,547.9158754276111,1341.7494970087382,2175.512070299583,-0.00340873705039451,-62.03982371815018,-10.062772472996707,-43.09180820589986,1735404945134.0
0.8202677111219965,1025.6423959547867,238.92338684912443,303.22377602837264,0.03725617669026424,-14.118638713799626,-12.945642790721251,-39.45502729625252,1735404945163.0
1.0867554168227922,183.20923722755538,580.2258467645377,-711.7925173431082,0.02010894363332235,-24.50168021842851,14.347297339566225,-47.495038909994506,1735404945193.0
2.3006999027487596,488.9655562725409,1667.4781579543653,26.346983378730116,0.057518059548680084,-29.859399027723,-5.696376900138514,-6.746183418809874,1735404945224.0
1.0790184407669374,287.03175711082844,647.1169728629491,739.5626622437168,0.020771252975705777,-35.00540045728596,14.866292859590065,2.6111749588308513,1735404945253.0
1.502513358709642,76.62879952448527,692.4275469444665,164.13932652093348,0.02401801348002823,-60.69927740980273,-2.321629821309203,-94.9576778409982,1735404945283.0
0.7244036545476145,575.4480392093897,1909.7433071414666,197.07477255443598,0.04030803561979471,-31.35183101023499,6.55451973341207,6.9091167721757785,1735404945312.0
0.2228156284876105,-592.237042343495,506.5328296171459,-405.19012219252716,0.04261127580287133,-38.58559638382007,3.0385996123984196,-26.02321988033735,1735404945344.0
0.42494728754380107,36.73760975731108,1596.875091288175,-676.4258879225393,0.029345443105299678,-34.01171042286833,-0.15405008323261682,3.7896278458153176,1735404945373.0
0.7130992932327184,259.93114394222977,918.1766715330248,-45.387139804420684,0.03045877164348394,-25.23547547624597,1.1107875277572532,-48.995754009527154,1735404945403.0
1.5195495084247481,-50.55830430396608,642.4154703307953,-852.2919647651662,0.004491006604046305,-51.522176057503,-0.31010700399101987,2.3635834729344225,1735404945433.0
1.3024244010697514,549.6397537543,1245.6139001463375,-473.57124278121785,0.057836011830861934,-35.82563221319931,-3.866956983369346,-29.183472690182406,1735404945463.0
1.0716867625686946,-539.6645031707527,668.2853242349944,-778.6678770008731,0.07085422292875135,-82.4436845262782,-2.8701032476849218,-85.08227420494399,1735404945493.0
0.9069187023521216,846.6529173587339,979.8238498282561,653.8507802810159,0.045020572209309134,-33.45798034806803,-4.161808608012185,51.788557277119004,1735404945525.0
1.0793821624325213,86.84144876769807,-469.1497628333466,703.7634321332373,0.03340403990996633,-37.8607530323866,5.737844275301395,48.955879053186976,1735404945553.0
-0.10576360533657636,-149.41707565716158,730.6253330494162,-238.47583102183472,0.0481200697855179,-79.19350870869381,-4.386363611656888,41.75842581800936,1735404945583.0
0.9517368144592013,-276.2141739840457,320.594689100672,-223.06130123800523,0.056178299428241915,65.97185891393505,-25.519945983552294,-60.35241581021785,1735404945613.0
0.03764088230034168,-251.23645535236466,433.1060578946915,-141.27577781869346,0.016637249164401575,-20.984715187455155,-13.083077503159839,-16.373716593109037,1735404945644.0
1.6140158564711262,-359.30105399912986,954.8529885668595,863.3357114496388,0.007544405070928212,-8.364805854873733,-1.1814460224216612,24.186741506370122,1735404945673.0
-0.5460449275796714,-26.090568074025448,325.09469495744827,718.7709892534566,0.018036255452039344,-27.8203231374455,-15.863915139262186,50.87787770045675,1735404945703.0
-0.10272477687483474,-615.6160824394163,810.4020264740415,-171.7049277618988,0.03645159778906354,29.71673353168605,-8.549941276161213,16.056906339511073,1735404945733.0
-0.275992077815776,-298.7403237820856,508.37098443338016,1519.80092138506,0.03873923190276853,24.304436610625572,3.7115434887934686,-69.31366710428847,1735404945763.0
-0.17602683831391291,-731.4759538429354,96.69135169852268,414.573058011387,0.014950315466583736,30.16885559674825,-20.51136717542476,14.31564066969013,1735404945793.0
1.2238569812034537,547.9235094722793,-732.4800030637992,-737.776739588434,0.008655730570182936,-11.4408591138073,-12.407091406346666,-13.870574897184444,1735404945822.0
-0.9455504345039419,668.9419222933342,-565.7485167807404,272.02841913845896,0.03575615041771166,7.840562847249279,-9.85003475425003,-16.898385453809976,1735404945853.0
0.22681806378164895,257.6789848871064,-184.46039451488826,100.64746140754761,0.05022163374851368,-21.42607164209467,-12.84034959244321,24.649532686966424,1735404945883.0
0.42611446941310427,805.6594636447361,809.1087421266673,-667.8442746920418,0.009033403220717405,-6.232554795614587,-8.31931713412743,1.5920654505129193,1735404945913.0
-0.27151132224886937,-498.900005622402,962.5621271634886,517.4286903389217,0.02591875101425694,-68.87363450995326,3.0018180858397883,44.95222845848827,1735404945943.0
0.14548769713435475,808.4550110084236,-63.64290436703198,-570.4433109994684,0.025817396861672358,9.828511376917819,-11.081985192781543,43.20011003491806,1735404945973.0
-0.5666160610336651,422.6625298391127,101.98359279425529,-37.72532740075913,0.05771894846104912,-51.47771136217421,-18.542552043717553,42.551381887324254,1735404946003.0
0.9055513478445553,292.13694534507755,-322.67536768594397,1051.483831283184,0.04010753013044305,-27.073772862714414,-11.248832820283017,-70.42270222311147,1735404946033.0
0.6760781650155608,-506.4221268392554,-182.647121040687,841.60680922273,0.01647388248567132,-62.01011431032363,0.42792526996448643,-1.073080922335727,1735404946063.0
0.449409839450906,-859.8932707040412,-566.4413383433214,404.273535788859,0.02290473580502565,27.268497234235763,15.368877013117197,-93.37814994146022,1735404946094.0
1.5442761003015009,-560.492396437436,-47.72767802109877,-87.76991658516417,0.04264471923748632,23.419949870487212,-10.672743499258479,-6.243639414450902,1735404946124.0
1.2119697372527574,-414.26277583081776,-114.45378564531717,1032.7006933370346,0.054999945399888,-7.636920672248096,-10.144603279989425,51.03077054542505,1735404946154.0
0.9880241238827067,-1142.36490376511,193.68357298837697,-76.47563975764615,0.024779849418968825,-38.035483591105546,-4.761992172578815,-63.7160965594785,1735404946183.0
0.8326317825900289,20.121726646343745,728.6585217348654,-884.2063342193042,0.04402207225309746,44.99716602738327,13.162868629949177,-83.20050393291409,1735404946213.0
0.9687361743569314,-1450.84635403067,97.7587617700257,-689.7255312071511,0.042451482228606396,18.841436403394336,-21.022696155392712,-76.92826673213932,1735404946274.0
1.080635748568985,-2082.441477778361,-375.01631494026583,764.3668497395606,0.029070333251976596,52.27206762787196,-7.700037529009252,-21.413669273233918,1735404946274.0
1.5222259252322183,-670.6265634081418,-508.63055219683747,-1217.4579645821887,0.05672900491139041,8.753272182684212,-17.9751143355609,-17.92053785228285,1735404946303.0
1.813815832446792,-463.29819868564766,-340.7372985863219,-335.84044633390107,0.031201150036225134,36.413814384864665,12.172590399873716,-72.22945957485994,1735404946333.0
0.6587288350850977,-419.67807916681534,-110.59459486283109,-906.9741746997985,0.05059769278956638,31.539048167766758,-0.914702810229306,-28.586283892116768,1735404946363.0
1.671959176010895,-1129.8484229021185,-105.86132002290628,-349.9503709247243,0.02424477066092889,67.43366619987303,-7.5710015423129615,-55.53560398326901,1735404946393.0
1.8587776083387344,-454.7372531468892,646.7316905047276,432.69696538857136,0.06620384531555398,-6.018174186851116,-8.97190903042453,-72.93456552266132,1735404946423.0
0.726659443165491,-720.1812468133623,35.32797941951871,-797.8786384495559,0.05275523240555858,-4.709969964884898,-3.771159742919138,-39.43045160307381,1735404946453.0
1.4670081011599971,-558.281018304031,-699.5008228667515,-119.10894198991865,0.028848237000391498,91.25159088914933,-10.60257026721249,-13.73087301530796,1735404946483.0
1.2059261981909999,-1273.8924680304242,-34.94114444010131,-112.06228141215205,0.04967140055991716,11.424805401080473,-5.327792299826362,-2.667459274159466,1735404946513.0
0.042943604396817436,-694.3483646426773,889.9659617074711,-424.6102654374207,0.07193719104582186,8.197178597175704,-20.054876970521157,-16.03348955235192,1735404946543.0
1.0814041006540742,-592.2482410223188,304.1200597360436,230.45468070270186,0.0354546569890419,15.11078505067512,-12.813328432308225,-19.508639901500093,1735404946574.0
0.620951428442232,-789.6054068976458,1114.7998241088465,77.4774738926717,0.040269839253033,53.94320777606398,-21.368437978181984,-6.232946109187462,1735404946603.0
0.35929285816029033,-1397.8237093718524,261.54214663378247,-1136.835958906834,0.048783515054007257,0.8356875011604643,-23.594523731523957,-35.289904439229964,1735404946633.0
1.2204389445315655,-837.0077721017731,-567.282764600344,361.64656236538235,0.05696202110507375,36.82506772088154,-13.274322730762998,-29.106333699696066,1735404946663.0
1.3066168158891427,208.22056195771688,-452.20009845264497,-1933.9109043851925,0.03510846269280376,-35.51577839536735,-16.595608702155182,-23.68823618763493,1735404946693.0
0.9330947320264257,-1531.2143190077436,156.66718431181647,175.35860882375266,0.03709192278038069,49.57360739908127,-16.139472540064272,-27.185460798415075,1735404946723.0
0.2541580781088997,-1184.5406243099603,-211.7987867175113,548.4629682248634,0.04452059473567123,2.288958716451347,-23.441981544519816,-4.448634331745749,1735404946753.0
-0.03927267750293151,-1285.8809147593943,377.66624131313085,617.3825419118791,0.044734201243972344,5.661997202549593,-27.270477061034075,50.9687214478234,1735404946783.0
0.7866746474302216,-224.0625530999448,158.86828219338832,607.2802965363736,0.05775063120380487,55.89728230468046,-12.279715543965496,16.994024115926692,1735404946813.0
0.9377915347258128,-1850.401932364979,490.14888727212855,-223.87325624684922,0.041559278346422056,1.4795455783796214,-15.448246468915311,80.79481265596071,1735404946843.0
1.0965220408880783,-1000.257808193435,1163.0007892532499,441.9512534732555,0.04236607749823889,-5.857458311473767,-12.733307419558887,42.653145329464344,1735404946873.0
1.6472110592889146,-616.8914965208196,238.6299254367122,912.7527765436641,0.03175786571696583,35.090583508789216,-16.239724297076364,64.56251124797573,1735404946903.0
0.8348629339528535,-1233.68631718898,92.6700110261205,-267.64185527886104,0.07045853704126623,27.539095599109984,-20.255614647076527,56.185210119296336,1735404946933.0
1.2663415410093202,-540.3835099601998,144.58376166030718,722.9674812625025,0.03810584526623338,34.81210108829625,-31.870628626143834,-88.70317119245476,1735404946963.0
1.2341772130809443,-985.7814202490351,-542.5296185181022,-353.766509822994,0.05403895120029902,-7.348412862596543,-14.874672135794704,-43.161036439408356,1735404946992.0
1.106558226947127,-798.7538265087197,-529.0487652775704,-618.6950282311293,0.059024123006744526,-14.93953167359573,-21.329208698583024,-32.876834759462604,1735404947024.0
1.2441587804367484,-1504.1976967487985,-140.60763173567415,-1402.8288836405425,0.01959537789424819,29.172069201945256,-12.151846436727805,-19.799473875826052,1735404947053.0
0.8969919788671546,-646.527182454457,-141.67534370850058,-800.9020001543607,0.027874710784265722,-19.207604409591205,-9.693728474097295,-3.9977151785005205,1735404947083.0
0.06454859223764275,-815.8473658396075,1015.3432987228099,-316.0796222108113,0.06033404319867555,32.40782286604714,-12.214256619793728,-81.45490005712324,1735404947115.0
1.981404375854805,-1243.1594776863847,120.9929697982676,-793.5898900983102,0.027322250068003127,-14.726801355409403,-1.543886604725797,14.224828396962408,1735404947144.0
0.33247551052867275,-899.2096629315234,456.51306458030297,600.1408612892187,0.027684827288505243,13.030208306991872,-9.946218586719345,-35.659142203245715,1735404947144.0
