Acc_Betrag,Acc_X,Acc_Y,Acc_Z,Ori_Betrag,Ori_X,Ori_Y,Ori_Z,Timestamp
1.6022525341445242,639.3176668511911,-1475.0677760940812,630.1106216232859,0.04967538288102791,24.116530745345777,-12.261685991443908,-46.75000838315103,1735409975914.0
1.4411632875254183,-566.064422867445,-1436.3709350296672,1215.5763159976527,0.030595033307425586,19.65770572942713,-2.628764055149626,5.508609759998446,1735409975945.0
0.6247626092897547,-870.5309884206855,-1194.9900193354028,726.4595854247297,0.014496651679659203,-16.066994429100003,5.067829505074762,8.929553654773994,1735409975975.0
0.6939874773795154,-119.81809182796772,-1496.1119666539776,221.99374570228633,0.010984654439813148,-3.138173395613199,3.0327419288539814,36.30448011296724,1735409976005.0
0.4100744668314884,-798.558711724022,-558.0442771241378,733.346341469638,0.008785305175870815,18.371922921299824,6.593065844002753,22.436686214439177,1735409976034.0
0.918650127296069,41.090703911169896,-1328.4730201520658,-100.10884498568856,0.02900905497384488,29.924930686177543,-8.594717173020301,-47.806705150871096,1735409976065.0
1.2190838887011994,-970.8378995246896,-544.6015664974032,233.42235781616122,0.032165826193023474,-31.06763456293777,-10.13531835898484,12.71958806627163,1735409976095.0
0.8390809392225357,-1307.3941111444733,-1215.2825379035144,1156.8841233892306,0.05065042982867951,-24.601844592353544,-9.25221979840993,-39.719610529492215,1735409976125.0
0.7030376346038208,-349.5232957863545,-804.0874764939434,448.5041653031434,0.0428594553928834,29.51723273488815,-0.6437910496133741,8.914023298187871,1735409976155.0
1.1856814891573524,-952.1784782381602,-2186.3252779000727,755.765883331743,0.07319096368163211,-68.4293050702719,-10.66269213653344,-15.996494402297625,1735409976184.0
1.5507029134855714,-310.72507356733297,-851.6800742022648,-436.46001224311533,0.07195848014171649,58.38033484572196,17.709365182804177,-56.02683748117468,1735409976215.0
0.8726934600844871,-1682.7471259688473,-629.5553154053523,-1238.3941368498836,0.0401224528561443,17.611431152397518,-6.085460897095128,48.42705311796421,1735409976245.0
2.030788259016103,-1576.8164067014818,-1204.2212734874424,19.443390614298664,0.054902057536377544,-19.710086419764878,1.653359941366765,29.832523536630397,1735409976276.0
1.4807903069223407,-859.8354504782797,445.3879485052205,818.6900918066337,0.06242974505160104,-10.090047422928286,13.308294120948702,29.73183494390855,1735409976305.0
-0.719266239187132,31.78489979191442,29.050712446806404,-991.4634469164098,0.027635867997529942,50.10942142504129,5.369897381596449,42.069611126832626,1735409976335.0
0.17109422736496463,715.7687359631316,-239.0785543477727,-543.9443319045594,0.032281098084725436,48.76868589134004,14.30286916860688,10.054729863727623,1735409976365.0
0.16482658714555168,-121.26450961382278,417.9046231882679,1171.1615355139559,0.05048506594060819,13.54911617700819,10.82994993338594,-48.05838794080924,1735409976395.0
0.5267846771222026,10.140696514460785,-920.7580172940703,-775.3744650827668,0.039809328777328463,55.50050036015596,24.461436982223994,27.10942915548735,1735409976425.0
0.41468237275837405,-16.04065719965581,755.416165962206,-2038.7657738181285,0.02947721539967233,-35.77551443074965,9.744942110626752,-61.6985258992385,1735409976456.0
0.1991660914058952,347.3271359698283,367.65070776940456,42.55380484042877,0.04815228704796604,45.34259289186366,16.268740662065497,-43.116210926802616,1735409976485.0
3.2639481187831527,1512.902892364103,1750.95986420288,1355.740961641101,0.03528943833719975,-1.2480436265308832,12.738369905058718,55.85680073296355,1735409976515.0
3.5719795622423045,1369.979707632531,2239.997414140251,1122.3859716418965,0.029067781255355585,0.8262148444225907,9.758035113090735,-36.841254029214355,1735409976544.0
2.3387685708365735,1704.8058621914224,2283.4972907988167,1452.0608333560785,0.01956247092128753,4.237882621195739,0.4956542386529632,12.785244866239246,1735409976576.0
3.4934345295047695,1966.6837133769825,2481.5321695851403,960.161667083237,0.028848667661155944,46.19765914001118,-4.528800655580554,86.11195501106158,1735409976605.0
3.621668330633489,-2953.913728432922,-959.0877514663352,2704.877891871655,0.08407665767137419,46.25026860628174,8.648809100439149,15.793381130878332,1735409976635.0
3.8612364714694016,-1922.7430250834018,-2186.1593045911927,1811.1584212457633,0.04597362292707265,24.186788698678853,14.194448011502026,30.524236063638057,1735409976665.0
2.5915095088284907,-1640.5967111923878,-1353.0532485088293,2839.4221776678205,0.03774421669388042,75.59477508910143,9.949026878751619,-66.97467471470013,1735409976695.0
0.24174611573685295,-648.2769982021164,493.83528914654744,137.25621428185647,0.04201006889684539,17.93012241180783,-7.088678912099704,-2.3872242258596827,1735409976725.0
0.1035731573838726,1034.3882074443043,242.3865215723277,556.845162806158,0.031962692253402376,47.99271777438877,8.893675015313825,1.1052166315772416,1735409976754.0
-0.1223736913148345,756.519742128458,-325.4821224100152,134.3186500585028,0.04675133401240754,22.568089318046887,18.644927558128582,34.93553439236056,1735409976785.0
0.6354929121027568,-270.12364361547424,430.78054071209453,2130.5335768144505,0.04065874702112338,-44.3564392769834,8.297185829293442,-90.17833982071002,1735409976815.0
0.843193273567568,-719.0543155451987,-1275.5038441305032,1033.615189316599,0.03576741292124093,33.64790722661698,-21.24875696797853,-16.1320085873072,1735409976845.0
1.145893798022048,-554.0062293060906,154.33636550655484,938.0359324006838,0.02164463979626436,33.86022633904406,-21.358426310063862,28.178458671563394,1735409976876.0
1.1583032974770306,-720.6860487330873,-440.5016642229208,1337.2673778110386,0.027663399172581773,44.878159275131495,13.653079107135845,7.274543323354845,1735409976905.0
1.0652197319888426,198.72811631175279,-429.99099369717044,2872.596745595957,0.030265297587452007,-19.75393393291339,3.014346035143006,32.99215292633616,1735409976935.0
1.6520499489539107,-106.18615929852724,371.9282421831475,84.0626101503376,0.03391480871812293,-42.08011454468223,7.948085229955173,94.26973475063551,1735409976965.0
0.9214309654815119,-572.1044720669236,-10.186921874844984,1231.0462829113842,0.06353227555415529,18.532853917033954,3.1906495119210017,-43.900606202447655,1735409976995.0
0.6696352855969798,-838.8006266276893,-551.8327612628343,308.3346269664165,0.008756990619198428,30.829482509053516,-10.146713641294491,-6.8647515929433425,1735409977025.0
0.4689222281922366,-692.3654631605638,123.82752844486487,699.3057579748529,0.06314333714059728,-32.439205872313316,10.243295164138917,-12.261174519257205,1735409977055.0
1.6938113050519552,-234.48001205863375,-324.54859899381285,251.5755392306645,0.004486265999403073,-2.311584489608836,-5.62702591960564,18.461340157598983,1735409977085.0
1.2404130758285503,-141.14564728849422,-1196.5160436627489,562.2437490967361,0.028577022942359462,-5.7326868309148615,-11.342722073011142,-10.347757657656196,1735409977115.0
1.4671284223920364,745.9236033028521,292.4085809293937,927.1259430353497,-0.01833020699535036,24.79282423055978,-2.887455931743393,-41.16221789225348,1735409977146.0
-0.2767539716464963,-411.5152849814697,-157.7522167791035,1710.8762837895451,0.013189207575824426,34.14576035724199,-13.994464929885636,2.1422879896236395,1735409977175.0
0.53786852190956,513.3355917607347,-1207.9797824614946,508.0275855130554,-0.011134232197226302,33.39110029056804,-19.67288530704261,-25.436668771158182,1735409977205.0
0.7959743893459068,-294.6663118503575,3.4186560951065985,-203.5053886187943,0.03380904817157659,-5.948094266534493,-7.76831997418374,13.993746897864984,1735409977235.0
1.5607801852729342,-68.30644269863627,-21.651914842809106,1470.1392017553558,0.03146235444420946,22.705498250278353,-3.650142344019681,27.116356098301537,1735409977264.0
0.34802386543461905,164.68657317006966,1089.119455659544,423.2220481945549,0.01980870483691765,-22.69675379829441,-1.1343828014575728,7.489843572140405,1735409977295.0
1.9808166353095848,-589.1845454235395,-286.97902695482804,300.17719139711437,0.026319588172928683,-3.007912835565765,-0.5846982081422274,-25.18045503539249,1735409977325.0
1.1028017877210385,-206.67642756693658,-329.7465750383616,-117.48127538330618,0.011963708768479353,-25.09101184948044,9.848617930708972,8.470512437246636,1735409977355.0
1.6741175045904124,-309.1480506416359,325.90272681562385,1421.9550511954712,0.003801863620495982,25.481262201710344,-18.649417456816572,47.18079461750396,1735409977385.0
1.6993100539132713,-598.2437739550164,-617.6031325404235,201.1413823846267,0.020649622231130663,33.70876130463079,-4.078911879368095,15.76306645635134,1735409977415.0
0.3132263254147529,411.71750268067524,-1045.062843740839,1142.1189641396736,0.021140693559894057,30.97259512250399,1.1938704546930419,30.06246298448075,1735409977444.0
0.13013184040688408,110.67486564914023,-649.2749264368434,1392.5662539924915,-0.0036552010133463677,-6.459943285873933,-9.003607822525513,43.35258471107736,1735409977475.0
0.9927867448321811,30.302148869780154,-121.01765613997279,1525.9669248359548,0.007803677707442041,38.64867662574753,-4.305221039180727,6.9010735619706045,1735409977505.0
0.7718730875704921,187.21186371191482,-863.6937208945233,1099.4959919794146,-0.014729147019337311,13.258713467915658,-9.404876016350261,25.813031311847123,1735409977535.0
1.3537836940444237,-619.4365560754123,574.8573218098298,1298.9636323024004,0.009785323173903897,-1.2699615554748522,9.782676112647517,-4.831044607134814,1735409977565.0
1.8033353298079629,-594.6761464738627,-2.9188690988685266,1233.663768871143,0.04567734042909242,-17.00967130782827,0.8280086300383482,-10.344033060530629,1735409977594.0
1.0489994708346375,-773.5345426199185,6.21090121909657,1154.3729852797228,-0.03306507240276391,-17.258083751637656,-8.730679014068084,22.571095759095428,1735409977625.0
1.0449666683159284,-244.35398499793084,1257.265842841029,917.2056082070989,-0.005896027177503404,16.065155848931298,-7.92164721551139,-7.390075733042027,1735409977655.0
1.2351940610315395,-58.40319475384423,-416.98557077957093,1088.6367396468652,-0.0036072447685560824,16.953733176045592,-4.620035856000204,48.61277038154145,1735409977685.0
1.4619897178301742,529.2232953063996,-1154.3117648701405,684.2959820892202,0.02901901776186331,-22.536658412081692,7.910232182655217,-9.540279463888176,1735409977715.0
0.42743799464722765,-866.4445817746104,-783.009591276756,-1055.654298921612,-0.01641998517670548,8.794723141384361,-2.8318074007861163,-4.518456855273617,1735409977745.0
0.7791201965730914,-659.3461719986674,-335.9992236214596,1031.6539891613818,-0.00180494451083376,6.989388497324745,5.794569570339177,-4.088054673537545,1735409977774.0
0.9617172892535663,312.42583829660526,-263.1735782241429,1390.392014192981,0.02337437826011802,-8.167823468336906,5.674809359267325,-14.693570469032606,1735409977805.0
0.5898236619716952,112.9562821691404,950.0449031679686,1974.929504126806,0.02714362607089018,-14.195748693215972,-9.198554645305821,44.90649019584753,1735409977835.0
0.7931546140993968,-37.27019548866471,-665.9287822083909,1019.4359896673782,0.0028166045565330214,-28.097506961834107,-10.794544525876848,3.6880863278079037,1735409977868.0
-0.17112342369511535,-359.69754077893674,-452.17598243246573,1688.2551496104943,0.025127439676714665,37.11255512690937,4.480283442308015,18.42158929474823,1735409977896.0
0.6355525410497286,-247.00013116956995,159.974006465216,689.2694930356822,0.01566683233984666,-35.533359433504664,-0.7778864064540771,-35.69090796904267,1735409977954.0
1.2829944189631703,573.4887759858663,-666.8219867298299,1000.4145785180607,-0.002625598501661986,-38.536678010391476,-9.35122886503213,-17.634197621143905,1735409977956.0
0.5003497583157849,712.2616830182201,182.53684028593045,984.53197128649,0.019535572590198964,-36.956369732629184,-11.007947596012986,-14.029210660913755,1735409977956.0
