Acc_Betrag,Acc_X,Acc_Y,Acc_Z,Ori_Betrag,Ori_X,Ori_Y,Ori_Z,Timestamp
1.513794526249264,271.089161549487,-517.9742663923815,-1796.8136461139293,0.004450557450920368,-23.646592792339483,11.946074563734783,-6.424512677288372,1735404814507.0
0.45111256196536853,866.9782920196114,-260.25652069276555,1032.0580717254031,0.01422085835545435,10.617635279092907,17.304442034327508,-62.0386354656464,1735404814537.0
0.7214225126700331,-433.61874338384456,-108.89355501723463,1827.929244717946,0.006767894265396243,53.16138079097361,18.882348408742665,-6.556593128069702,1735404814568.0
0.3640084359852641,-82.6132977360629,1417.0983347624822,1647.1017720815862,0.02984744694322365,4.72696899720268,7.418178996868578,-31.544786654180896,1735404814597.0
0.2913508734153193,2.782160041680754,-481.22561922971613,1087.9911165574063,0.008644633892655892,-25.092164714915423,9.235437304684204,10.770680800316761,1735404814627.0
0.7839072404413026,107.86861642455102,-198.2881933833116,1336.1706170260043,0.0001824131757739867,-15.025523376914556,21.712875739209707,17.04908547608141,1735404814657.0
1.197551077978302,60.510379208852385,181.6777346262188,1369.8590443873888,-0.017740543153962993,-3.6574283062903863,7.639802661312138,-66.89431360301259,1735404814687.0
0.30132500332982914,267.5535289768402,502.33791020244064,1800.099315879495,0.011284045111645817,13.672978748493964,22.22268522983331,20.14157836434279,1735404814717.0
0.9418617709044019,20.729338545180326,-862.7973979846753,-411.89774153638814,0.02546152753757254,-15.0351400106287,5.361946837184169,-29.458625299856635,1735404814747.0
1.1112408878698734,-91.41667094439553,-290.3485100943546,-78.60897656828286,-5.12132286504402e-05,-21.965598900918927,5.385570140365542,12.218882689668028,1735404814777.0
0.9213478068630093,-188.23313743722102,-173.36310236849843,1099.4338558658587,0.0097966823648424,-35.86960084463663,25.086712679622398,-5.9283812234438695,1735404814807.0
0.6672515587117835,246.415647813575,182.3459147263814,598.9147045719646,0.01857003216530864,-2.365462015240337,16.06415999673423,7.1247859371045426,1735404814837.0
2.2145511637865427,98.09062282380339,336.170439335236,1124.6558138617004,0.009339349382291603,-12.862848833941552,3.4004048957702873,33.43173614884479,1735404814867.0
1.3052778444427853,-701.1416499475135,187.33248140730666,83.31128779830942,0.025140967201251342,46.964716112748604,0.5308925731397949,-2.7703415211423117,1735404814897.0
1.2916644757633022,-754.0163034304665,-600.9622064904565,-644.3205791672669,0.032081379752127694,26.8706949766834,18.717049419555394,-1.4540096378466025,1735404814927.0
-0.0946035168974304,-495.0535840272936,-827.4854344108396,799.5271214721853,-0.018789601671816196,6.547727126274209,-6.456606771588824,-42.133092728460014,1735404814956.0
0.9142100338049026,885.7570702825187,-923.7993593208992,381.26060499624657,0.013575906040556293,4.11423891095909,12.312550490128576,-48.253098259114296,1735404814987.0
1.267723493441445,506.92679098922315,805.6186653732805,1854.2890846339749,0.023127781457577642,18.508018247678805,16.211187035834474,16.26427777218358,1735404815017.0
2.2932102537432666,247.48247274216146,-27.60079759573976,1300.9651456364336,0.026647105356040476,55.305680354262904,27.08485423788315,-43.91316274934507,1735404815047.0
2.997909223053729,-10.822099922369947,-47.26005577972695,2413.1448378443797,0.058906268649850296,-16.69134491042344,6.843587151771937,-18.45308696994949,1735404815077.0
0.2539434967005725,-499.4367702517795,-358.42090525821305,-455.9316204289068,0.08018873087096051,-100.30712698795446,18.05747346810154,-62.033904808341944,1735404815107.0
-0.6722658270333768,-623.5075632058316,893.5752014025579,1044.487472286035,0.06164017602482834,50.082896357307256,-16.882333887430153,-9.158566605972272,1735404815137.0
0.7229906035250304,-945.8057678675269,544.4944648108218,-168.93018565945104,0.01422761315539145,21.849434747029512,-6.503554975241654,-26.09013153015901,1735404815167.0
0.6054847956220379,-54.13710289768193,337.091750738162,-279.8264776263934,0.02740905028452205,23.926864978744195,4.868173508086603,-24.06642283439295,1735404815198.0
-0.33462220420041355,-424.69842261190547,497.6262577851167,-2090.1642326825377,0.046414897531848534,95.87791792496449,16.93054755649625,20.058864613611558,1735404815227.0
0.29993570732488667,-437.05965154237833,-132.77228548560902,-379.68493652366004,0.06778845696816348,7.040837272652318,-1.6445127455836088,-58.79776157176341,1735404815257.0
-0.490466471007044,176.4143991393977,-73.02786676952334,68.68828016405666,0.03406487412371941,-8.510540532740364,11.818124463072335,24.512035455736207,1735404815287.0
0.7691658893275306,644.7512278309293,-533.5942467389825,-607.0014420146266,0.029639868318681713,50.74135583988634,17.784303526821727,31.469378142850545,1735404815317.0
0.6292345446415885,-184.54043818352713,-18.311991896861926,254.36857579510752,0.009734836252763432,68.94789702329226,9.329111621901498,88.58061256725443,1735404815347.0
0.9496929885639909,405.14532018925786,-295.50346096475045,-469.56422555687027,0.053282091573735965,42.74222965599165,15.134547485281132,2.0217060967352616,1735404815377.0
2.197126836294741,-115.14134671712259,-2020.4693928892727,-293.27731038851687,0.04582533027508103,60.78137527689835,11.402513490708658,-36.676278406965196,1735404815407.0
2.2593954490572767,504.99848334700454,-1827.9749636724237,685.4030356515808,0.04402575416091292,-4.921701414896312,3.409323236401279,-29.059849487373334,1735404815437.0
1.8915290036890786,389.64660479100394,-1838.748021247348,580.8274033844009,0.027635523723300012,-31.42709930780158,18.41617072211838,57.20069760457493,1735404815466.0
3.1617094355641324,662.0158103742256,-2172.534307952476,591.5438187268587,0.0527053060024744,-6.528854411165803,2.167366822854386,-36.45582557248954,1735404815498.0
1.6406637780390279,-276.4592363995111,569.5912694050646,1169.5044230105018,0.019687200081116914,25.675668811351905,19.58669708011767,-51.11850021413064,1735404815527.0
0.5662817193172882,175.34719148048373,213.62689245457034,645.0446257541294,0.07667674016765616,-54.45637795440628,-5.298459161958392,-44.51375797784724,1735404815558.0
0.711692898714146,-682.654671286872,964.0584322178216,508.451084133758,0.059932513046610014,-74.4126284788019,9.8400246738953,12.140707353158962,1735404815588.0
0.6833048516874598,-95.20303209344974,759.4171117767191,-57.67177995821224,0.042469960825798625,-16.892616227857328,15.499345662389931,-21.855618220999887,1735404815617.0
1.1799773265074291,195.35610925419897,808.5101998627842,900.4120476309059,0.031141737076442345,-56.232071623040156,-9.268132162543024,-9.762551095427288,1735404815647.0
0.15449348976069288,75.20149576730137,-455.4505034840263,-634.810293839425,0.059376871484631354,-33.021277561751106,17.82593311365557,-68.22412039624822,1735404815677.0
2.4542099434634865,1124.6000171719427,1186.7432270206073,-669.8055974764886,0.055818182249556605,-35.17695274847881,-5.831796769973972,26.931085610545804,1735404815707.0
1.4324234959544124,170.82918826285493,1031.3459685339576,-1177.8865026115013,0.06937430633928636,-24.950843388767716,-31.62486190141584,50.180447890052925,1735404815737.0
1.71533789712363,336.234538817166,1660.4754717645883,-1220.2232416908166,0.016407468159451037,0.879946635065199,-7.654757700387377,-57.40777545838134,1735404815767.0
1.2493304754894738,977.1519878937074,842.4117496465208,-93.05574696429454,0.01837471341520891,-36.93801084554235,-5.929325976017085,-49.04731708927785,1735404815797.0
1.3543428164547981,-675.5295852889283,1179.1071866017462,-265.33802136098365,0.025911630231406888,-5.566823128554423,13.412762539839498,-30.81995642365384,1735404815827.0
1.5613284693188207,638.3191551784942,896.9242060656699,-160.255173258209,0.015168135454931456,-38.25028020493382,14.847825968621834,-53.748072751853925,1735404815857.0
1.4869234033497745,706.8464387604643,1422.7742542439214,253.53467340584757,0.047879082573990164,-19.305135397697793,5.377283069205633,9.312327542942135,1735404815887.0
0.7506389069053409,-304.67648671834985,564.8259907696229,1266.8446696379815,0.05413643495048382,2.5853623816678315,21.556738983717537,-68.67811658603861,1735404815917.0
0.8960033124074447,44.33582378741882,887.1227338281715,3.6315242026669807,0.05075695262805227,-49.04178670685454,5.996137071488543,-29.025957053010437,1735404815947.0
0.717266854094816,-676.3098148389146,447.99129963818535,1216.0846460390494,0.05186572460852611,-43.720384432116035,4.3608255701811025,-28.465292686548263,1735404815976.0
1.984845202385805,861.044604135656,532.5518748227962,-795.7468866943204,0.015205174956500707,25.310361012774326,13.586417888582714,-58.17771965872915,1735404816007.0
0.7954243732588664,613.1140427165737,1107.6827520270394,-850.4428401536702,0.058199261766153254,-32.89025843823936,29.062102219331486,-65.83933632390448,1735404816037.0
2.247043128117613,897.7970032027039,1554.070722893548,1203.2780576015825,0.051168370975539335,-17.238535941615158,17.861297694682925,-61.37710392061971,1735404816067.0
1.304063942446997,-176.91316313891906,947.7823460422445,-718.9911789750063,0.052167837901053296,-89.9424045176793,18.03280569215633,14.42609265237725,1735404816097.0
1.1379898779552642,-337.88438447855754,873.3684768296805,433.1664810774762,0.06949919283851896,-32.32964014102699,5.783184710245752,60.13687919220829,1735404816127.0
0.8567631823436991,204.3969341317631,1230.207610092984,740.7516347576222,0.06960427494500583,-45.60904646439295,14.794632164033882,66.6805733609027,1735404816157.0
1.6609568676922026,267.6314175596154,825.7495691747928,-284.9209370402156,0.052340316538592266,-23.08705254321773,-8.61015295871453,10.071736511677045,1735404816185.0
1.417063725237627,806.9208522232993,1827.8237605935883,829.6678511950603,0.04197791112928733,-8.829416364242832,1.3150210830401683,68.83235847212589,1735404816217.0
1.1560098616909924,-678.0163069794858,-406.6543361490699,-472.7870616452359,0.04976384407542505,-42.03356427773298,15.699340493875207,86.14751717494404,1735404816247.0
0.8920427152409536,-264.11262295461034,659.1553170121019,82.76102759188778,0.027407303130793342,-26.878886624225757,14.368441854951946,5.636831187843946,1735404816277.0
0.5614262831523827,1265.1587396478142,262.18180178229954,-37.54419602094383,0.003909459045327947,-54.268514908513175,15.730019591445895,60.494626084302276,1735404816307.0
1.5988649894925668,551.8390012129626,1449.7787706413126,-878.7968776615213,0.061349398307924435,-34.45530653830471,-2.853899529387281,50.3207119747227,1735404816337.0
1.7895291813499878,-469.97476405227826,455.23636863916533,-124.95866121627907,0.0026435098045318114,-19.57634984850835,10.98692810051898,21.618080507411126,1735404816368.0
0.9624029430672061,137.12663731445167,1372.4549998688858,733.2131994451198,0.04816184932016379,-56.72761114412455,0.7356628038442503,41.38725456840131,1735404816397.0
0.35913122139693643,-103.59122815989792,1232.8041920472397,-1343.7594380597368,0.045801431692873984,-32.96988007221287,5.917700161265446,56.02899870631167,1735404816427.0
0.5216821068924861,422.41865162062305,602.025010738383,-199.55657872844841,0.05653047052637067,-40.59271255594634,3.555005705885236,35.62890090834612,1735404816457.0
0.8316969974656692,-32.30698257890455,1551.078550228786,-1052.6537751880405,0.018318698605570814,-99.82120974012028,0.5441733565936575,46.57336967792629,1735404816486.0
1.222482630054007,-68.50159566112927,769.3722906392029,-349.15403942566286,0.0192614066851457,-44.882671990949916,3.775515729680899,3.8916265281494002,1735404816516.0
0.9657139469825561,486.00315881223185,1203.8172377495634,-323.77473866690485,0.029538132108908436,-55.056588247572364,10.139359848987166,24.171931066178075,1735404816546.0
1.2523693319120701,474.6670947898142,1083.1668073418593,338.2082732365172,0.04911946344003608,-74.1203706835673,-23.08413216938543,58.728058510993435,1735404816546.0
