Acc_Betrag,Acc_X,Acc_Y,Acc_Z,Ori_Betrag,Ori_X,Ori_Y,Ori_Z,Timestamp
1.8387967064675361,9.502599021415904,429.7329855321634,353.14092989315054,0.03299018233793066,-61.42692320311152,11.86198036155735,11.092338023864382,1735404945104.0
1.16616443883427,364.9453251012387,442.15071799839734,-2365.546066481569,0.04283036206330789,-29.8345344486575,9.810166356444867,33.148984749433296,1735404945134.0
0.9448189010651311,482.5158981343889,1274.4559476632326,790.9354934742857,0.05205931644559609,27.759230053950603,5.440935049458939,-23.494727450769695,1735404945163.0
0.9876350563764722,-59.26864225017874,-313.54418359053807,-91.05937114314887,0.02858620650403785,-42.593673086861045,-5.118171958321695,-62.16742674652857,1735404945193.0
0.5853837009398348,38.372717058824236,350.4201118151557,369.98522757366396,0.03354274861842373,-48.163568899196,4.115993747617955,-62.13183139356724,1735404945224.0
1.6016994228508772,-381.30520506200287,1775.9502505303221,-377.0750051651344,0.06064990187183694,4.92751843118322,-6.125638497793583,-70.85934005635877,1735404945253.0
1.0633578566365374,209.5654265751919,1113.1683553412438,-1113.9596263256988,0.03938352403220459,1.5839780609005594,3.1250904628548017,-32.90941534916716,1735404945283.0
0.7046166308158844,12.42756904128882,1351.9210059112308,-665.8093432431901,0.034049410500827784,-16.22181264187485,-10.197794207589366,-67.12584824038888,1735404945312.0
1.756715596254407,335.45430015251895,1030.285777690103,6.793638075814606,0.061161542919344836,16.53742589872705,4.8754636829220654,-26.13985712473569,1735404945344.0
1.4841295279970073,553.7446320826914,1785.015623721863,452.40879553552224,0.036266478346293554,-24.363190967759785,-7.472834915698779,-95.47713092723109,1735404945373.0
1.4240524229648195,799.6143692430253,1403.2524769223353,-147.26508152312198,0.07568020982484883,-1.4798190661363577,7.1642233039578445,-52.680432543218444,1735404945403.0
1.2077646528431207,1430.0548341169833,921.4122056136299,37.212865550107104,0.06383624232966995,50.889116066241556,-12.489522884981522,-65.15255351010453,1735404945433.0
0.7602270542983969,237.75764523555995,1177.906153336361,-1240.537556396564,0.03791427590442051,7.32706816638947,2.1929163205269613,-10.215509933921325,1735404945463.0
1.0394958312504192,1104.5273427445195,935.3829783813308,1889.085278394887,0.052591633716428665,-26.764164249059757,0.5389019356909128,-22.848883613883118,1735404945493.0
1.255311595559533,280.34700874661917,1266.448656211333,-19.037398122620537,0.05580835176939626,-24.401851332772523,17.59129830917521,49.247006248627024,1735404945525.0
1.4023888794308395,594.0660429172082,1062.0438767730004,-398.98351323737586,0.05634574766371084,-22.28917135670201,1.0426555327396831,38.95104383232267,1735404945553.0
1.5694551526258946,480.0168379784204,786.3933371234657,-174.6089934043167,0.07084018750571697,-104.2639961183186,-4.084243646090507,21.48127591798384,1735404945583.0
0.23568801851804272,-303.6035511337053,703.7982973584245,876.621007982862,0.02403249206250205,32.679624206365006,-34.14170221362152,-24.911235713444942,1735404945613.0
-0.32637367750422575,256.7151309891883,1017.6071962713773,376.5166477868483,0.04262116641733765,9.818470527733735,-16.15301890908776,-25.13215975449262,1735404945644.0
0.602157567963966,492.2523276454599,1281.1891153205136,-480.33681518255105,0.05920593769610463,-40.597596290461,5.816146449541987,67.96032526513426,1735404945673.0
0.014606101296865168,165.53732551015688,-106.60638706401969,-44.09818669520846,0.020767386759164154,-45.80042215646624,-13.077469722959457,15.300027943492697,1735404945703.0
-0.04688478331698147,520.1628648439447,447.39841595441027,723.3638573987461,0.0124161602056525,-11.274715847854266,-16.319560395051894,3.0087642735712645,1735404945733.0
-0.5482960502377271,-782.1874613803838,699.043151844241,-749.0879701677289,0.05145598984141775,-18.734596603102418,-20.34928267432479,-49.09114424624279,1735404945763.0
-0.1354327444062104,-293.0402415143339,-1321.7985168171085,-1075.5575847771804,0.031010761717908154,-15.455718786861368,-8.720582868946678,-23.124258807420773,1735404945793.0
-0.46309323839383415,-296.09129366569164,627.5699968587603,-498.26383849510506,0.015524028515364524,-30.068913971365564,-16.094732458228844,34.98942954472647,1735404945822.0
0.19268658086598633,373.06505846713964,-879.0977314302999,1479.4601482453681,0.03538340358178966,23.166819903593044,-15.038186078002159,-37.4778188643954,1735404945853.0
0.8922395485301353,472.57418828557564,-425.7502532305068,228.93255651945248,0.0544703393703778,-39.34531476623724,-13.846212256742241,29.968753001832297,1735404945883.0
-0.15209743654508162,-326.67765464485126,1424.2644883434716,-303.71978722551296,0.05599211188044368,-43.96136879847233,24.32336463748874,-17.1462353025977,1735404945913.0
0.042905225538649804,305.2361442709524,485.0643445310187,-480.11907176573527,0.05423985938512873,13.052664373050522,20.659481910180578,23.83319223072546,1735404945943.0
-0.09985929774616817,-27.282677148556083,720.7108869706493,-1147.4481978728106,0.002778936659554712,65.43210412946152,-6.099550087702808,3.5116870780198557,1735404945973.0
-0.2212609376966428,-704.2127947711126,91.45346503482743,-28.041232254125674,0.032844288036775186,-64.45794237105818,-9.011041274531564,89.64976140319132,1735404946003.0
0.2894777425687611,121.58307374012222,-55.77232570907924,394.8401735668518,0.05706567092900083,-14.961712341718687,-6.412034292988707,-12.033021110875488,1735404946033.0
0.5567539358886374,189.17323809967237,-536.9635034361472,-1023.2510440477182,0.033869450149768485,-13.226454057504846,2.17318496676235,-47.22192549017608,1735404946063.0
0.4490908132406418,-687.0775879983098,-210.12139594845843,726.5365339412398,0.0259689298959641,26.7533143468016,18.292911717983984,-72.96981091865658,1735404946094.0
1.0302052013934482,-165.5504773216801,103.56627063469708,230.5942032765497,0.02854068279542165,20.281168850702727,-3.9988560818990564,29.367883980609843,1735404946124.0
0.1211395408398469,-191.90970737799108,273.29164685777437,-238.52738756770407,0.03262122246950587,59.6993490930783,-15.17706236709899,15.364650473257392,1735404946154.0
0.7849497284763837,-1114.9882193322971,-250.2644880452214,727.475270836534,0.05520387119107947,39.23164957875622,-13.449468378650671,-74.08764030225312,1735404946183.0
1.0661845610223895,-1449.342454902643,582.9201631837441,-1352.5966110857762,0.04556183183542396,73.36680139661382,-0.5680496581517902,-50.4900238787402,1735404946213.0
0.7238214908834817,-268.4205115548066,-525.4653463807821,584.8501578832113,0.03354948890698992,-7.540048313935866,0.8337548519568454,-50.873003906736976,1735404946274.0
1.7407202208184378,-650.274930674213,382.5879957741268,-1504.4974563463702,0.0667709749622967,53.052010295975066,-19.81753516199992,-47.43852922626936,1735404946274.0
0.8152949307394572,-1015.6899120724445,634.1626734750673,-944.0331702134714,0.04338202949814407,23.862265832281018,4.957200729719625,-75.28856275188005,1735404946303.0
0.4163572059797602,-945.241800032271,836.7345203036331,-1321.8298060440168,0.05381369034696936,60.15154967813922,-6.150729341219418,-14.312812816011473,1735404946333.0
1.201615697460624,-1786.9756679204907,86.27248153243072,298.28237925875305,0.05987225257084106,55.8177860712761,1.2844427325514411,-50.10421275587996,1735404946363.0
0.2587736049521928,-1703.2452135555031,-255.77186614060503,462.36349966635305,0.0765849179063593,58.74223340537014,-15.692237678355756,-11.44034600710565,1735404946393.0
0.6743353936359158,-236.63802639912183,-886.7022857318038,-415.40404681480766,0.07661101804122944,46.38329632055339,8.62889024818076,-15.68315130531979,1735404946423.0
0.980060077965982,-1452.4141454667642,295.740463819291,-165.9187167756257,0.025427453452329083,23.585442295488708,-7.652083219563684,-18.309485561177716,1735404946453.0
0.49550485504017805,-770.1294316623344,302.95163014784043,-737.2420974333404,-0.007173860440209956,43.14010835157245,-14.468323973830934,-26.415430604155706,1735404946483.0
0.07722494077333097,-860.4489208176674,-478.3454186367137,138.24528101713975,0.04069297415131477,52.50593256736849,9.818485441113081,-1.9986189221966448,1735404946513.0
0.05479537833426262,-1061.2368387314482,-85.28462710937492,-551.9541660463453,0.013133322423582162,13.698835883692087,8.213745889515925,-39.23217415764458,1735404946543.0
0.3679574318321217,3.671669074616375,872.9700681789197,-490.20095066152675,0.051131393421196346,22.82317081565663,-19.48838462800889,-35.39144644623988,1735404946574.0
0.8860105058343278,-759.9028061347526,-320.5871502896208,900.6238994130024,0.03546401662130746,13.502359463620941,-21.408356261401565,34.12029500073502,1735404946603.0
1.1064319645450624,-961.709759178072,-231.90729390337958,732.4284140914793,0.05537954818496693,5.5390381055864815,-25.675283330130693,12.475191781006217,1735404946633.0
1.5201020851533085,-716.0721207940089,-595.687241073443,-9.95831221827649,0.060899683887400455,31.940815083049603,-8.344500913990256,33.94949108372646,1735404946663.0
1.3784771093073787,-1153.0853438061963,45.458747774999196,235.6357105864651,0.05674618842790105,-44.74857454918498,-27.412807676795893,-16.872770775079026,1735404946693.0
0.055852053790067524,-1683.2231883227932,-454.89217321390356,-77.49635580685609,0.004902055075408997,40.182166814253506,-11.537079731510971,-38.15249868491394,1735404946723.0
1.2821182212233577,128.0749256849308,570.2022669999283,-403.4182574718076,0.015238601738971774,41.19521706251961,-16.072935185300157,-14.98097272281216,1735404946753.0
1.5391103027953923,-1650.0331869675347,331.8890606920815,-93.87815615327139,0.0401532386680361,20.3670593625081,-7.398784249873767,40.59899542810234,1735404946783.0
1.4767856927580874,-603.1838277661604,-263.97891854492406,62.790456798382934,0.037329107775199766,-45.536353030655576,-4.604211825797375,29.545843474129054,1735404946813.0
1.222203282737738,-791.9813015190068,745.5111339921698,-59.31808843823811,-0.00534500742075051,71.51790591340814,-5.014618378065096,25.34898997756639,1735404946843.0
0.722136864797241,-854.3107604790722,136.0176482944345,-537.1862872324026,0.04707835176392805,63.25747003589881,-26.809248015078822,-36.654105389075475,1735404946873.0
0.7480333864254783,-861.4071400598833,-433.09810277868576,-407.30745664015814,0.0640098000211407,-5.055202130171313,-35.57233483900385,39.32019721231297,1735404946903.0
1.3761555299439845,-934.4526524418226,354.10419751778943,1230.0779328580372,0.029705144121914797,46.56990763686197,-23.905451592010337,59.51611039999625,1735404946933.0
1.0191342944412243,-1099.2036233571234,508.7999676302078,860.6198429252811,0.04077201273739775,4.4169300090511925,-22.533508767305854,-78.86764602966055,1735404946963.0
-0.05483486698877327,-889.3508586934903,279.8846206047218,-178.26891760079107,0.04373458324191506,63.366405213936176,-10.924981787309118,2.2542806715357244,1735404946992.0
0.4897574187470911,-712.8895930518556,320.0843066558817,-1157.7088228653936,0.06536858030170377,4.567838658527993,-3.637034354421795,-37.318983542913514,1735404947024.0
1.2418535777245638,-470.14433898389296,-103.3531348162204,-1105.5158494445736,0.042721840654265965,-63.46049275345989,-22.51672251757032,5.148917221902025,1735404947053.0
0.8043150165985932,-2100.086522581594,405.04197473359045,-589.7435840053449,0.05064625862704622,-18.92752606231091,-20.02672595920306,27.02196185534357,1735404947083.0
0.979502830295458,-1243.7162573645578,47.40918155660371,-882.5969879784003,0.017218404710079967,8.193272844602863,-28.519568284264125,-25.764007385295006,1735404947115.0
0.5367108088974906,-1238.5368388600316,-107.65227461116712,-1697.8713301026569,0.02918805383738824,-8.683051279516047,-17.017867851805455,-7.467972620337823,1735404947144.0
1.701718047396397,-1907.2779415576313,-469.13761734441925,714.2194709303931,0.010531432782031818,26.372810668306897,-20.578501742719023,-1.4004444303106247,1735404947144.0
