Acc_Betrag,Acc_X,Acc_Y,Acc_Z,Ori_Betrag,Ori_X,Ori_Y,Ori_Z,Timestamp
0.3454121239756559,-1267.3101871253125,136.31497263091728,1388.7700921010114,0.0423783937361507,-35.68780468715312,-10.931215916067526,-18.481628835156165,1735409480332.0
1.020758538833934,-164.5258104445761,352.66617051249267,91.40274215927809,0.03802756718202819,-16.960027535379357,-11.221206784453166,-42.577910747604065,1735409480362.0
-0.24887782680601234,-910.4369933894129,837.147899136006,-695.9566619053234,0.06175148368207575,-27.074740260365264,-36.03598378430414,-19.91747010801971,1735409480392.0
0.46559454628786356,-777.1995872114107,447.3917231607801,-839.7336817279404,0.058258085784978195,78.33961126798856,0.4620926054551475,-24.048340167516045,1735409480422.0
1.4067755429601365,-842.298122290923,1481.6394259308806,-435.520094586724,0.026821515144564465,8.85243294371286,-1.338665007826025,-36.59929795817113,1735409480452.0
0.10642127173436322,-513.1882367225774,547.9240540994624,-133.99792218495244,0.05350011917328958,-13.610913754098373,-18.27718956004452,-9.760125716041898,1735409480482.0
-0.12425039297079676,-1318.0249235239355,924.149985116472,-552.1908695398536,0.047936103261807854,-7.708140531796474,-16.135647547895303,-35.907478561298134,1735409480513.0
1.326495659196691,-645.4983561475403,1176.0180128527043,-814.8162195967723,0.04243012355755853,-7.832670142385757,-17.63672253800647,-31.455021847548593,1735409480543.0
1.3071804010483303,-449.1888375586708,384.95903335612866,-248.4785395410188,0.06487047369247192,25.908693114942757,-32.53611806767226,-86.4373640955819,1735409480573.0
0.7413835252017753,109.52750738346197,1073.9123610451309,-956.8388522810773,0.03620491942694529,-25.536375009257203,-17.59445056575153,32.368918166500855,1735409480603.0
1.323724060521927,265.2971920165975,1053.910952458137,-355.6640963548984,0.05151607359789757,12.377772655865638,-8.333251769046898,6.363156908776084,1735409480633.0
2.1342997865702866,-727.3954683115995,961.0204300558761,-394.6262050598045,0.022280984800525473,4.620107766470109,-31.132038843958476,46.285025953022085,1735409480663.0
0.5939847099767268,-307.3037824485003,821.5493935294294,468.3860375236162,0.04255975387666419,-16.81396072614988,-19.9289594454078,33.53369858063931,1735409480693.0
1.1347527123573302,-958.9956031721528,1690.9976356988077,240.90296707697325,0.017885899028228913,25.96520229879251,-11.622027462932248,-37.19054712800373,1735409480722.0
2.014322631432927,-1205.437586595007,654.8155829189939,-155.87055782457688,0.04321555175986905,-9.534938933820383,-23.000439409010106,18.440438328649,1735409480753.0
1.4779242187315993,-578.0423820846189,473.6134811464274,292.8524456212073,0.014465975513502587,-44.834466685062715,-18.798120302191766,5.821061756703951,1735409480783.0
0.5423443576507296,-918.9590478624217,440.01137593660917,-1715.170218291751,0.05175347976741447,-25.411007180504495,-23.709448461405138,14.788449761966746,1735409480813.0
1.8330441942706823,-895.7819862782001,1204.6408822590122,-939.9592119184363,0.03999548179361346,23.76337136303625,-24.85845210491489,6.003472159232434,1735409480843.0
0.14331694011588503,-716.1461416318625,649.616277790869,1106.0107833925251,0.020199224394211516,-23.755749255677202,-31.225633835607294,-12.116977976933361,1735409480873.0
0.2691345834672003,-1359.76540978668,352.0371878764269,143.38591062579422,0.06793661319001029,85.29628093334006,-18.732173135725038,-17.05347337175356,1735409480903.0
0.789733681868682,-386.80620342532694,478.7685404269154,785.1783741564998,0.058718123498948796,21.129686164312645,-23.941309967892295,-5.668275739074094,1735409480933.0
1.441656411935872,-741.0729315770379,1136.3996121510224,-818.6573456878281,0.06116203573097759,17.761505170096946,-21.80109110946171,-50.44618619710012,1735409480963.0
1.1020915482231224,-510.62522548564175,1290.3553112862096,0.8701524115424064,0.07435549577877748,69.71250392946766,-36.85046799576547,-20.53069359074837,1735409480993.0
0.5535509864072541,-353.0472110852374,1308.7564649164547,-300.65488155981217,0.0485780614200933,62.119120032621225,-23.41433397614594,-41.28481331400477,1735409481023.0
-0.3256442808081857,-1195.324948585103,-189.31282189326367,91.94115066494476,0.05490927656630775,37.6817202304234,0.24332576627848646,-12.533773567353409,1735409481053.0
0.4362747170979999,-428.14614926959223,689.5434032543362,760.8818014260524,0.060195025756453115,40.93858973335635,-8.068239209746684,-60.72260945542695,1735409481083.0
1.0683125278532304,-89.78459251798319,285.81265681430085,129.4638284389353,0.05295943188964233,34.56843834132351,10.08066916623412,31.135582708337083,1735409481113.0
0.6592060589327414,-511.1121997800277,-318.70839320146047,251.24683291631288,0.006252698752608119,22.27337170088691,-12.067312908453689,59.986201426836175,1735409481143.0
0.5086745598509369,-273.87512854667585,-143.62004631286987,212.72504673186717,0.014275339796499434,-39.18321994958369,1.2750721169496266,-51.560534614797895,1735409481173.0
-0.4622532345373969,-1.1083468739841464,-933.7349345233205,-937.9139175492202,0.01186493116848112,1.2282697279369614,4.833302675617479,-29.279306551275894,1735409481203.0
0.3139499943342916,179.44750608238678,56.479052293752204,-325.9576916325015,0.06178733183593332,36.43513559564893,1.584712153477989,76.33794551893283,1735409481232.0
0.40096338028844636,-1339.6128466548166,-449.71827476505325,-942.7839679216769,0.009012628352982388,13.992632914003229,-8.766957024090189,26.114838083140143,1735409481263.0
-0.5600289438770331,441.3132634776375,-950.8828426469926,746.0346685281535,0.021017301529051093,5.7673637448284545,-10.430395785089619,-10.82175020600808,1735409481293.0
0.07988011571094741,210.87487094374427,-214.16166150968994,343.3820614851739,0.019172594978690484,31.576709351086215,10.876092898578285,-44.545315069839944,1735409481322.0
0.023094369672563092,-212.49688583136242,-622.5589786058586,-261.1674328631301,0.04142308857611223,-3.540594017788939,0.010998772610761876,-61.17161968509646,1735409481353.0
0.09813345682595272,-492.7595796132654,-391.7758444334143,-1.3344107981714846,0.014280981463641358,-32.418011658327856,-2.6987423743755494,-22.028389557828906,1735409481383.0
-0.09675009244754185,-381.35343744536345,336.700639135132,-692.5001698089769,0.0190154630141486,33.06680806139812,5.549685339923608,25.839124709278295,1735409481413.0
0.423604586320557,-9.360105570079341,-180.080313076874,237.17204213326303,0.04422098031376173,67.71240801839178,4.863138018647728,68.2373807441524,1735409481443.0
0.6982407363033964,622.1767194000274,1102.0881336142932,-752.7405093927745,0.028036348560889282,-9.582131448461757,-9.049285257241335,13.973857349638855,1735409481473.0
1.4423114165348139,-285.5057368413678,859.6235539942992,-52.40919107312101,0.0066604179011410325,12.348990014695683,-2.1175682351504395,-24.232768699649668,1735409481502.0
0.778818383306273,226.24688214098074,684.0575486777037,-783.3220198234958,0.007418333955954207,28.94515164794727,-13.872548400369215,36.879764664588194,1735409481533.0
0.4689661871625543,-684.807735048734,-433.35401961456,303.8700509400578,0.01207119161290662,22.25920569378051,-4.638380686869304,-1.2716209072018927,1735409481563.0
2.034522614190733,-1747.5044319003352,-412.90222373614284,421.4383691906062,0.037147902856812014,38.93656893340294,-11.20509116146842,48.72074578834587,1735409481593.0
0.06628904076877307,-922.9742537917627,84.54657963839071,425.47017207339775,0.043254777802963135,42.967230099839604,10.429506368531861,-37.90785686042252,1735409481623.0
0.37922674890507635,-1093.0922189980524,-221.2608529371845,820.832427894406,0.07427585004558318,-22.97282645287932,-2.833045579329372,-87.67722552068417,1735409481653.0
0.42687603696724086,-785.8479542497141,270.16556944384627,-481.3992524423534,0.07920310958221494,-48.0868305795128,-14.325930305548365,-41.0348468675638,1735409481683.0
0.7536662241709917,-737.8326647857476,-1763.325512534706,-53.33626326488846,0.07643343693663732,46.89989691410631,-5.918413461594019,-18.561150844275,1735409481713.0
1.6167370327289166,-847.1842737970735,-0.9940027761663259,-507.64526024238637,0.06206546023519374,81.4091412054363,-14.596939791687214,29.59223639001233,1735409481773.0
1.1382773132558555,235.1436422233245,-1620.9197447072947,-560.8895036897089,0.05986597488838366,22.44880061477247,8.97820341602882,-15.324949224096585,1735409481803.0
1.6565532754455583,-887.0888678720987,154.0316880780448,-569.7975199678015,0.04703620803684083,11.289898580811201,-13.34764838720577,-19.669585035586643,1735409481833.0
0.18923350484811308,-254.66756641710828,-201.02819022422926,-569.869318355935,0.028975373379413798,67.04962730675742,-16.806995852908482,9.834550704354367,1735409481862.0
0.3690839000829699,-792.2135575237332,-942.4300053927683,-41.12580175557616,0.03279529085152236,63.03205829673401,-0.5226970573262744,43.43945521378886,1735409481892.0
1.270456949585935,-503.56116516196977,531.2873163962311,333.1499519490917,0.058569952871388116,49.20694028440695,-6.5291324904641765,7.861569660456762,1735409481924.0
1.8697526498807189,-701.4951993642626,131.84776596415827,-467.1960373646819,0.06377034898171903,38.55764820705446,-6.277682968606855,-80.1813625165585,1735409481953.0
1.0348891718442945,-438.1320996399504,-742.2836483241832,-458.443329969013,0.04013820914990104,56.86249115662369,-0.627480072133161,-17.142124120313778,1735409481983.0
0.3285552872138612,-978.2251362548827,-683.2867805028288,-387.48105442749437,0.036791020242877386,69.16287130655361,-0.5994663484835039,-25.04087426924255,1735409482013.0
0.6256817190879612,-561.7894799145361,-11.759344868644234,330.65820170541963,0.00848384631445723,82.70038259467586,-9.2995818252698,-46.94324506743085,1735409482044.0
0.618386565747501,-840.4282952052472,-57.7029336175483,-622.282334784973,0.018864360825223733,-25.799878340496974,-13.700204339094325,29.263048272183013,1735409482073.0
0.6556528480309025,176.71980165118896,-426.3565046417474,-1201.5377113924806,0.01571558619668863,16.981681119938823,-0.06068064901405401,-35.76086057984685,1735409482103.0
0.7259519710970306,-684.0851174580172,-412.6703109168792,-723.9355765541496,0.04513683415092086,65.43342874443103,14.172375094518818,-14.64575993916964,1735409482134.0
1.5542534245308923,7.181397439696525,-911.2699128214481,-400.5489825293123,0.015563455494287122,56.856629996679146,-3.5882317710379437,-4.752804384114976,1735409482163.0
0.6671346800428107,-344.2520021174538,497.726413959258,-818.2932654790618,0.02258519001634733,91.01574322890497,4.321398923741931,6.22906308158151,1735409482193.0
0.45204893064602136,-881.9709432285968,-854.5065608799424,-1471.956308864252,0.01870041859263849,57.50711152001935,5.094885055432611,40.649020469532005,1735409482223.0
0.14296141434790566,480.74428088010154,-494.96354995830643,411.140030273153,0.0272829166803025,-23.032977070507272,15.304388705761369,-17.7583838003269,1735409482253.0
1.2856112078572972,-802.3835455442921,-297.098011551752,-246.60695464785877,0.02391130050771435,36.31754765406964,-9.451025098253552,59.516593429526125,1735409482284.0
0.7531585391340685,-574.0589904714623,53.03336491409459,482.47300899531274,0.020357328991197732,38.28963286112911,3.762474130525421,-55.775914823927685,1735409482314.0
-0.5154636537635171,-824.4460627607054,-1958.8575033976992,-698.2332427557333,0.021272074337555083,-11.276365527342556,6.393931173841745,-1.3307921219038867,1735409482344.0
0.3916561822283988,-1341.9301281343155,4.01115902711706,193.49776975776513,0.04172801078321669,64.27917345155588,9.81912278906549,3.928007443251756,1735409482374.0
0.7375491314479012,-1199.9062867806852,-1553.6736654530343,-873.4423083912915,0.025772272510118335,59.447244852727664,13.450566727187333,47.812387114055944,1735409482374.0
0.21887860957923722,-757.4613812058539,-1124.8292365260822,-798.2563065764627,0.02256328701441704,-6.211517039766413,-16.832995966274623,23.128660446895346,1735409482374.0
