Acc_Betrag,Acc_X,Acc_Y,Acc_Z,Ori_Betrag,Ori_X,Ori_Y,Ori_Z,Timestamp
0.7877638365509796,404.1799530126656,-636.0113195930646,-327.3074076487602,0.06997223114134835,52.55115558218378,-23.412318177259955,-24.019014830993825,1735409797687
2.0762918657038254,982.1973896569543,-782.9655711887089,-1812.6749458839886,0.047962488830583905,19.763708311750477,-2.700645194648743,39.354909228111495,1735409797712
2.138377070256075,265.6481713713674,297.6814279565327,-584.5297413880808,0.06911347802947157,30.198837353141393,1.5434618679268945,39.74378497923771,1735409797742
0.5660936179057493,-40.934358290978665,1032.851294952694,823.3337752056309,0.05373036008153756,-63.7566979724604,-20.49001863546819,-61.39901686368999,1735409797771
0.9214514262340935,225.71280180622608,794.1431000433442,-421.37367396647466,0.04834419744546625,5.959513353857588,-31.180039578378675,22.91598321362751,1735409797802
0.12857489487423257,252.33187439278018,874.1809365906283,-899.2283893090804,0.025160325055733443,-44.819957624944394,-18.494873854001476,77.94540076145012,1735409797831
1.3665005165527333,-489.27169649351674,1062.80967456072,-683.7269522370063,0.04327380767451378,16.373809658459628,-0.949602968042127,59.17789223380818,1735409797861
1.271466723983986,142.8671627442094,1297.511476122641,-169.5610604501412,0.024481504110499083,-26.696069127448318,-9.921123188881296,71.2365502730712,1735409797892
0.4688058051006012,-826.9689843337367,1476.5496145407035,-1555.783657932585,0.06395657322479593,66.93828233110636,-19.798007516258178,19.647079436617773,1735409797921
1.164756898575082,-225.8726952971243,774.1325682468039,-328.27503336350196,0.03919602234987492,69.22148388225905,-16.054359969095657,6.962910875732432,1735409797951
1.3165985231237705,835.7132385812275,7.639976360487935,550.4501709800436,0.0540218217656893,21.395014239537755,-4.535279337811026,2.865483050978728,1735409797981
1.7955710270661644,678.3196017265651,-241.77189450344804,-359.66795866219474,0.07918811609135258,22.21041958509891,-22.755837997196743,-23.245086930011425,1735409798011
0.7258170425282987,2074.865627415684,596.4483934606274,366.62384667918786,0.044103715754653196,59.052098329201804,2.55883760207133,32.03026203346879,1735409798041
0.03239600086371111,103.7731317222373,-145.00681679703388,516.0018420800232,0.05165557104206833,48.14530500222618,-19.691334496503206,1.5786287977612217,1735409798072
-0.26214876636255796,44.408381814228406,73.24823359385478,115.93551466365983,0.03547710902409307,13.708709292800705,4.799112595141533,8.016251595228137,1735409798101
0.4481319055441763,-76.71188263170846,268.9433787948009,206.65510818706196,0.03453949203682817,33.336693748071895,-0.98698808258803,41.74629298724188,1735409798131
0.16085283233022582,413.16414584826157,128.61451478741037,1341.3083904665334,0.027956018143270752,49.752564025384984,-7.817642630198088,-23.97422660909959,1735409798160
-0.007287398268786827,835.8580964724606,303.17590212867424,213.90262170423202,0.031169071153672078,37.93075632710421,5.694253237388699,-8.750267543796385,1735409798191
0.4703628757448291,174.1547623421478,461.9476436527228,308.454403698845,0.043096951971713565,65.15112290792727,-8.027875952976874,-79.89562037948106,1735409798221
-0.20213494731733214,-528.0343568759171,-62.96696607411138,1100.1285623368397,0.028378594948992218,85.39443660335888,-6.840794959736115,48.23898558254345,1735409798251
0.35242046548680706,658.5175308824555,-995.9647217700085,-643.6003548197233,0.01354446087892151,-0.5296575497921108,-19.220942336983466,-35.927618588140284,1735409798281
-0.6675574176211221,160.54207296913785,-180.88084026986425,903.9898713708351,0.01426549927453288,21.984916430302107,4.275048175467342,33.77318636336783,1735409798311
-0.532399115752505,-487.5610266323671,-474.9617576158503,-705.2757012544677,0.02081113947350778,-27.075486224853115,-14.302943341529113,7.4715471410041445,1735409798341
3.0857755861687015,1761.560409419269,783.084561474532,2422.6026959048963,0.052489305949236176,40.620232788318894,-4.260810261250717,20.60092535623145,1735409798371
3.3275646915942785,1668.4919607878696,1779.7977810223383,2362.2543033429906,0.059134366411303395,33.68282020012843,-17.02681344010721,57.092718683819996,1735409798402
3.1282558713018402,1623.2558683038803,2256.2615871857333,2627.924298997081,0.06507228158715087,40.968455572367176,-23.38724451309671,0.7655746034821576,1735409798431
0.014855596838729723,144.81546655446596,496.5258760313627,1046.7935301619445,0.04677529814147218,11.65288589268479,-4.370561279257157,51.202783134841866,1735409798461
1.3990651612918663,1274.2042134185053,-272.39929255876035,971.8547482629484,0.032154498294736676,-6.512148777787184,7.112500209642617,43.26988372729995,1735409798491
0.5239700546000061,511.0443880302777,1353.5517450740372,479.09139542059347,0.04264653690404446,49.86132749144804,-3.0244478802406585,15.496436479697582,1735409798521
0.6679164642066682,646.4359491944471,-225.78386809663948,2094.2803519179542,0.0015925119738148912,20.56108586279341,-6.728423877886009,62.75953790658449,1735409798551
1.2849920611194614,-400.59839002893744,-1185.6772512775265,705.9207462472681,0.033402152527967924,58.52084489995518,-12.42779464321347,29.64232975267292,1735409798581
1.6489686252051055,643.4847276070315,-193.08057294851858,654.9261878762649,0.026143548403584637,32.44117033993696,30.13377369791732,15.844654446537547,1735409798611
2.457450022969719,112.3932099848879,-514.1634279577124,388.44006036105833,0.05436940284596389,40.526750634762216,2.170777321514324,-1.1749388141081383,1735409798641
1.1027990622489579,407.31313737787883,519.1750806098387,1747.7302069245816,0.013358902432798761,-12.999464625528127,19.200779607984174,49.1321874292955,1735409798672
1.2578105316832322,-1113.9208208031878,260.06915334286816,344.1645571965324,0.0504179567780934,-14.709653918052005,4.238144110372911,52.08612861601096,1735409798702
1.045216860014048,35.72483426285842,2.3426582466344748,636.8453621703443,0.022339717772340867,61.385253498328154,10.485232944316827,-62.560284519996046,1735409798732
2.0441662080443463,-167.60201475491695,-310.74878384597696,1483.7173539766582,0.05216421382174554,-21.351841619593955,17.21906202815893,36.868879052888815,1735409798761
1.4099374188941132,228.1962067233025,181.8405270392995,446.36573020771107,0.04673466543286859,-17.836090270554585,28.89845194771275,-3.6851012270346857,1735409798791
0.7561191168166007,173.8113399686933,456.66061228486365,1042.1749334869025,0.023192698787411366,12.181616288967993,23.76033677112065,45.189514079994424,1735409798821
0.13354687750558103,240.9499115971958,32.08434439400122,1440.048326238001,0.04248801836140062,9.39984198964263,6.811714799723406,15.02449230154862,1735409798851
1.4771260062332163,-1336.4498808585508,-713.456658943119,587.8873316409235,0.03605489903210327,16.574961055138424,-2.9505747158350575,53.932573823520414,1735409798880
0.6330905446104519,193.57272121640182,-265.60260158706234,2698.776481689739,0.04367183641119516,-62.0566800156327,-6.697617368693501,18.933633166407716,1735409798911
1.0738937405762359,752.1584898816543,-676.4443032837017,2295.248214656369,0.04548055051570138,-24.520279397977777,-17.620767348682474,31.123577137688443,1735409798941
0.22956410094079016,-279.9241609676042,-229.78947295991344,1139.1629722441057,0.027067196364435706,-16.80517922716814,2.5292823091116357,6.961456368496574,1735409798971
0.9891771829853435,-477.2870846953405,20.08960337215163,1118.1377476664302,0.05577068532262591,9.237894473679269,-11.528792117723032,75.37285346104045,1735409799000
1.4854632147215039,18.714824234724695,-63.20185069903056,393.6880668826552,0.04286938382135502,21.82164031636627,12.967327137545901,30.732860054618875,1735409799031
0.6577901709106333,647.1825565194888,-425.4923201937411,-592.9915741628436,0.0455964884541417,12.641529765247002,0.18411903849120564,74.79813818460696,1735409799061
0.8958293959425374,255.65272654552854,-544.6185899753242,1322.7361937172486,0.028308981564001922,9.101730929668017,-4.1032737847657605,13.366696953550354,1735409799091
1.1131986515813277,-1085.5056719461454,-253.06679700215588,42.62003594519297,0.02455783454992679,26.62694076523307,-14.687364043057942,36.26012330856474,1735409799121
0.927847051499163,-238.91902838712065,-373.33765353838714,877.474188536508,0.006873096752074162,-15.856867184026694,10.219930080964136,-24.134278436664435,1735409799151
1.0494414587245142,890.5689034807954,-1628.7852556729333,625.9650347856857,0.030397089965558028,14.995707212614564,-12.20166954111317,58.02754911753532,1735409799181
0.7181179463900537,-277.27037394693116,60.41614940670104,183.66018501699853,0.008696592738551272,8.356963637102913,4.852549074261933,-3.400257733902368,1735409799211
1.2105796763860794,-362.67480203662615,-154.0898459414363,1163.1803376433763,-0.0022609710942231923,-41.836501356938754,-16.00499485769036,36.55765965221395,1735409799241
0.9030170406459411,-475.3009169455984,-295.07101269827876,140.52787963584296,0.01921550427682658,22.2513062968409,0.7839070824934131,-16.99695533293236,1735409799271
0.3069771580133549,56.89845696159762,-1288.400896689722,1175.6374463772443,0.015486267391308397,-18.878080276409406,16.611262076197118,-20.07560776873149,1735409799301
0.7770540152623157,-41.91745462598797,-195.00967990600876,144.25666311846953,0.0065920884369775265,-10.25967876073279,-8.931368687527087,-35.60907556537552,1735409799331
1.21457368712835,-192.12429364968796,211.10162101149763,1105.3753301201923,0.013676367552073895,-22.699405432023802,2.834212512318019,-2.7269682557878046,1735409799360
0.6413123281942146,-529.2142326733091,-1016.8609227119969,166.45142653448193,0.0155952160402574,-36.91027891451565,-5.733919159748151,-9.430912286242469,1735409799391
1.5953043797567499,93.77781622621438,-1260.8428857117601,1593.9892643266162,-0.012843428469271624,1.3926961871079868,-23.876230215482067,-9.25972245077656,1735409799421
0.5619858895899033,-403.21461895336563,-106.94512293239853,1054.8052471980188,0.007489620080824997,19.947769936318977,-6.7735917362108795,0.14958458138120356,1735409799451
1.6420800987187523,-255.31654938708147,100.28614914867745,2396.567748086366,0.019219290657396478,26.178050284009483,3.1253320320575924,40.42630295307158,1735409799481
0.712074410474373,-470.81609307961634,620.7413981976598,1250.3552173559851,-0.01910702375680045,0.4755607913150959,-5.038801506827962,-16.62297049775979,1735409799511
1.1515442627694152,-878.1505200066932,-1240.0743237429356,511.6872030659722,0.02440749135242737,-5.123302473910093,6.642895563369854,60.339860601588285,1735409799541
1.3508952380564299,-211.49646299169785,-771.8310611475945,1015.3843780272866,0.023723105689806734,16.180926460434453,-12.845237657741272,-32.875687299380424,1735409799571
1.221598307847822,406.1320493894111,161.3037143097252,839.162510626433,0.0007913808509808851,31.643203131050168,-19.537849823172568,-37.84808775913337,1735409799601
2.0594201946203126,689.6443059817763,-395.0464287534704,944.8253783482369,0.010689404925834945,-21.833032179396216,0.6673211541464239,3.7306872998586216,1735409799631
0.6732303232278634,-448.3270039054371,-394.465141778942,790.9849279396407,0.024972660896328137,41.646321104301784,-10.656159844507854,-27.962175069278043,1735409799661
1.2892626575926593,-351.4298744225425,-777.5223208458603,1348.2694170133395,-0.009388994373982135,-17.156074060472804,-17.180173254018715,-1.8623821245507401,1735409799691
1.6016787662497527,-234.9218891302886,683.083060056736,970.9655984317409,0.02483242376695817,-71.38167208151766,8.505960541681787,-25.442739515804295,1735409799722
0.6561296579766775,-482.6038329466224,533.4392602006595,2345.0949707540394,0.03438673099744041,25.544485143924216,-4.931592412143324,-49.35462754811343,1735409799751
