Acc_Betrag,Acc_X,Acc_Y,Acc_Z,Ori_Betrag,Ori_X,Ori_Y,Ori_Z,Timestamp
0.9999526728872339,-799.6459578436492,978.4693467861625,576.0317246461194,0.06179830762459744,-53.35820311607947,-2.6998446284002373,-24.715489888002644,1735410029496.0
0.9409344953905013,-220.8090560326765,753.8413568433272,127.52548087657317,0.03786938391483558,-11.837236510728935,0.4354714369037982,-27.75233160637583,1735410029525.0
1.195497410944803,-781.7219927221963,1.4049216118365848,495.95472717539195,0.05554837852941585,-52.64884435952684,-28.278888247695345,-30.830594903646965,1735410029555.0
0.9365261785837927,-1590.2614053256852,849.620331255976,-85.6682177592956,0.043940287517235714,-51.31787258268124,-5.338091594220784,6.850123175430554,1735410029586.0
0.8853491692108025,-549.3520225581942,270.2886624093151,-766.8174013171728,0.06353307886182945,-27.996267891053684,5.892332075208733,-46.93256384974227,1735410029616.0
0.5240430456282963,-24.27419863167688,626.8350634931892,586.7759464502469,0.05338319863204518,-49.15757554014117,-6.3769725200766265,-17.137477862034743,1735410029645.0
0.8633589055732576,-945.6428483350411,394.595722775831,-419.49274646208977,0.05273582208397977,-50.42642621462047,1.3680709065938501,-5.8028184180405304,1735410029675.0
1.0662565649826894,-752.4261398099995,471.3515475116004,-672.8464707433279,0.06196227495989198,-77.09878788797786,8.762694019361563,5.029830097976667,1735410029705.0
0.5355310815828274,-776.7889936596121,1053.5529567911458,-333.6130109832918,0.05851773964963016,-15.60425475356912,10.958064833614262,-51.07203362206168,1735410029735.0
0.8703137819596788,-576.4571124986862,27.48822361624491,-83.43475873114474,0.05902968259220071,-74.41284713429442,-11.311816686885077,-24.025777745672645,1735410029765.0
1.2200331295508808,-1808.7579827278948,1450.2999037012205,164.46410978999745,0.053607193523417286,-68.8833937789287,1.270390489504198,60.87451024867549,1735410029795.0
0.6908478330416385,-871.7264797928702,805.089764906392,239.60292817932788,0.057450996841701,-43.441416649858155,-22.096437313873658,4.048598019880405,1735410029826.0
0.8619768971096367,-583.350363205307,638.6526715763488,372.9176009764083,0.06399266428031929,-78.02267090560215,-28.28791874236522,-56.067480363452106,1735410029855.0
1.439711271440198,-506.61039538434454,-141.5155450923777,966.3315380388826,0.05524817397037138,-46.8338693650018,-16.98106958980764,-66.00626059133825,1735410029885.0
0.6416075359253718,-468.3322908543149,537.9748999393682,434.3292935711234,0.005795990385939934,-1.5650004196650187,-5.843265162595969,-2.601498858919472,1735410029915.0
0.8393726907429688,-1369.8460369768798,518.8445623753107,1278.79802623301,0.05928673958227817,-20.055330810211768,-12.185410633881416,7.286585541054629,1735410029946.0
0.8097193623820378,-408.77684812461484,798.5564549416404,197.25918924816483,0.0400024897838146,-26.837342880132773,0.3647583388380351,-27.804281002477556,1735410029975.0
1.4926577334705504,343.51511728212097,-429.7708469955868,-1319.01855068076,0.028863708490120116,-31.224656186992917,-21.202049150787566,13.8749010120589,1735410030005.0
1.0967781594315786,-423.92419641258243,80.65404759005366,1428.966320049994,0.055331296547776646,-8.736445670810355,-3.905236019549217,4.6263053400881144,1735410030036.0
1.044800700810708,-386.2961334973297,65.42232698687513,881.5234317084214,0.06686999693096271,-89.6814536064044,-28.003214867304294,4.8973096395558535,1735410030066.0
-0.2749490589878728,169.3266881651396,124.09518499983993,-62.997174934780546,0.06083799713766207,-81.16071976871466,-6.005870674785548,-15.766877774127124,1735410030095.0
0.26585939339118886,425.3880856852439,-891.7028623958093,259.3795566476194,0.07196292207462153,17.18814306745954,-32.51593766911184,2.8629121007647296,1735410030126.0
0.4728782372706521,624.7803525353919,-588.8523814111657,-11.912594973703982,0.04834147460004172,14.146891237841757,-26.31625143581929,-18.57215537074072,1735410030155.0
0.44776541102758805,156.28998947089053,-424.2874739705294,-1128.3394590363978,0.03709150361596887,34.08303177921286,-14.260971038948997,14.994941238700871,1735410030185.0
-0.20580199729767815,485.37177196865787,514.5896569089855,-370.02585548162887,0.0450318185951834,14.099583926948007,-23.20710924228769,42.960253423901875,1735410030215.0
-0.5686948543173925,-359.7420545192149,-258.6759890864175,136.85569665738072,0.05531519455915303,80.07825239551765,-0.14876860702630765,20.172583639640916,1735410030245.0
-0.4934985379048094,-17.94742698199346,470.2664577638948,595.3457345105866,0.029511965090698047,37.893228587446984,-12.343725593309196,23.279358849517095,1735410030275.0
-0.04191619317773887,527.4644820122985,4.200908303090964,176.8098119386504,0.059280266521745256,3.414730077834612,-8.673783569319179,24.83205506351084,1735410030305.0
-0.3764746121118162,548.4575969814812,741.6962987510186,35.81948785282357,0.015511601172707497,74.57567421645479,-4.920240261692086,-7.077531298882782,1735410030335.0
0.5874695264251417,484.71421972921326,-712.553192449926,-39.14231764943412,0.04930076407083299,7.546359967144824,-1.9996112643699346,-64.27897192667083,1735410030365.0
0.10217891150721359,-98.60552358213972,-712.2710573323532,50.75680196450719,0.035979429754612914,51.39497365360965,-12.14843469068812,-6.502973140864864,1735410030395.0
0.4667629143845299,-44.353975316545785,608.9109790145728,-324.7865835872301,0.01570527080176167,-6.5573956579972545,-1.043497136361859,12.097542140331974,1735410030426.0
0.3800098769933846,319.56480573788883,-282.28119860579653,-7.705746022891049,0.07839553799415426,12.101247733206755,-6.029806297292896,-14.354323236475487,1735410030456.0
1.3830176491037525,890.045355376497,-362.26713025570604,-824.0912461442786,0.06753269194092186,6.275987457396358,-1.6292596932937773,-23.854503764886196,1735410030485.0
1.5613573497158337,1230.798712272228,503.4030551427159,-1332.2464991673392,0.047929088401246295,20.212421020011195,8.18876767086218,-56.206602185047615,1735410030515.0
1.2738697591302643,483.7463696627155,592.0746579159338,-645.5112224151075,0.022359515683006183,-18.477405628946936,22.10008481305414,-19.15785969365119,1735410030545.0
0.9365580865258896,-98.91688253038538,398.0275400568441,-1118.9561214857877,0.047461743167986965,-79.43570575914697,7.840473834670712,34.59341602663662,1735410030575.0
1.42738886727125,234.49395758293818,-186.5332182131943,-1547.7520862212516,0.025662253100010208,-18.515715440899825,9.795720436457891,-16.211675457406507,1735410030605.0
-0.17020387275592985,-54.94850471476195,699.6435115533787,-1428.9654927378233,0.03091929332649111,-54.57844781799918,-0.8083406486981133,35.32497920543944,1735410030635.0
0.38434886184684275,405.00468458453514,134.6715163814361,-217.87411306631873,0.08005789755187157,-54.43369958501987,4.083433082146547,0.5976704372193495,1735410030694.0
1.2791559681692835,939.4181271328133,-359.16130184934195,-1585.00310011614,0.06387036900687443,-72.38341970408638,4.280794903452344,29.134054830795453,1735410030696.0
1.068787631399879,99.97450577945793,242.02496066898897,-1758.168448201317,0.07612316426025174,-30.200075829713043,2.107293449601836,-29.696420145189236,1735410030725.0
1.085195012393783,235.1659400535649,1009.2521326341863,-523.9954436914272,0.05145562477876643,-94.428579853137,10.683039484382784,-41.739769124062,1735410030755.0
0.36621681036327225,147.47957796451416,1008.8944912526391,-115.1117123214924,0.04222650795942249,-64.09611569753233,-2.771082056948183,-46.00354720279633,1735410030816.0
0.6744663260704029,473.43658872367376,743.2177832607902,-2451.8540586957156,0.04952940459949097,-53.67197960504693,10.776341592607263,-2.124893680414342,1735410030816.0
2.362311636147787,607.344085328391,570.9957233003429,-43.84860500722982,0.02245380801014004,-90.27693478257459,-7.876054300887055,-20.916216207814067,1735410030845.0
0.9282268131946164,407.7182874172884,363.86099990194083,-261.13997888477945,0.05253692474499526,-35.1107317328898,3.256449176454772,-21.980228795411918,1735410030875.0
0.6364892045326939,822.718656191031,-22.055231943462616,-944.5469808189027,0.05103548200727087,-64.11261919207614,6.107118954410593,20.02426640465616,1735410030907.0
1.3834759625073692,678.6411467046624,592.0493188507828,-1943.5634400248373,0.009125057638018137,55.71067548328458,14.929496720988341,-12.010016694998505,1735410030936.0
0.9061404637375894,159.4897219580009,-702.5350494047052,-212.7599897198204,0.04166460137861641,-16.420423858657706,-2.52137258180253,-1.2624167519810503,1735410030966.0
1.8119101945704297,901.0033287846466,-482.1186973280236,739.8485117846922,0.033507351547523656,-103.06692829915846,-1.5522911090275224,16.506072143180713,1735410030996.0
0.5436407804954921,-343.52365029962994,740.6722975066893,-318.54173067869306,0.030341088715206504,-12.213884337185469,7.857688244278622,-35.85814397175413,1735410031026.0
0.8084850121751885,1117.2461108898628,-266.2137435582299,-1464.517270280363,0.04330952753042837,-83.5545097284958,4.655649675293902,-3.2884614523068656,1735410031056.0
1.5911278490930991,-373.0724523162344,-160.67289819453305,-1146.851815253939,0.06485981310346606,-57.29534276388711,-3.113963499136382,22.921951058489192,1735410031116.0
0.9010440122452343,-633.7210256755368,609.9591025488926,-926.6654431861942,0.03001848918282772,-103.13327858434886,-6.72785134403846,-16.95045506207932,1735410031116.0
1.043864425231441,533.0961239327369,210.84489484601482,591.6109940564295,0.07192673257081993,-35.825463612640014,16.170804189057286,12.861560498541216,1735410031145.0
1.271729985375531,58.418350405901975,2.7530268697329063,-765.9616374533542,0.05572963284404086,-41.94599613472454,12.058045743906899,36.146262545222854,1735410031177.0
0.6287426147926989,385.24432955511475,202.0409108707762,-2195.6435228605055,0.039624007309279646,-44.892481017527956,-6.033850426327869,23.599571199217706,1735410031206.0
1.5290109290165055,10.817954305167916,712.3805818827336,-700.3118806962493,0.06720185234347953,-96.37054476108682,13.646832765750563,21.2926345244099,1735410031235.0
0.5025976145358614,417.4817453631516,40.63022283340456,-1002.165628638421,0.0661228553527173,-48.35400599272804,7.939145878945876,8.512501720650887,1735410031265.0
1.8781492672633306,-123.41795125657228,791.8651572871553,-1040.3003127178113,0.06126481371704544,-53.346975726352014,-0.2490204967192069,37.016023749843505,1735410031297.0
0.7785974728924114,1076.3092715302455,-153.24082782531764,-2247.794256441204,0.042992130713427945,-30.722845506652668,12.234744794753297,43.62150903097833,1735410031326.0
1.6978959240559939,-160.9719493432657,486.6923494177978,-999.7395629262544,0.048542775558404395,-83.26811121357474,-7.36556868019441,15.09655889689099,1735410031356.0
0.6065626826102346,158.82956236707912,59.65880347631864,-883.1885592328636,0.043465939478171636,-49.599035850353275,-2.4201903827525157,10.909644722519975,1735410031385.0
1.341847503757274,174.14150428276804,-265.9035630454896,343.72485679600027,0.06405086561387956,-45.56367775390398,10.16124207747865,33.02282617604048,1735410031416.0
1.2765852353986966,-4.796522763688898,268.9515060787468,-612.0898637944625,0.06604240574002063,30.157123789992596,17.295906313535944,46.126175857790614,1735410031445.0
0.5765782137368829,1980.8282690177891,-190.5616265710023,-1324.5030000761217,0.06977147544033922,-107.03131128700446,3.3035697905904087,15.493856950275191,1735410031475.0
1.1111538834501933,902.1038865241759,562.2055463533006,-321.33006048746904,0.07489179576402892,-36.601568163160024,-4.024783526620683,-1.0532188170618113,1735410031505.0
1.3105785952042912,-23.206662871606795,158.10131727391254,-2563.0178126489186,0.07556047827964604,-84.58431535123022,1.2977331924196704,10.469598786011758,1735410031535.0
1.2110187007456288,592.0936887184992,198.72165681452563,-824.0903800276583,0.053488845437764346,-63.40176870460613,15.752168602383016,10.03002284407567,1735410031535.0
