Acc_Betrag,Acc_X,Acc_Y,Acc_Z,Ori_Betrag,Ori_X,Ori_Y,Ori_Z,Timestamp
0.2995883595604202,-1056.0516966943255,1064.9489731290853,869.3559711910834,0.07985263015815308,-64.17223868217744,-10.22394097013164,-60.130874921215806,1735409993860.0
1.2750935269237644,-418.131073548076,1157.8913583976787,-79.67675275504992,0.08793856983386646,-79.97923426068563,-25.25594921007162,-27.66139256590231,1735409993886.0
1.3215685900987224,-675.4712847132803,165.14913201190143,356.6359441562802,0.08296328825639193,-40.83171892872482,-10.782755783490023,-87.65229911649263,1735409993946.0
1.450671030226364,-651.6570360374112,188.98895238896307,-1328.7222162860317,0.0639994547557859,-95.50065946424341,-11.772116096944076,-61.737749068591725,1735409993975.0
1.7475805348511861,-1538.58282950862,1024.501487132217,-661.3486995937419,0.07755764742926813,-53.50887424219596,-14.479548476672132,-69.19895301971985,1735409994005.0
0.8296181331422439,777.0676851410171,426.6903895923782,581.7607282940226,0.08035240597778827,-64.06737717880873,-2.1769159583232893,-65.6289059036144,1735409994066.0
1.262892222803874,-599.9319503099747,988.830186887297,-871.6386261243928,0.09480891251537907,-65.74911014720848,5.955215205905251,6.6381765890653455,1735409994095.0
1.0968679967032782,-361.52505589260534,889.967804775066,-396.4819471098215,0.0769779798411577,-64.40757219860714,-10.70610410087196,-67.23572488386196,1735409994125.0
0.916994883738952,-44.91367901271286,1246.1203478992509,94.60990412569814,0.06406636827935626,-22.143073287930466,-26.994438333705205,-21.856010876716738,1735409994186.0
0.4576850782309903,-247.92658780153397,229.63134636365373,-579.3199334881126,0.05299257735295901,-75.68724383654646,-9.635730268518966,6.296607762943957,1735409994215.0
0.7951548290615225,-557.8650717296448,1003.7936792278745,-594.1108823610945,0.04482279807649741,-45.22248689657615,-3.9721654750525053,-39.245605444568334,1735409994246.0
0.1471705618176511,518.172421777755,505.3207103122436,-430.8503261325416,0.08004885275005916,-37.06448518123268,-16.09987534732468,-12.738564477658253,1735409994306.0
0.6036964385251593,-848.0325359608393,1592.0025134494258,-304.20346460696817,0.0493014603621876,-71.51626058539192,-23.99417103661203,-63.298865297114716,1735409994335.0
1.8093399897564506,-812.2543846179547,83.32275033478402,657.7923749708567,0.035605404953225575,-64.06605151233643,-27.075294712730056,-32.03453644872721,1735409994364.0
0.2868324971087357,-773.3949931765368,1711.7059043556596,948.1039910126148,0.03542726933774196,-50.76346388189623,-20.454686436101138,-11.069622006731077,1735409994394.0
0.845854196294516,230.23081003732864,1046.190580873592,-1084.8380144047596,0.04533620634344407,-76.02113010468702,-18.436835855680858,9.626727269323478,1735409994425.0
0.3838172811193649,325.33281271553096,248.7543673468923,-385.59554298488956,0.04188769725860521,-41.3273122265208,-18.4686264948448,10.409347797009337,1735409994454.0
2.0049084587492265,-990.6328839293855,1202.7455844218293,672.0376313846882,0.07235925417467204,78.33975941378955,-2.468818678464361,3.718198355051743,1735409994484.0
0.7148697636629939,427.5646123547634,420.11621424141157,-1049.5490543137062,0.030066852657809708,51.278526621641525,-15.290128359128541,-48.383140201169375,1735409994514.0
0.6747497117217452,-139.51824488541126,991.8417357564417,-412.1088582667341,0.03879144789099172,54.040368118212974,-18.833706223473108,-19.93221709359818,1735409994544.0
0.5245582766409281,-456.62337506756245,348.0241893824064,-1321.870826760467,0.05642887178391504,43.57156494094584,0.8727866745939554,-26.380775743997884,1735409994574.0
-0.043777703569902376,-175.7641836201769,-87.09319717250582,-722.4528742281458,0.053204348466109094,65.34527632912298,13.693760424006545,-25.807927256884927,1735409994606.0
-0.3381382872307813,-184.5694036066515,663.3177332113708,-385.05105057531347,0.06113425972342107,53.741690361603865,-12.799842489824524,-42.32491659673519,1735409994635.0
0.08504853859791245,865.1497768252577,348.717185596059,1160.6227246373783,0.05766725393902031,35.05356292461081,-14.668517823714417,67.53063138115618,1735409994665.0
-0.13937794266594006,-146.4223248703654,211.2224100801266,-1337.7121438255572,0.023672061148262535,5.1313638576788385,-11.922326496605152,7.138152346614093,1735409994696.0
-0.16828036905675892,210.49036368746113,-225.07183490307688,597.0587795042609,0.02009716959044152,66.02680407563723,0.7254957421041244,-59.76183270897855,1735409994725.0
1.3676279902204,-410.3342162759973,-61.76256119162447,870.102398622081,0.06041029819305524,37.699811465373756,5.275762804095962,44.503157645834634,1735409994755.0
1.2106825947331274,198.46283015870975,299.218229166726,420.1303452657742,0.022299502269704456,49.14903533133039,-6.772286675163475,-1.8734830455787161,1735409994785.0
-0.8806566016910569,815.957909547702,130.6794997848989,-302.56032147796407,0.03424417737762804,70.61718489462271,-1.3599315517814476,-60.92059415617756,1735409994816.0
0.11373520029478351,504.24093670638166,-450.0787015225845,106.7379913246026,0.0798403787379856,-26.862174699784042,0.6106817640778788,-86.23165234247853,1735409994875.0
-0.2943005778965083,110.32814485792615,-674.7924190897222,-96.80773978992553,0.05931114399741036,0.06642594383527722,-11.30608638175288,-7.092001618896646,1735409994875.0
0.30505348744998295,-209.6216086122497,219.44648881053917,72.2797435686124,0.049717732195496946,30.35333607628401,9.620236513302327,-44.419060195586155,1735409994905.0
-0.7587580934213621,-579.0085033605693,-859.8865839840137,862.3927413275686,0.04250008898465041,-86.15567316975063,3.7416782707426544,-7.5129164535407655,1735409994935.0
-0.022830187219303077,1006.4194149704233,-69.48362699931808,-207.51137171451512,0.04025883206098673,-31.421366413928062,5.370287041579658,-6.180635855456499,1735409994964.0
-0.35367213233145367,-585.1989667040244,73.17089267746769,-913.5239055520008,0.036906893222663675,-14.945055939115946,4.339972635412029,34.39286675944393,1735409994996.0
-0.2039489646536406,198.27329909577503,80.48999686340318,-1346.5001292148565,0.04724977381333442,-42.93093100069881,-0.2917239991575098,-69.34613244362905,1735409995025.0
0.5921212310945405,-1168.8719664790453,15.380560040129112,567.9288957012976,0.05195404643171308,-92.15651310453995,10.724836558963972,3.9348691831660325,1735409995055.0
1.0242319833415445,-105.82331093520857,428.8347448513209,-1296.3124369132295,0.03394476268341991,-72.02183296279286,6.20707274371226,-8.668377359516635,1735409995086.0
0.007308154496903363,-685.7437088493836,-1026.1759351563755,340.72342509932275,0.07057803100617126,-47.93569414462907,13.284940531867877,-6.496618635692126,1735409995115.0
0.6217189909686606,-680.8796509177537,-1093.0116441924413,889.829337354134,0.06568681305694947,-57.116296519289634,20.954874428632117,94.13224051306456,1735409995145.0
0.6891036279378975,-127.93227995202852,-863.3148454604732,1068.0819666666089,0.05353079615312409,-50.88822466055083,2.86397840747928,-43.668540669278386,1735409995175.0
0.5627144234350241,-1007.5575590076076,-39.83996769927046,353.17788333032775,0.06563602249441036,15.25124295157216,2.851313304950556,31.821101628766616,1735409995205.0
0.5400115446014258,53.846180891500694,-163.13380424055467,22.243113540973866,0.024098072850490336,17.89160963060285,4.880772052582692,8.894383592511431,1735409995235.0
0.2425357777111019,755.4562634141932,588.7818987099998,2105.618261184646,0.03492193976295785,71.62702024981351,-17.704411062005217,57.90355193755455,1735409995265.0
1.4529774869097607,996.9462473121673,2041.034534025437,1593.1799210890147,0.06863654671365244,57.15785619838164,-3.6905375789108366,44.0272632972639,1735409995295.0
1.5641503088886821,1964.5300900608652,405.9905819037587,1398.558858107348,0.032523949857057116,-14.022852498291451,6.140512142749373,14.378754447168404,1735409995325.0
0.763737683798058,-89.67352084414324,1059.53973918006,-355.6078389501796,0.03386627326480126,-7.44790927479213,-2.6859703058472855,-21.503545750997667,1735409995355.0
0.3295803625600161,520.4440799440491,1264.2301530411082,-268.34542882562084,0.008247495109403553,25.504624678652153,-2.2492577444743285,68.69528422337011,1735409995385.0
1.0264588346464658,42.80658967845443,592.0283096964484,717.4100435848829,0.029220706535440236,-14.49293343001406,-4.578566330995324,58.22854205826803,1735409995416.0
0.5188826693351514,179.2246422433402,962.795166419813,1851.798911306676,0.0268197102608944,-12.60327912218814,12.864986228025613,64.84375046249171,1735409995446.0
1.175520850459262,962.4671459124332,1151.051687140824,1116.9739470037407,0.021170005740946424,0.5735103175100873,20.473536395574154,76.34282987617271,1735409995475.0
2.0722905609329594,237.20644349365807,856.1407089007795,-384.6281884789083,0.026271504197676106,-27.454236560761835,-2.5462615631185885,0.4974777161375812,1735409995505.0
1.686072773742624,65.44925119852758,147.29421413710753,51.184393973207705,0.04729221955846157,21.023317927758363,20.198871743211996,32.141847820315625,1735409995535.0
0.44848343475321273,970.029364749496,1205.8176543153731,760.6742414965261,0.04713524066131127,-34.922611299760995,10.226377889190967,66.84403279148813,1735409995565.0
2.2743519617824983,466.34762019701844,388.3789232301452,341.2931934726282,0.027897589844895685,-1.166109576090312,-3.0219816436482967,40.258241919025146,1735409995595.0
0.8718133360437469,181.47703746593925,-305.3570999647461,314.2432160976407,0.059366976243393405,3.540896877363437,16.722326010541998,32.09548018755362,1735409995625.0
1.1193470645087826,857.8178771748544,545.0051547141887,1505.8555911381134,0.024105581708637205,-55.87317644692461,7.0300933861553885,51.9103155767157,1735409995655.0
0.22688768199409615,527.2689028708896,643.0723205719073,289.7170090037192,0.03556512006082647,67.94205981219999,14.720206881101953,-5.111705698778746,1735409995685.0
0.31625155666920024,1360.3757769324934,-406.3017069444202,734.3771669416931,0.021547797073451013,-44.125019129681675,2.798778476581921,41.00140873992592,1735409995715.0
0.8008743401322226,446.82739593338704,1611.0789969364,1780.207707465198,-0.01709168655188806,-19.197152389907515,-14.353781955340606,-72.94885538668623,1735409995746.0
1.277502611257089,-405.5321511910288,1774.3304586493955,1557.3367232368387,0.03608023574766604,-55.10969047093047,-11.690266529261558,10.109221486714386,1735409995775.0
0.7174352761812615,508.82946195487625,875.9480137700837,1220.4759712520668,0.007638793325207036,-49.5048537605166,-1.2576904248015008,-28.871213056650255,1735409995805.0
1.2342386663475475,340.652903784407,-272.41013060310536,-862.6992726159046,0.02705897466111777,-40.07766945356857,-10.32049972358317,-0.27510165491622374,1735409995835.0
1.1709125407466865,705.437534912805,534.5885963297179,-691.8290254908999,0.01919406454452827,-41.40796262593109,1.539158832753137,-8.090865901644877,1735409995865.0
0.7446358360881378,469.04211769797297,1174.289142823327,-144.54150394748552,0.019609456714349778,-8.138628370847602,3.346156080253875,-11.102647096459178,1735409995896.0
0.05707491049046898,554.1051797683314,1015.6059560957708,453.5836292702878,0.01950790979843872,12.116710438021407,10.320438063194308,36.018447712483635,1735409995926.0
0.938250225155145,159.73756540666932,973.8747165363957,185.9337265124559,0.015902792712774852,-5.768508605244412,2.486470596344911,-12.051270797383502,1735409995926.0
1.6549571777504597,565.7580657864607,782.3837861248182,-159.7079030757045,0.024057264254435752,-12.7744130695644,-5.537354746159303,12.919589210363192,1735409995926.0
1.1796172880368312,980.0332173999191,944.2562370700717,-529.7085182800305,-0.007833249354520774,-28.80893955221807,4.047257545490372,-15.523890965023089,1735409995926.0
0.32622152676958327,352.87508688290006,-48.16860368179391,-96.61454699972234,0.026107155725256175,-26.19911610008186,4.784913111718848,11.500923212945455,1735409995926.0
