Acc_Betrag,Acc_X,Acc_Y,Acc_Z,Ori_Betrag,Ori_X,Ori_Y,Ori_Z,Timestamp
1.3363944261916143,373.52321696535233,1791.4978179062946,-64.28089712537898,0.021337023150302913,31.219665921536198,-1.5406350839259573,-43.925107298644036,1735404945104.0
0.7531833179707985,-29.148853718916257,1251.3249434530853,230.27410507112697,0.07246392306831131,-78.1290061209439,7.2335301173931565,-64.36473824148213,1735404945134.0
0.8332206084706577,482.86158697339266,1042.0244802051382,316.90436635536145,0.015674587653763415,14.40854930053289,3.4642543913882813,-36.82604995800675,1735404945163.0
-0.37533198239614074,22.480502227869323,1045.5077770502453,17.862179293254535,0.037056592744422724,-52.2705457682971,-0.9891069115555613,9.630664756313067,1735404945193.0
0.431933501586074,459.7888867628337,510.5448473730242,643.1695144272953,0.01251011219574569,-9.549035724795694,1.6321776573156992,-43.87511097227768,1735404945224.0
0.9292831228862694,436.1216242796648,1167.1878297338133,-259.1097584588549,0.02715192494897277,-83.71533775261477,0.8013584168167562,-76.9100220605565,1735404945253.0
0.5979385308280316,-957.8617819905846,1342.381044733957,806.946490682056,0.025113487366590904,-11.633369130658423,0.2958072065376729,-56.895115886131336,1735404945283.0
0.21940026632497212,321.46147246292395,1885.4749949905427,828.3125641832745,0.021714099779928917,-32.29902511520572,15.708837935091061,-50.50526704849203,1735404945312.0
0.83422465659061,-34.65534091669235,1306.653522064997,1002.5292299773653,0.046365823175136614,-26.87359591453859,13.498292492979287,15.401780987480315,1735404945344.0
0.5512950232161118,386.70192485057146,891.9098059602597,554.8447140347664,0.05687054725917788,-33.288025787710154,-18.082446083574972,7.17437624930956,1735404945373.0
1.1429588581960086,331.4465759894241,598.5821670086636,-1101.5709587361907,0.0232375604541932,-59.46349114417029,-8.771848889738962,-72.78468879442985,1735404945403.0
1.48906759819308,318.85124780519493,226.7347143350878,660.0514486709786,0.0664373342873716,-48.40394535601985,-9.065533165944714,-49.06186291059265,1735404945433.0
-0.2046919487890394,158.27051525805348,593.3258970796987,-1036.4885142883102,0.03244474566540971,-17.957251742886722,-0.40795070205587836,-24.744470793570073,1735404945463.0
0.521797826133664,-24.24720560431183,41.81583607421612,1076.997432375924,0.06544986219755028,-46.030766864083375,-0.2249776492257003,-33.623255579638816,1735404945493.0
0.3430567454843003,811.2059317371159,86.85979913295489,-1264.2245322080003,0.04800691602563256,-34.68148941299355,-1.153412700980434,35.219878653331634,1735404945525.0
1.113696542249278,693.5486223482521,1456.1401236902025,65.58463743806882,0.05399197963983869,-21.968155834557656,-0.2722671212997444,51.15450288982613,1735404945553.0
1.4259044148863564,-871.3453293978071,471.21903017425495,-960.6374684747641,0.06725410045872304,-83.44691022402247,-4.211512215103545,11.417860907029212,1735404945583.0
1.3696219864220116,1369.860862413793,875.3789677128898,-610.5475707865705,0.04516159805782694,31.013894899146557,-25.612586413466367,-63.4467201943922,1735404945613.0
0.6552681522107356,299.0635396209926,497.4508967842595,369.1572479137921,0.03746258532384373,-5.365543532851767,-8.74573162015467,-5.647517612076548,1735404945644.0
-0.48184646957196575,705.7062621295571,722.5359969471158,1598.379023913674,0.038260383679284554,-6.9044605116462865,7.8841984848283735,2.052091901701999,1735404945673.0
-0.411702919115426,-122.05239069275493,-169.0595814682943,51.041342134112654,0.024089995427591746,-22.803996634901324,-2.7777303691162487,8.582367272784404,1735404945703.0
0.9852776265073128,-650.8613231553766,230.22118154728835,-175.48905170387062,0.0017997787354745477,75.68222231831926,-6.362763151168918,26.86214114132236,1735404945733.0
-0.26147993695779126,159.84203273578916,-133.4819639141398,1362.4497385747852,0.04968799460779032,-23.929757649310336,1.4185159682904995,-36.7305058648451,1735404945763.0
1.06132666935945,874.9158061335286,153.47804937278616,-22.232304294967832,-0.00047542130547603353,-34.322550893971005,-20.84583745464191,4.390685857868455,1735404945793.0
0.29532478125110717,-589.9784648838322,-1274.6557511140738,496.92607094988307,0.014297203685180695,41.4393468359187,-4.231320434584187,-18.02477196207268,1735404945822.0
0.014037201963522213,27.258678772611418,482.8079066484363,332.47194644055776,0.02542096429534567,-19.6125555278309,-9.990959976466993,-31.688987744471756,1735404945853.0
-1.0512605399926225,-575.0888730502262,540.8541903299617,1556.1798501000337,0.05757994266323382,8.011687567179163,-9.919577815077702,60.57903440234746,1735404945883.0
0.4568541709772795,266.75569976496047,48.83309722164957,265.2064043290795,0.03328097481317145,33.899490380559136,-7.686293048351656,-79.58757337516045,1735404945913.0
0.6833654739372085,829.3140702752844,-249.656463616278,854.2305917918068,-0.016030798208598034,11.218633058846887,-19.527708890388954,-29.643484570864,1735404945943.0
0.5442188752601523,192.21706583952192,295.5286608343022,-839.5913340552436,0.00571549888316121,27.403548625841868,-15.701930496821642,-7.883710283285664,1735404945973.0
0.08000067716240845,-158.41834802688356,-27.15281289902603,100.19907807285954,0.04515662812194318,-27.35081677045413,-22.92764364140543,52.710420294144996,1735404946003.0
-1.0232287613611581,-198.86463948440976,-916.8695821739208,395.4319630132684,0.06675886150629862,-34.48604310854301,-23.864000488680123,-35.08353882431561,1735404946033.0
-0.2658429826252503,-451.79635688390977,94.23398341404628,-169.75387040197256,0.025623917520329366,-51.226800823833734,26.57918553579755,-9.757173781266793,1735404946063.0
0.8264871983211384,-215.2738596690046,-291.0581235103974,-1173.4347317898864,-0.00839608869035421,76.60977956528984,4.0320935486051654,9.025078432652851,1735404946094.0
0.7555160188134439,-859.5668296360357,786.0998647808019,-720.8514878234208,0.021331065117311424,31.444948051856763,-17.02527680047964,12.267194635071592,1735404946124.0
1.2135453557644857,-40.146932230302696,1919.175653564996,-561.8087194244964,0.056795288996845356,-11.332944613717022,-6.9050746295598024,26.990169525208405,1735404946154.0
1.0048863505799703,-2051.723315113188,-255.57106629073928,674.0777435653907,0.023991444490213266,44.875427391357306,-8.067510405306438,-56.74063659097152,1735404946183.0
0.08665032498573766,-1349.8475682814221,-309.74929795284834,-1166.854983924544,0.05537407743604514,7.6548098090893175,-17.830450836045785,-47.89945384577641,1735404946213.0
0.42774536816612274,-1064.2547932084653,-578.5809598021593,-184.66560861487284,0.032152866611484046,57.35756867452076,-12.523634081613707,-58.162884916858914,1735404946274.0
1.1634002477624572,-2063.2852048613872,874.4091249131435,1039.7601476064247,0.04407045719097061,51.67102411527715,-17.36164635449476,-101.36770161478157,1735404946274.0
1.2686349562462416,-349.2308378915176,665.9173195718139,260.7004642289657,0.03285478357604171,45.52521915184481,-4.083145401100653,-8.418476317722572,1735404946303.0
-0.0342752538441895,-539.1712247076357,-85.67791021480332,77.74893511558975,0.05348242031889977,-27.653056663241593,-0.06160850613784952,-43.29266305719834,1735404946333.0
0.34949189543264125,-699.5553775822646,254.4793688132364,-924.3096827068262,0.04884143465317671,8.366317268425398,-24.33060780335363,-3.4488251203866582,1735404946363.0
0.6443207954202617,-936.4006286473873,3.96130878930299,316.4221613121039,0.05284465032725877,14.902234392317515,-3.4133152272091154,-65.59003016332383,1735404946393.0
0.9749725197087509,-555.9221108219322,581.9796783968216,-233.4474844025537,0.030590493351901553,-5.600600695946852,-22.115594769465034,-84.43813160087176,1735404946423.0
0.1843071397766014,-255.15034209796033,-295.2945033574075,516.5871196304769,0.042918667273591775,67.8299502155491,-7.1727582907029515,-55.29644020655401,1735404946453.0
0.9118969173576678,-647.6182565519116,-431.1990815986952,-194.54247942205984,0.04232538499715435,48.8949970509955,-10.62699338046667,-18.069174596924963,1735404946483.0
0.4351586420004183,-942.3926236881489,1429.5521322514148,-1121.020949514001,0.028224169612217187,33.640174719200594,-27.372826913922047,-54.03868846870053,1735404946513.0
1.3341359103477741,-1302.2472506631952,-225.8570876257072,-1047.474128280502,0.013034779299017585,28.404809976671096,-20.262229092583315,-55.63183609679241,1735404946543.0
0.3808361200918664,-1009.7677638210027,-112.41550348132523,-1279.2389031447387,0.04041892565861951,0.6807296020916347,-14.71274514147487,-1.3502543990671398,1735404946574.0
1.469837090607137,-1518.57169465075,1009.0457325866588,2.1677214870727823,0.045596951658075646,28.972703777016207,-3.2828124471853357,-45.69418648635254,1735404946603.0
1.554104648166616,-616.5987218235944,467.2256820453824,-47.965911635771874,0.052190434878120105,39.29749672421548,-16.89997102045386,-15.584121450678879,1735404946633.0
0.3668450947023014,-1071.778203634368,54.423656734319565,-608.9572002709609,0.01810253085231813,6.949187684163046,-10.124309778426946,39.3273413087511,1735404946663.0
0.7882789160366104,-337.41806954234664,10.943694392644744,-1782.59275740224,0.06423607915605864,30.299002701468375,-16.02074053486752,-33.632726403796575,1735404946693.0
-0.06942672196744204,-907.4567323640221,130.65207799256564,-899.3127416239452,0.03564386569897873,54.182541464570164,-17.55003747017757,70.39980035263059,1735404946723.0
1.2936427982418974,60.051793065753145,558.0445787239815,-545.7144293752393,0.018820537698440158,60.80226833321946,2.5584768041050765,22.017369954527318,1735404946753.0
0.9617032804624902,-1229.8094882605628,89.309428722867,359.5780607073219,0.021393024758453658,-2.3003006324296607,-18.188869580655837,-27.334407079418924,1735404946783.0
0.8036170237161852,-368.2636150570212,-27.27708967094233,-154.31616976380667,0.020565673796271285,82.78062033490035,-24.207201653480986,37.182330698635035,1735404946813.0
1.4744163697521082,-842.5672307073966,-482.0126000916266,66.6412566647619,0.026787970034488844,9.444647649124292,-17.363524501877478,21.3930831312746,1735404946843.0
0.6476279454101026,-119.876627174909,-37.46389839736233,-2050.3874038034355,0.023010192105612913,34.474464670483115,-20.875647009125014,33.51834513161075,1735404946873.0
1.3807972252115408,-881.694394284642,-262.87783757030326,651.9275735823425,0.04788215000259826,-28.062268628998435,-8.682011886011667,21.265294878515462,1735404946903.0
1.3941260491673335,-1125.6070472955457,-221.15670078583918,-1274.1172940389988,0.05522943755736062,35.09736224357637,-42.82803135535028,81.60272206515432,1735404946933.0
1.1588559605878126,-1150.7099660529902,86.80721567623742,18.61061193504338,0.05864190189723509,18.20712268712528,-28.52693443233236,-15.495729908813757,1735404946963.0
0.7173215158125861,-674.3462983737062,75.40347642638564,-760.3298243939622,0.06568286920486381,44.55609731915246,-19.349013382544253,-54.148032058885875,1735404946992.0
1.7057337030701782,-1561.86660462401,-500.8234301308282,460.69056600299007,0.0650529741172407,56.459941341555854,-0.5482478921176153,-65.29840853677639,1735404947024.0
1.093542995719407,-658.234222756341,807.3730491635666,688.698393323504,0.044280452385275934,13.894861883654873,-30.55529957917105,-43.78600499349622,1735404947053.0
1.6130505020285786,-1353.4758718578962,-784.9800152193886,-307.275173619381,0.058757416511502236,16.505637785370542,-10.17208254707946,14.158896111291284,1735404947083.0
0.7700018473989677,-1498.015155547606,-110.07773375054774,50.38523981185915,0.0380566827505991,31.24927509102838,-20.88617567523534,-6.879903079512108,1735404947115.0
0.6274565739922525,-1106.8493013245964,417.9398913342193,369.34629313567586,0.07778802228417636,6.637280535150197,-7.983145515478332,14.762057993041175,1735404947144.0
0.8778234973966483,-1303.777105103689,633.1989805579433,41.7413996792385,0.039328616952596554,-27.614429441342583,-9.34759199048205,-31.567469120991348,1735404947144.0
