Acc_Betrag,Acc_X,Acc_Y,Acc_Z,Ori_Betrag,Ori_X,Ori_Y,Ori_Z,Timestamp
0.9941923101087824,-586.4966288339276,593.9720526668843,-695.3632524155554,0.046436249483566394,-74.98348667791521,-8.3518032103337,-42.32970622185893,1735409993860.0
1.2754695985777584,-448.27248866370087,839.7330136696412,463.5180658496023,0.05110157984596835,-57.71751923953637,-23.20763347022585,-31.73811045970877,1735409993886.0
1.3516503829481645,69.77797013640486,501.6871268241512,731.3555613121754,0.05764097628730013,-41.4125892597684,-13.331978679890664,-41.6680599685617,1735409993946.0
0.8424677411422663,-683.4001474843697,836.050067347275,-1438.8654719787685,0.08183410561974436,-2.9412182110182172,10.384151287570225,-18.70502837086879,1735409993975.0
-0.19978840416612198,-394.92191293448536,1725.7782013611968,-885.8200034273959,0.06632461543039367,-5.875201534558585,-9.139691487850444,-44.48432824229573,1735409994005.0
1.1062848251983377,-710.901265965146,945.5008000015226,676.1138468432546,0.07924182884346333,-15.90907001097468,-5.4571806405836405,-85.81483581623473,1735409994066.0
0.21235055087626675,548.2141054821001,1168.2713235925478,539.2157265612283,0.03041131303465618,-86.6676067639385,0.1165311129545632,-13.255371517814002,1735409994095.0
1.1322145585452779,-68.09828815009138,236.42098710005928,90.34652985113905,0.07536065005961162,-61.62852010305725,11.120612011723432,-33.66352720272914,1735409994125.0
0.9729699822371148,398.60087262623074,670.2590711453097,-1286.481048074944,0.021454920700396743,-51.22205762654617,-2.8113373250196734,-54.00956163185642,1735409994186.0
0.7275919279430028,447.29969944155016,1128.7333493168949,819.0898775613344,0.050636953164138604,-25.023464550433225,-5.378773698320081,-47.32856354453227,1735409994215.0
1.6822431681880297,-402.78752748503194,601.1394141378025,52.132762484304436,0.0632119473378969,-52.949728120785636,2.3375692340618706,-37.847618656831244,1735409994246.0
0.5123621672755185,-524.8016800699596,740.4767741326344,-327.7407160472549,0.04606862169766473,-25.50739687867516,-19.975307408469106,-69.78322394182858,1735409994306.0
1.188246357024868,-422.65221346817304,8.293125447007696,1057.989082837273,0.061026370766007344,-38.51893210065022,-26.776858517128325,-10.950200754870266,1735409994335.0
-0.03364330787448766,216.11230485440842,1629.3391877610034,378.73165050761946,0.046263983853856896,-26.951868582709242,2.0512779994729176,-15.650286228243907,1735409994364.0
1.2321776502358028,-813.6155069096205,886.3593451773414,-764.0438709327226,0.06185217907897241,-25.217251916428904,-26.6753754819116,-21.012101521971978,1735409994394.0
1.539110091618976,-582.8246146445376,1336.9702830146462,-363.33042382700813,0.031706499866732914,-34.80841976407603,-19.274772343148154,23.490283215164677,1735409994425.0
1.452815292082033,-871.1609871247548,1218.941387392756,-106.72241332875002,0.03316450044322655,-64.0400088482794,-3.8052850821883784,12.150976864343619,1735409994454.0
0.29909904874270943,-243.6939481138615,1117.4218839227556,336.24483307601685,0.04295295513615742,22.620045625869302,-12.820028349852816,12.157971602220059,1735409994484.0
0.5925871544450068,-116.38085808114522,698.3544185701753,-514.7052378203593,0.059221567058166,31.527563484780305,-6.229227538786936,16.68661106094489,1735409994514.0
1.3306585137558262,-301.01084420772924,1164.591643738104,110.53771253007557,0.03666209249034859,19.20416782472004,-2.4275738319397853,5.481544425339062,1735409994544.0
-0.6533187406963769,165.10553713038905,703.9165980779619,-134.767500776376,0.054411429032091105,49.18574904458208,1.9556262180630792,-9.92056208297683,1735409994574.0
0.030271366870402022,-452.3339195710127,246.63850107695876,-465.1698452950228,0.0412695188346373,39.30091346717616,-14.295793501365253,-48.829530975211526,1735409994606.0
0.889131591959691,-240.58390719330777,-140.92022398882176,-418.02239145739014,0.024398384942658682,8.46701929997785,-21.773457637484917,-134.68424563974543,1735409994635.0
0.3606525833198758,267.238958579277,-649.073054978815,297.69824804434313,0.0647139013700775,6.739508525639685,15.744151936045103,19.577799641748513,1735409994665.0
0.18194798568120982,460.04332785268645,14.68136165729104,-468.57795321151485,0.03127039690480337,41.390163917519715,-4.868389200170725,0.10961456286515858,1735409994696.0
0.005669687737033746,223.87796671942982,688.9876285613813,97.92838606983466,0.048434549636812395,59.27583981598454,-10.248191108259935,-79.16526438028234,1735409994725.0
-0.5091013618804487,111.56870060363879,344.5497388254063,18.18132928075829,0.051213359737159764,45.339030911110065,-11.538031098537294,10.72951563845984,1735409994755.0
0.1456883475040116,562.8658008002135,-894.8979779097739,97.64635631646482,0.04932649385717887,79.5651910376496,-7.945629565114096,15.370454971647401,1735409994785.0
0.30915855194751113,-784.6268402325625,173.119545941545,-1256.5818212940133,0.004120129408385541,-6.324124640610165,-21.21728703957359,-40.53780646195569,1735409994816.0
-0.13032253636546692,498.4815170682578,843.3565523347609,1128.8905928864538,0.06119706779754253,69.8941805841535,-13.626749912536035,-45.781504819349074,1735409994875.0
-0.1735007997755739,1182.2533776875955,30.651585611592882,1354.6537337519194,0.038362313469259175,92.4637202797264,-1.7871091458110406,61.95893827304885,1735409994875.0
0.48251073381852405,782.6123724848306,134.4106550757388,860.0838949852881,0.0693352051874042,13.642394542424881,-7.470074628222015,12.535209669730733,1735409994905.0
0.5511708167720658,-157.1119921368048,-558.2636898457927,-673.0405993722684,0.028614209214800217,-36.7909708028714,3.7372426558852365,35.09164205237331,1735409994935.0
0.11083744985797515,-1451.415590377906,-808.3051813744651,-1085.0250259252075,0.06824615502566386,-70.2343182366495,-13.538320733526067,-0.6557305883336575,1735409994964.0
-0.062323410559616155,-252.07893942590897,183.91170340069272,-1204.307807685702,0.04487703419385069,-36.07800291628971,10.036257666609146,5.958502876111627,1735409994996.0
0.6394021438383974,147.82571060843676,-93.37766358693678,-838.6844578552726,0.07540630566849454,-19.672491536404703,0.5679723532643939,-58.6788878713038,1735409995025.0
0.4595610792506362,235.6612715012027,-187.45146832457309,158.91452395843595,0.01750729849544383,9.027669490340749,10.40596911913399,-34.373586216623366,1735409995055.0
0.6297257267274465,-317.06161263109976,-611.834376404961,-1018.2755598286246,0.05860858073554064,-41.60323942025762,6.034784247950345,-14.256697297691318,1735409995086.0
0.12079550488953095,184.6111398062646,-788.7376990885258,-287.87674657580396,0.04735977336986033,-11.842607121285926,-1.8615739019538635,85.8469171621904,1735409995115.0
-0.20981017482452047,147.2368745436462,-729.2360734246755,-763.380388769461,0.06251931148176508,-61.2411091483242,0.5611326223131696,90.49566836832093,1735409995145.0
0.627891425286491,-535.1657412765169,-1085.9046448347244,510.25081822648474,0.05640935378886263,-63.28711944677085,-10.3110435479562,-24.595526931480546,1735409995175.0
1.3261011762063992,-316.12080486279484,326.92441653490835,-601.0781845129618,0.07338796250881999,61.26316194337272,5.441516042239406,55.25545826099852,1735409995205.0
1.4461711254014853,573.7132873374945,-149.95869918691565,934.7338177231638,0.07069701899284833,32.701988973266616,-23.23767537518075,43.68184192793533,1735409995235.0
1.4981282764028268,857.2676300948049,643.6967859644699,1111.4751938658042,0.04239269571936548,44.15804747688554,-1.7383364858358332,5.189221547427117,1735409995265.0
0.8026402526824149,473.03180048611796,-115.42325183460821,516.6128062097007,0.015126521499470219,65.61605877313255,11.832010064385582,35.28458907195604,1735409995295.0
0.7388331665300547,1321.4493310165499,737.9443183762114,112.26374066996118,0.025502952965181708,22.668788606093877,1.7456870093218937,46.87375738936444,1735409995325.0
1.151492278004566,477.4639447642331,1264.3254770713063,832.4684566867097,0.004010831708172312,-18.9055437459739,2.530619258799119,44.517521964428404,1735409995355.0
1.5355889711619977,843.1680838282723,-156.3563562400219,714.9756557540633,0.06845840007399756,-7.859142536059052,-10.771427953398927,-29.48902630579319,1735409995385.0
0.9656691651166627,556.8190646526509,1057.8073034354634,289.8171411134954,0.048455057062715995,5.833388653410852,5.850377222050102,32.188540780613295,1735409995416.0
1.177550005137113,713.9011647832759,281.7326461704117,42.52154828970521,0.02609172401683548,8.166432383044958,3.0483396005648684,5.547463024071906,1735409995446.0
1.4091198264469664,559.1981179169219,505.85118753403276,450.4697117805796,0.03684344421430084,-32.83322687035788,3.9962968167046773,47.79948094192746,1735409995475.0
1.4755856842412203,675.5765545931936,901.8041594061532,-118.23160542915588,0.030300821046664334,43.412932089491186,-5.866594284981725,18.60914201532362,1735409995505.0
1.0044206190915477,112.4556025879208,621.7694547933276,1010.6304234192536,0.013946733481903607,-29.84044749989325,10.752499896874971,45.31761903678982,1735409995535.0
0.4128070037529753,460.6031184007684,-141.82474512561748,527.5678973424623,-0.005779143923668947,-55.680024402597006,-12.644760892166069,-10.38613657399507,1735409995565.0
0.22884434987414948,859.4886296910687,-3.374569518095882,1348.151497161409,-0.00886324090760306,-35.05099395487127,-17.64685200980843,93.50683208019221,1735409995595.0
1.0357808573511604,-488.43481626212224,229.53557244414554,233.54435615413723,0.030790683448186452,-16.71342788131514,-1.9591584891202931,40.3409847028835,1735409995625.0
1.8482578481345995,-690.7150284819672,568.3191106358337,1075.5364340887932,0.008059097606936131,26.17868098170768,40.40583217667975,30.225152102596667,1735409995655.0
1.2138436637924095,1590.6306544965075,1472.817734522513,146.1456419291706,0.01956066685931248,-23.487045005982345,-3.1000967153012815,34.298625479925114,1735409995685.0
-0.038090028805818577,601.7887795661185,-337.9990812670643,-596.424631853935,0.015162837539866095,-13.259651679759694,1.8334082363577706,-5.416501859760029,1735409995715.0
1.3750471551161088,518.0500146522559,1652.9499117364267,2044.2016021525155,0.03163398097286534,1.4161401190790475,15.192656632200617,26.967674515486763,1735409995746.0
0.981646613699899,595.3103879413067,119.30110918853103,1016.9470180640047,-0.0034022422715839773,-2.4053834014679882,0.4821732959784819,-4.565180552215306,1735409995775.0
1.308251119267186,1075.1554907211998,604.5985387011042,-515.1266243752702,0.0212208227140434,-24.124227239517182,-0.25042777130238325,3.8735482530252003,1735409995805.0
0.7482655470332974,163.98495806613607,1.722547214393785,799.9048219582108,0.027872398453434415,8.124983137082621,-16.601460152283906,25.911067842012365,1735409995835.0
1.1999834056254928,369.47130067857483,-78.03995218021032,-542.9899072437736,0.02810540941926728,-38.8954112602224,-0.5690099320267348,-0.4466130909003887,1735409995865.0
0.8209589290256365,736.410460106644,870.4640117157146,242.7151262151749,0.027530512157258935,-61.78037246860822,-0.9214261415507139,-49.89281681823936,1735409995896.0
0.536912250096848,368.06936590239343,247.47632500751877,357.7196934812813,0.019029826052439792,-23.99381221289427,-0.8810299652383219,66.07240064257273,1735409995926.0
1.326281563874075,355.4975825851352,305.917009640282,-550.721940615615,0.007583285543115912,-60.38768557262539,-3.264205062597835,-7.83323309612366,1735409995926.0
0.605979915047114,1200.146022141354,1676.66482157693,76.57115263419252,0.009746662422291955,2.047732743661502,-8.722584307510758,49.15373979267868,1735409995926.0
0.7527046946190517,479.964270627106,-390.6753447519857,-388.9644839422406,0.04177857768877246,31.405853926244877,3.476260937710679,46.947460884030264,1735409995926.0
0.9662845537649655,754.169451063217,622.9244646669762,214.16999406306314,0.01197580629183358,-29.144873344886097,10.316581997772726,-2.6284454695303463,1735409995926.0
