Acc_Betrag,Acc_X,Acc_Y,Acc_Z,Ori_Betrag,Ori_X,Ori_Y,Ori_Z,Timestamp
1.0214663216054636,470.7058871029594,70.7968211959375,-575.6386875787869,0.0623358973354716,-55.11716816448721,7.904354025174583,-37.534689290372526,1735409653887.0
1.5928772524552515,472.6615695980312,305.2545388694916,-1073.4471345259697,0.060776922713489966,-59.08890868406982,-0.33572173209780987,-3.9447281743963334,1735409653917.0
1.593914296055651,206.69838430811404,-2.521657341207394,-978.7637847737681,0.025121635501016863,-29.78413304757545,21.013976176164494,8.449689260216058,1735409653947.0
1.043151680126987,658.8540443238445,71.38307389228326,551.0929038999759,0.04059652727499573,-81.29067637448021,20.481268906979913,3.2694916989150506,1735409653977.0
1.004311402830373,-115.76227724671196,366.7513897627254,-1242.5668063268388,0.07814498222548633,29.507234769629342,14.657194282587936,-43.423878563231355,1735409654007.0
0.4230278715770337,1253.3524968935162,630.605975174164,-1428.4983316052362,0.06038485297491471,31.96912870829164,29.31891062495479,44.55831923100038,1735409654037.0
0.8908110749351916,858.048046656804,-701.3559732016561,-2474.6345043526785,0.057390874102532505,-30.751252609183247,-2.6976862331068734,23.967628662442486,1735409654067.0
1.9288172191500603,2072.3421025183006,497.23026821012354,-845.6559108772684,0.0529861140613162,15.829599674583505,-6.952956901982318,67.16523207301614,1735409654097.0
1.822620758981136,1155.0562564039474,64.71219541879054,-268.9578934239581,0.03948378238776643,-28.306609338435326,-12.600415604849886,44.49125602731501,1735409654127.0
1.1757989455491056,896.3408847459816,137.46850146935043,-2208.841424920788,0.045774475851121606,-3.1056097998652916,2.7201468862450238,-9.817999385515641,1735409654157.0
1.639790190338938,1846.0368089232352,-617.5411912211453,1029.6657890072283,0.06562558348696065,-54.1220965985995,20.86833161340575,-25.29196490865899,1735409654186.0
0.6579415935192855,1048.7966967398672,-741.6272495053579,-1112.0813087360227,0.05528202285399539,-64.13160592665972,40.28961053371153,3.688324079831183,1735409654218.0
2.1460787408761197,1628.8220654156532,-323.5339589095051,-816.8517735607832,0.05257718052616755,52.45298464410148,10.302476773365669,38.68663342324854,1735409654248.0
2.1856396272629084,1984.719669132257,-276.88642689799775,-2360.068709181721,0.039758049273408966,3.6850567617722323,-2.7135879207620537,-12.251747693766163,1735409654278.0
1.4674680345225415,1148.770030909719,-465.775853103931,-431.35600634436275,0.028997004340226548,51.69132823136671,-13.776171454627555,58.58058091953558,1735409654308.0
0.9314349860772814,-585.636635408596,283.28665120119405,-426.3522882552478,0.05302490127996719,12.557200649370966,-16.24424829628599,-11.448386917356444,1735409654338.0
0.5637463503054829,166.24581317965743,34.748327233850745,-578.4722605451685,0.03774835887553833,-7.150868194544908,-27.01685262158484,-9.644709181904062,1735409654367.0
0.33839128235680793,60.648150892144464,335.519401712089,487.7869493781979,0.026248306897704705,-40.44779189624242,-7.918942877945215,-55.7627909666452,1735409654397.0
0.41745770161088336,587.5020976714015,-639.2537772593647,-417.73501763501747,0.0340463758113943,-10.624756759647042,-7.623572359648888,-13.93144001634378,1735409654427.0
-0.5416329296861688,121.88495227339133,-817.3100140571398,-1122.7182780702196,0.005299628576275171,7.9785717846084765,-1.9191290304836093,-44.360816743669545,1735409654458.0
0.027773359264347226,128.63856456435565,92.28982128892773,603.0725270744268,0.030262064791907434,-12.495179606958311,33.67387990539434,-25.622247567732806,1735409654488.0
2.7270430487337616,-2058.6114452447005,1709.0933848451414,-1240.3365686277434,0.01906953303111412,68.14868684467734,28.58458041166237,-2.8575972550907407,1735409654518.0
3.0748193079788053,-2958.488399553703,2663.220941352801,-1566.4970404897254,0.05027848551377528,59.47924630433319,4.831724695978235,-3.6623572791902017,1735409654548.0
2.631774544412335,-1859.6938484538434,1589.2872943543073,-1102.6467449541547,0.034573394562373856,14.33491217739956,-0.2598398817103914,-12.195757858190962,1735409654578.0
2.26436025651513,-871.7615439062772,2275.30155520705,-1570.9401349671496,0.016305961856301062,-42.29178070383762,9.6596668605215,20.036382810654672,1735409654608.0
0.7298581834938236,-562.9065663972134,276.3598340131982,-861.7847531861024,0.003947788504024332,-28.05118782467811,9.639620561730828,-70.89035158481629,1735409654638.0
0.5711812755515284,424.1063744629242,472.6769301716836,-863.9253828967102,0.05310057935547908,-46.32314071364085,-28.649754094413105,-30.46889749265803,1735409654668.0
0.13527441596126139,-504.09738574299575,614.5819677274246,388.2516184581698,0.04565491503920644,-57.37745266426578,-20.082299191761322,-36.14062505312844,1735409654697.0
3.368560841283641,1844.7515553824362,1883.5339095987306,-753.2410801408703,0.01708276582114531,-21.83949415422539,1.4137979400068943,-40.12826028805137,1735409654728.0
3.1159135752610854,1370.1352425409511,1351.7248374703358,-1683.739973003538,0.018041379876848618,-10.45203179511902,-11.835133418774063,-50.37731929219008,1735409654757.0
2.9089621895256985,2327.754084342002,2966.256819248377,-2193.518983292116,0.038449076732015065,-1.6670427121011606,-10.799096859157455,31.487429931304337,1735409654787.0
0.6782316171664657,117.53740096335005,1016.63364727291,-1099.0859937296425,0.029169327373665746,-15.802935208415356,-29.1741852842274,50.16618523541609,1735409654819.0
1.4167177926309042,-328.0927619574711,12.411889805775019,-3135.362954930943,0.05788129279888753,-57.614758288247884,-9.807853815439362,21.97571616273132,1735409654848.0
0.21096827329264412,98.58559429430369,1201.8112120311575,-1800.0100914916256,0.045318374711816066,-18.57031902042725,-11.405346925984084,29.098380922073268,1735409654879.0
1.104450777416663,-1781.1000026720264,595.7689567049507,474.5555387317877,0.05754561274955264,26.03405147193058,-7.8533281656806135,-0.21403315322426408,1735409654908.0
0.8943835565260964,-376.58018889891434,622.7892620040461,-952.513796512261,0.04913867223569446,-33.04008063257286,-12.92494592460315,76.28703235185762,1735409654937.0
1.167751473014161,882.5438342055843,-1066.3487462221915,77.19264816722375,0.07099924866735297,-7.227512127878953,-4.3118013827008,-5.994357772897324,1735409654998.0
0.8925619271926326,336.48071576873156,788.2136663299448,107.17049334941726,0.0677205535898443,-81.08151780863686,6.2195618445638345,36.65742567109129,1735409655028.0
1.2180474561409387,801.4132363457934,250.29760837341928,-1918.67126011794,0.05326224006808693,-16.51267090871302,-9.804709602071291,23.958384681433113,1735409655057.0
1.102614706753173,-751.8660662279224,-256.0605689618492,-1240.2940894349185,0.05088445428775315,-52.308411252380274,9.305335184859754,-18.110430482206084,1735409655088.0
0.24820166708730618,-31.772833152427097,-34.207254952857625,-899.4445615397182,0.07546774918027764,-76.26209386571767,5.699452744664164,78.09360709912889,1735409655118.0
0.26462318266247786,518.0798708719327,790.6271157335696,-920.8061610176383,0.07631058833974894,-48.60161163020175,4.251971089923278,82.92086238305531,1735409655148.0
0.5838555536824095,-116.96588271013854,302.6050877061214,-652.7545111033667,0.06767203177013847,-76.02725996300614,-16.171465437377407,-77.42010221364595,1735409655178.0
0.925265540897179,1227.698767799445,309.7965382616335,-1152.2326137751445,0.06190845172823473,-61.321845329006784,-4.643240349728327,-57.27951012110525,1735409655207.0
1.7929563059391898,-243.25713423077434,143.81538911349597,-1335.3919172864994,0.06153317652466674,-62.80408496860466,-5.186952335576209,-83.74412206073113,1735409655238.0
1.0102710713242786,-178.404333656711,-114.82828251608754,-287.6737679839091,0.07081591259376106,-65.35089993666995,0.09576104479949965,-69.0968329206163,1735409655268.0
1.2265795067261762,20.26769838145634,610.3424014192746,-1821.0990705462232,0.07608057927570006,-45.89652165755235,6.04936928976056,-106.35213464295902,1735409655298.0
1.3411435749126253,187.20386732953125,580.3824861070565,-1148.7567141023226,0.04442187701986955,-36.18970384211158,3.7125930605515958,-33.66785171121098,1735409655327.0
0.3123076106223477,-168.97944991201342,1374.422943150123,-476.4242598134988,0.08084658833436816,-36.11457791980996,-8.08971313705726,-60.39129186429552,1735409655357.0
0.8055959262824242,129.59389739537923,-55.64148559833029,-1567.8084849123707,0.058058294588029406,-84.87548693461862,19.331936298258462,-25.43443864258026,1735409655387.0
1.7449048065609547,-280.41440630365685,29.95499843379224,-799.2805044120756,0.06375196996731544,-56.11678271251416,9.993892453363541,-69.42364430906356,1735409655417.0
0.492675007373346,860.9135014889881,785.4549030283877,-1692.4131889488579,0.04367820052768237,-58.01005144236103,-10.819689183664373,-27.438207993570238,1735409655448.0
1.2238866864140174,503.61920065320527,476.15521201385974,-178.95890969411812,0.05878828751456468,-47.12350172725079,-6.757156013888889,0.16693708959566678,1735409655478.0
1.452402335044343,365.4910621880946,-46.4603142739918,-433.27165920540847,0.06162704580290675,-11.08991468049544,3.566728483560029,-27.434696781192276,1735409655507.0
1.4330665397313038,421.74723498832304,-134.8824722611298,314.84394545175496,0.03772698997935589,-36.723249153161625,-6.6082131192455,-53.30703676908462,1735409655537.0
0.6033355111057546,-87.71894880907536,677.7716615281104,-475.42357657002293,0.084463345699401,-97.02744844296885,19.60177912666379,12.457114588365314,1735409655567.0
1.4410641805897038,-32.720442183289606,145.72498971229646,-1621.871577266727,0.04349211477270151,-45.17154098558759,0.873423943655955,-41.27003145110442,1735409655597.0
1.4591066600831293,528.7602458994685,114.70956662274443,-1708.0813157229977,0.06104100623689397,0.6146639588535479,25.2751589716148,-35.41720785521729,1735409655628.0
0.5038303326770834,214.25629918016753,942.6428927356184,-584.892990076437,0.02808193033491401,-74.31065345037675,-0.2794085875377261,-1.4768206921399205,1735409655657.0
1.5128090814253423,-579.1826619577357,185.61413705335156,-499.799556369027,0.03876469419854835,-93.4378247870298,9.362513082133102,-12.775805500692556,1735409655687.0
0.38053119957612613,-340.5664982226001,-257.2195555791418,-1324.0653382107614,0.05395009203652393,-3.0453498272033173,8.998511038626472,19.05893110701126,1735409655718.0
1.289496579240435,-271.3420421166785,-443.28946579349804,-1525.1392421972164,0.03141495421143503,-73.02631191222594,-5.43947694862465,-55.03951219464889,1735409655747.0
0.15712416300641185,315.52714143857924,186.0428921097561,-968.8091677663858,0.02246556487896977,-78.31292489735857,2.752797244229222,-26.601553172619568,1735409655776.0
2.2303355670515357,-257.330230194058,530.6357654039887,-1008.0224988090558,0.04022836555461951,-74.748430296641,30.15962067562834,-26.898066244275523,1735409655806.0
0.8283916653751273,838.2667868634784,546.521845497258,-541.4803495498713,0.04742019268749326,4.421067150782328,18.240956245684963,-1.5188155667771408,1735409655837.0
1.056385771114709,73.75271237262962,-341.97925574976693,-903.1348001929694,0.03048824113365505,-24.42253839769423,-12.578246602456694,-14.891608107148144,1735409655866.0
0.9799750040719207,905.1632824935384,143.89917506087076,-1222.8357088433127,0.05607923409478734,-50.91255951317734,8.71527230925082,-19.200954635862733,1735409655897.0
0.49548351681975444,-214.41776668559993,690.2304162802373,-1648.768995202142,0.04105929392851846,-22.868743148865025,11.55950612716417,-38.95552023125006,1735409655927.0
0.5174906763941094,-7.076915950582929,445.85442801145973,-974.7529557785292,0.03694074400925731,-82.91447809826207,5.586545789737376,-21.459154542517595,1735409655927.0
1.2634196172142917,484.8118120085736,487.45561333448217,-390.2804300539576,0.043812485457027234,-48.150920200077394,4.4669606767514285,-25.989327808482347,1735409655927.0
