Acc_Betrag,Acc_X,Acc_Y,Acc_Z,Ori_Betrag,Ori_X,Ori_Y,Ori_Z,Timestamp
0.8669995171569991,-933.6952515862187,1346.4542685626873,486.3682250591851,0.0412938522284161,-35.25402775572528,-14.599064007892625,19.922094958076126,1735404972643.0
1.5700728037141676,-761.0456861541818,745.8525212500059,-369.91607956448684,0.04916809305972372,10.63064069551433,-23.79686336331044,-6.012076567902623,1735404972673.0
1.2337416489694089,299.9516266091025,1004.723177171762,203.9308352891493,0.025242434474604482,9.180354109304641,-18.629770802184876,15.877933764353525,1735404972703.0
0.9941477484741914,-183.03103273420052,473.55087310357885,-263.99484713844856,0.03264339777038796,-15.708687114805187,-22.939192922326818,33.95895784775365,1735404972733.0
0.6679545738674668,266.8480778646335,619.9041341234141,-1118.2412430635313,-0.017879401934707086,-3.9479311178750294,-9.53012531763119,4.496393055397768,1735404972763.0
0.85607916069033,229.95340694330582,1297.2162587115172,-48.08883145680733,0.03185818103920634,-38.330039698821295,-9.668308323974586,28.936156435322168,1735404972795.0
0.8445015446187212,190.97549993735674,96.30257723675413,-695.5922387136458,0.004593715411070121,-9.18567837927404,-22.406075928921922,29.14678607769916,1735404972824.0
0.294037203724585,114.85033538361371,962.5159085559642,150.16332908533934,0.03553506543083142,-41.825083303940175,-30.650128828840526,-18.379153078488102,1735404972854.0
1.1960288339656533,150.5334602297435,693.9457299360499,-1709.4496548423895,0.03870298440781193,-52.48928951791635,-21.92722564132957,13.58218400919288,1735404972884.0
1.2315224547228147,459.59197432539776,1945.231259580331,483.05691685323256,0.03203049821077322,-23.50485071382998,-18.241807035307318,-4.905169998363872,1735404972914.0
1.7715538302648963,115.51585518900528,914.9162612035061,-21.117291327590465,0.043036636005564885,-39.85832923478639,-20.98701075828994,-7.9508593795708435,1735404972944.0
2.1790371704282094,531.5901620636267,1087.376862808905,561.4124820376353,0.005179160478822359,-17.378725600313683,-23.71080449905603,9.288747910004979,1735404972973.0
1.3311408369584945,66.3626204938594,1317.4589699135443,-346.94532685131236,-0.006944809550069694,23.915303833768903,-10.410638994543103,-50.53071210350589,1735404973003.0
2.1156655298165563,294.6168708572233,1964.8417358151883,1033.3291230167672,0.0016213246473000265,-15.385172212976428,-12.57043712350048,-22.579539627965133,1735404973033.0
2.7604107325250857,-268.50418163961695,1666.136106401925,1093.410967349719,0.046384173035335284,15.036155302215477,-22.028669928220413,-81.67639953187434,1735404973093.0
1.695111655684295,631.8531192923444,1926.9788585772571,1203.9720170071578,0.044393036473559744,-71.64660547630189,-20.540153124931237,-17.758277021271375,1735404973094.0
-0.1315533369800409,-405.4295722440198,7.414145521277459,-698.112677736286,0.0749631832138351,-59.25227973276603,-3.968667975428355,53.53892559431395,1735404973123.0
-0.14678741047522986,838.7942414732546,-208.99977051487014,-1013.3924984898075,0.07760523016539371,-90.26218611087208,-7.368060266909961,71.09073990625039,1735404973153.0
-0.5908263708415996,-69.79151755087798,-248.04348537753202,-476.00683791932335,0.054644975408799035,-71.14106664879768,-14.759343359176913,-18.612585985767094,1735404973184.0
0.14003558400385896,-21.16149569364947,310.1660253031431,673.0422022216759,0.013195266860826359,-53.74723021612251,-16.968819661725036,-45.28828915695442,1735404973215.0
0.47942329521337196,-216.5522099988043,-267.67468400620385,1612.2069060505803,0.049062151967536355,-20.64598476342813,-27.357736986844973,27.486970014236046,1735404973244.0
0.1574411094508598,-36.671964728180015,570.7069709737513,2107.1471369078863,0.03818931585631484,-88.64003413886002,-14.91210223838829,-40.14626550535886,1735404973274.0
0.8334196580050832,-515.0368651248637,495.4923034845996,-450.6169054726931,0.05382077642109017,0.9213505434743894,-21.285726192652305,-17.04410939391923,1735404973304.0
0.16895956187690342,-814.4486148354802,121.87017276642764,-674.4968115790456,0.04397811506101201,-53.89847070897693,-6.077468366786822,-1.1937900335973026,1735404973334.0
0.1577030359722505,269.4210808874247,452.90011330679255,-748.3096333882659,0.0749381848203101,-60.52760703411918,2.828706786914468,-60.103972932536415,1735404973364.0
0.9004286677257837,229.42374345814844,-150.15318159519288,-442.5606638094108,0.05253609663277369,-53.990831117294675,-9.664571761736461,-38.599535117268864,1735404973395.0
-0.6374351070349701,-600.6847436394038,176.92561288623233,-223.3674746780116,0.024603060984899252,-10.01373537322607,3.234452012953728,5.655571551962937,1735404973424.0
0.7431913627668183,-371.23036771589295,-457.155021703583,97.50580682632938,0.05546739147457757,-37.06543559388996,-14.778213757327977,51.132486594916195,1735404973453.0
0.8774512448119004,-137.68283596045103,-154.7605876469652,-287.1823871386092,0.060928687043740104,-54.41283309887682,-15.834989092223207,-17.670136057163056,1735404973482.0
2.5829330229879255,-773.69436956455,-746.9558640436898,1766.0677137347363,0.029206696018432746,-2.3331742640792186,-19.50270982219843,-42.920728518691426,1735404973514.0
2.8736886386403717,-484.72658985031484,-16.371984847390422,2056.3439008760624,0.04188853349768972,29.42796353664326,-26.954093852541817,44.084736841198094,1735404973544.0
1.422504689104565,177.32273762783404,-1439.1662554026489,2505.658798443664,0.02876211576037433,-33.72894191057813,-27.528045982123295,-0.2765948057805998,1735404973573.0
1.6740620927930698,-759.2886960872847,-1138.1228075355984,1241.790482464416,0.0439445631150113,-51.531837642293304,-6.919622960731523,-24.616977459266977,1735404973604.0
-0.5348910316833124,-519.4439691218663,-860.6854202891628,-1726.9593442094636,0.025337796928607922,14.167066448637108,-26.91322298843539,-8.829153251390554,1735404973634.0
-0.012089265497028934,-665.278484536592,-46.34687884585793,-14.094800239855317,0.014617358414640905,-42.709076829509655,-10.281848675514656,16.043769022414256,1735404973664.0
0.17582108670905122,481.13093628883706,576.9484545186696,434.4086689649405,0.047969506333268665,-25.413290835017822,-12.012588249322565,4.104191632263335,1735404973694.0
0.8004223184348964,-239.31724187769007,1055.6233493118948,-273.70037495525116,0.0494307168757018,-41.16768245302954,-20.315570494808433,-2.4649435016798025,1735404973724.0
1.7805198849588173,-319.9362416256653,-804.318704242061,-149.94610101589547,-0.0136643217832128,-25.667262571519288,-29.204536103753533,-70.92316358211745,1735404973754.0
1.843780630347649,-701.6573031121791,180.08176240419687,658.0230996049004,0.010820255223699757,-9.544568689849113,-0.8660985566425232,33.94107623986906,1735404973784.0
1.7978866514358351,-217.99451091893144,-1381.0798038942032,317.85972273680716,0.001916575790303172,1.0177034575178823,-2.715413259873295,2.1937650620063573,1735404973814.0
1.2802235505415913,-410.33458986309313,-370.23515196476336,802.9117291491317,0.006798248836517874,22.86249882658371,17.59859764840673,12.342090861423554,1735404973844.0
1.5162908270303603,-1223.3773837371352,-181.52105952762747,1100.734849404262,-0.0020809981352982853,25.500663357364026,-5.158180912178938,42.597960268905695,1735404973874.0
1.0766223346595254,-90.68405886153387,-1804.3528839406233,923.9020759544362,-0.00465380702905221,-3.973436747231333,-1.881057267714484,-2.9401304336672327,1735404973904.0
0.6033809807760449,576.2133693882705,-70.1303328641335,-5.71036018372115,-0.0050631115737682815,-56.53342173493029,-2.413913945089053,-78.66322765174164,1735404973934.0
0.7497916715530426,-155.4612715821888,889.8407857286124,446.34391737376774,-0.005851699098744063,-22.00658619284252,1.9748995180454203,28.195413974942536,1735404973995.0
1.5348757318461297,-273.7910826650664,256.30255817356596,896.8674244377268,-0.001107165209813167,-2.783728860918105,4.098258580272069,30.131121758002294,1735404973996.0
1.530097491770968,-215.7351457382774,-522.0777085803562,1843.7595353390714,-0.038051887152596886,-51.50201021743434,1.8703242101761213,-101.10752997568174,1735404974024.0
0.042607955961148636,112.99604990003832,-528.7146793032805,1119.4521278616248,0.01187212698808985,-35.911425927121144,16.994436431889493,-36.546469676242104,1735404974054.0
0.3361395859101136,-550.6649991011641,-157.38122317390042,1080.4602228036829,-0.0038778185785506465,-24.981047484120516,-20.880923977289534,-21.49420606466356,1735404974084.0
1.2889588399929317,-406.5737583236843,514.0034070183351,-625.2172488338963,0.02432338280165504,-43.79347817080529,1.6788368241371394,-8.46260548477468,1735404974114.0
1.115200591600268,-198.7228009704226,-396.4511481500744,884.4426035500478,0.026685150956594555,6.728939923880677,8.41452615572982,-1.6523991002694478,1735404974144.0
0.8614414166149864,127.30053394566767,-455.6968183334936,519.4725244145638,-0.005819715968288364,54.33220616477674,7.464516680536533,-22.03133051383007,1735404974174.0
1.542302276022884,-157.310079813159,12.364324544603601,1217.430978345695,0.011385313015878588,-50.24504219703732,-9.680965430023832,-43.19230781835438,1735404974204.0
1.7324674742284465,-139.24742624803454,67.86438994250676,965.751884175229,0.00466571999815319,-6.577142075987879,-10.072013320866258,-3.8019921149628564,1735404974233.0
2.004680630820003,139.74347997267176,96.40243335470355,600.0888638343272,0.0010966491566410837,-18.342835585327826,17.565015006639868,-4.393161553035233,1735404974264.0
1.1935854304166906,-268.021663077122,-789.3294394315783,425.96956212790053,0.008117179912373963,14.76626856149177,13.090402014886715,16.31818854934847,1735404974293.0
0.40799727427096244,-191.5061685929422,-227.71818421211162,1789.4770615178707,-0.022029534059044047,42.55736553312108,-1.30295297397406,25.695821156487735,1735404974324.0
0.49855782918358515,75.09657906358638,-184.59085356662766,1482.1747186938467,0.021802315734271563,-40.684232682323355,23.21272440630343,5.306552959039386,1735404974354.0
0.639391621796852,-302.317879673809,-66.34030604929528,309.09516892421993,0.01256573427193045,-15.435662270804874,15.393672472269191,-33.202709107814464,1735404974384.0
0.1097345415918225,71.18883002012706,-422.5328817436899,2430.4918085451945,0.00482425076680952,28.47890695219001,5.850900581010424,-7.085010992623501,1735404974414.0
1.2891374444754224,471.56475366575546,53.84927961441612,744.7000007752118,-0.0027714888831009456,-48.7391827642821,17.439270070482028,4.410642207094488,1735404974444.0
0.22653480961749273,-926.7615949230743,453.811667018734,966.0179146745811,0.0026918809634477233,-51.551289857350724,0.7802393598216941,-14.63961229823643,1735404974474.0
1.2255257865672915,252.11057545127585,7.890045073912198,967.347086287522,0.01650738266076986,-11.35010813758727,0.34748007614528476,6.404182019121944,1735404974504.0
0.7214825782431968,-221.06195156418173,1170.6727684127763,642.0763509261631,0.02079800264247698,17.81289207306978,0.2241564246228993,4.402072702264863,1735404974534.0
0.7924737952379511,303.614815494517,-102.54895372504812,199.75230037646054,0.024260971116085998,-14.910821822487977,12.006564650397383,-37.75905023541002,1735404974564.0
-0.052099614811518924,352.1744901135386,-490.7728697954512,943.2203451878889,0.006449176962849753,13.106622053662003,1.3814796339585378,-52.26392194914016,1735404974594.0
1.3396673346009622,-855.230139278831,-705.1675764965111,1462.8059940960404,0.03316862103423006,-23.88558635403626,24.117122303997338,13.313202376302709,1735404974624.0
1.5716464100786496,101.82048089501018,-7.7641680051820146,1014.116889392765,0.03297868765717572,-33.589405915719674,-3.331581564776755,14.602467216931284,1735404974655.0
1.516205443249433,-437.226211640658,96.20635827502802,117.5313190440063,0.010579682860170886,-13.937744251681687,2.300612980874843,30.062790843656956,1735404974684.0
0.9685129018512996,-265.064651479815,121.2689753214143,1093.7301043728917,0.011575367463284225,-26.187103905400413,-3.060039122579175,16.439871571709944,1735404974684.0
