Acc_Betrag,Acc_X,Acc_Y,Acc_Z,Ori_Betrag,Ori_X,Ori_Y,Ori_Z,Timestamp
1.0357903602174392,-895.8567308830743,-497.03226363428814,-119.98425185557255,0.028145517880367708,42.20667575380606,-15.254334117404708,-41.25522872833314,1735409630067.0
1.3314462585312272,-946.7422340482349,583.1164415305145,-611.8139462077977,0.05027608717355371,38.51095445562999,1.2865094053815573,-8.644791577879019,1735409630097.0
1.6289195432044885,-1332.8625589550338,597.4650201513455,-1523.2128966892046,0.05904252380045116,78.57495876696936,11.270712870682942,-67.12395710782418,1735409630126.0
0.5451843602644817,-1028.0924580725068,-389.3699870149561,1250.7822650591377,0.044723416868090345,26.493366157259402,-10.401732118491095,6.389356904499241,1735409630156.0
0.7572999981357611,-824.4976006694885,233.63672622995637,-185.97421190307648,0.058133894531418276,32.84837492798133,-13.77433163073239,-44.704376015075454,1735409630186.0
1.4036265464780429,-918.5870170205054,942.2541832619912,-1653.1284257954899,0.04447080260130623,63.286342336755006,12.271441160957757,-16.62180974772815,1735409630216.0
0.6496398736675677,-868.4405959410611,-18.694976273471525,-934.7365484279478,0.05239137313671861,68.2790789311226,-0.0484581765607448,-16.99389413216246,1735409630246.0
1.8686052502187567,-416.8605547709077,338.32670413366515,-697.0054634117303,0.03452653364830652,51.635423171972434,-8.720151448796159,-17.54831794601887,1735409630276.0
0.664715420270182,-774.4014170739141,457.73270886762845,-854.6463906199222,0.06952483088362227,39.88876209758338,-1.301539259156172,-18.69585544585108,1735409630306.0
0.3276130999135367,-518.1741074263484,931.6759488698223,-1075.7588031256337,0.04459388148713274,1.5760982134946104,1.5208564124189432,23.948810862752666,1735409630336.0
1.5647001413271755,-165.47359971517625,204.11568025247578,-2270.2067988411177,0.05214231880841948,-69.81037133424603,3.1892024464933364,-30.056941203964094,1735409630366.0
0.6714143851918613,-1403.3408278739917,947.7560289361872,248.21657752729845,0.041854473442859086,6.083908950304011,-4.273732787069147,11.629017934902244,1735409630396.0
0.9276031515436176,-185.71158181105807,-476.69529396504106,-834.9565595607922,0.00988608273095987,32.889275957320706,-21.028043299936726,9.507490399965453,1735409630426.0
1.2553923839819137,-525.8781310027334,1144.2844511509888,-1137.3607330959792,0.016392765783364894,61.12402675127696,-27.145327770546402,-9.853183382741712,1735409630456.0
0.7880060186910641,-1546.10114431493,227.35969556554733,482.5572239900679,0.04673276363213883,54.92310426385565,-13.344306209204117,4.935097157131313,1735409630486.0
-0.3475429469322935,-229.2207480405906,198.68837113535147,-501.4580556747359,0.06146404791376889,139.74084548921715,-23.372980522967612,-23.899061120742964,1735409630516.0
1.2045891764921055,988.676228838333,123.06924169822045,-620.6258761357393,0.05220429406987648,84.52531469198135,-12.74257143802626,30.69098835234648,1735409630546.0
0.4508971205610978,-67.4284622331692,-523.0233672155714,213.23835734022668,0.03978697112058979,33.153395130511825,-7.1299869721473925,-15.479646534923061,1735409630576.0
0.24250652893698543,-587.8758123203203,-930.5753398785038,-589.113423578663,0.05204849738207837,-25.146044344523304,-4.210518377539633,-25.784914628855226,1735409630606.0
-0.22641322252357965,-14.463079306291846,-360.096775307244,-724.69131875911,0.06317890296064532,-27.92016794532624,-11.098159066986579,65.60733729916173,1735409630636.0
0.350031793794653,-94.50065005444691,-469.6380379149743,96.16681443830814,0.0643423576567678,-25.249718117373565,-13.662786674688203,66.59689031257105,1735409630667.0
-0.015619598255900119,952.3498990690185,233.60618880048597,479.46961960859153,0.04144482443431111,-68.54040293576367,-10.46458172416025,-26.464349100883975,1735409630697.0
0.5074683639307013,-151.91832885785104,281.89764792877975,-799.2649145222834,0.022671272532428653,-7.323098166642133,3.8112018085786152,8.862413637903492,1735409630727.0
0.07050232057193287,-791.7943328613969,385.76733426496594,-1645.4823380803502,0.06898963924892948,-20.972266509883106,-8.50999559045509,22.072527131836626,1735409630758.0
0.2956589330076966,636.8713812992861,205.41622017591044,-113.0265925884577,0.011468281589002566,-21.419250582261327,2.6897435235173237,-17.371184383602106,1735409630787.0
-0.1475293247441979,606.959475714453,790.827354584566,731.9631461090157,0.058224803858572184,-40.222355977755285,2.4354734465111143,-78.61619678292392,1735409630817.0
0.2110512140970207,-111.9751584519127,544.2426264620024,-579.5809798737338,0.04228456022030793,-55.02970667196345,-25.856789328410578,19.758106351818746,1735409630847.0
-0.015644038979229835,1041.0247809124517,-397.454103551962,782.6141743659409,0.05432415957518034,-54.839874525017336,-21.10259136217208,79.58413951496277,1735409630877.0
0.0846730892664796,303.0108875587082,-462.3000696273318,-443.8493228671139,0.03768746838384822,-7.723850409016551,-12.196250686797573,-34.124733403788774,1735409630907.0
-0.14651487691274878,584.1598677966679,-72.44527326200836,-1415.7424702083724,0.041189971771659256,-59.88073436030411,0.6580350689934349,41.88339178077887,1735409630937.0
0.412660199769675,-29.314567887773364,1518.617129674384,-546.8016139388901,0.052734843791501305,19.49231254102438,-7.244947180831694,6.802130461442449,1735409630967.0
2.173401318296332,101.31240542209966,-361.8612220586561,2046.7254809678934,0.03401415902254856,-73.38583079841098,-19.274085957802146,36.11552279521581,1735409630998.0
1.5478429001588743,-218.04165024484502,-1294.0924306289273,2850.154353161459,0.056801717508707016,42.12493848298262,-12.25398464293454,-57.50887990516489,1735409631028.0
1.2591537864154336,399.3732843103162,-120.59450323936261,1110.6137503981051,0.029513479787281038,-46.11243219600525,1.1526295861617752,-82.55026821558704,1735409631058.0
1.5508115346029012,-342.4687989806778,95.64444676058031,875.8918011966824,0.0342718804075092,6.643662841120955,-16.545819432571733,34.56970336640006,1735409631088.0
2.238321122923953,-1322.5148504884055,-167.67158027236172,684.1402292850628,0.05698982185459352,-28.103349578313807,-2.034551738335943,21.87884405604383,1735409631117.0
1.3218755431865705,-794.3144944940439,560.8730718230863,1994.1262755141638,0.008943809061519153,-0.08656292700216106,0.9196057482566315,26.41652004888208,1735409631146.0
1.2932117239859018,540.6018493633156,207.5068124124067,14.245801178752231,0.01575479309791581,-0.46745217890692103,-4.372499960535603,11.14128733065774,1735409631177.0
0.6891571814693763,318.5804981358689,-697.2279440416131,1525.5000345476224,0.007909982371640919,49.31499544460459,3.058138251406176,-18.31565364850038,1735409631207.0
1.4860837014456894,-620.156616094906,-422.75401469548694,-360.49746044231597,0.005208071357109325,10.14270418101457,16.75932158114085,24.000096713733598,1735409631237.0
1.2452579705847766,455.3840231563546,-393.86370782462745,605.0528373545847,0.030915262532510705,-30.28934382169682,11.546419202429714,-3.305447735824856,1735409631267.0
1.7225983680132226,342.0857636523428,296.2053538681415,71.24437114143609,0.04987900888550665,37.89563007588372,-15.930762950838043,4.642766250923067,1735409631297.0
0.86670373714433,613.6187073503191,596.9870740096193,1638.007368334332,0.03841007913437183,17.111251948283506,1.9568592813569838,-52.260642349920545,1735409631328.0
1.712939486126166,-285.55640143313406,-29.337690591675795,828.1766484454268,0.037071813167029545,-14.478055260253287,-11.062158973187458,-30.102832614472632,1735409631356.0
0.9306365790842505,-781.3614275294802,-7.513952347494751,1227.0140582918134,0.0226180525327908,-1.967519479215678,11.360458896688627,-38.590773224064975,1735409631387.0
0.976985267358812,-423.3771325850691,-845.7642983094443,994.1719765095635,0.039455979364929276,15.120612175680996,5.494610214063275,-38.04098133325245,1735409631417.0
-0.18045042984728932,1009.8107446688027,-292.05510388060156,-94.34625893166913,0.01811993599676369,42.91641626204536,-4.266570511882389,-80.67554203515631,1735409631447.0
0.08789101571055069,-337.4853745045986,-658.6193629398688,681.9471773726912,0.05436169685420264,77.16900664027403,-13.525269894369316,-7.8239736809429274,1735409631477.0
0.7340343605885404,593.2565719366933,-208.4252260452574,1111.0362805910947,0.04012837904424636,-38.65353235875593,-13.849620037192809,4.37463417645516,1735409631507.0
1.5777631037457998,-115.39658117369653,-159.98987458854418,978.3234185150822,0.019301772304727252,-39.88448657632586,-11.262253740260604,-81.34864659945202,1735409631537.0
1.034712008880667,269.5677831095066,-221.44843626406617,673.3896157528466,0.026344116611251852,-4.639925803606299,-6.082658718070532,-33.97925525246643,1735409631567.0
-0.10475619311476991,-515.2779024793117,363.30514618269973,-478.6718656105661,0.05102059427261619,9.17299601479505,-10.490664483221803,23.963940056770014,1735409631597.0
0.8431473401746733,-657.5307615072552,161.523319090715,1564.042831896717,0.06112653356466461,-3.134211274880712,-11.723617375279343,-70.53577009321818,1735409631627.0
0.3230871711783996,223.92021931202697,446.2956698043354,347.6678093162499,0.03402918859594088,29.144371313555688,-1.1341375015131572,-52.658080530557385,1735409631656.0
0.3979094167870977,-784.5130536645436,-216.27635557461267,371.4919991026781,0.05382811834234342,-3.4259417712667455,6.8402099501872495,-79.29957362422896,1735409631687.0
1.4004872372918964,216.4681319246459,-1144.904693244345,1590.8427032895906,0.0600795276509142,31.222614342014847,-7.90857338578545,68.28930271069726,1735409631718.0
0.7791177072317386,-203.5967456919763,-792.9234572993712,1528.7707150146093,0.051666935845813604,56.458090344890614,-3.1104979825628885,38.514437057791085,1735409631747.0
-0.5568715102531481,-162.1675413375738,-627.1665993209743,1562.2053314928273,0.05704257666943753,-25.547874731333014,-3.269770737255573,20.185777751570853,1735409631777.0
1.1251041623239664,26.214485059832413,-771.8772887164789,1159.0117414837982,0.03796350344594535,14.775088684302267,2.027411649576333,42.80580463265678,1735409631807.0
1.4661625717778355,194.3827065004663,-238.0508699395045,821.4312888505474,0.03389585830714824,-25.490144871353973,-10.06732824572357,42.62702165053811,1735409631836.0
0.5879775253305776,-275.6083168077722,-813.2485226963146,831.0125258110293,0.0457506523436271,-7.639836163798217,-9.002342100498911,34.3350443373461,1735409631866.0
1.1107295622480933,-1020.6760828536354,-393.30372775482783,1920.1983008031825,0.045790895568836726,21.752591657043517,-10.16838850014826,12.589404001713731,1735409631897.0
1.0948722622073175,608.3501887864267,-412.0136618898176,2291.1029476517306,0.03135044723208155,29.300915915138873,-12.048715177653841,63.18454950129548,1735409631958.0
0.5821488489199872,-25.400118854723928,-66.98260001295279,1403.0964810784287,0.04513171831083521,1.7431088005691957,-9.402462926051799,73.18819153323129,1735409631959.0
0.11381493022774736,321.5052715208654,-484.49477210772545,1773.3796240600275,0.03448956086252926,87.39063205950256,-15.980221901316188,44.67773930671974,1735409631988.0
0.15433955430854363,-945.4545023948809,-209.73034179043447,1474.7056481184904,0.04599168608721996,26.01105918160792,-3.8170147869752906,0.32703737333034155,1735409632017.0
1.113636552910065,316.7747224693752,-1101.8584251788257,-143.01632005653641,0.02307867402008531,8.999748770353467,7.609425101812607,14.036818363892035,1735409632048.0
1.1927232147076945,260.3068176727231,-338.63134287469865,971.7610578221454,0.037527274860646775,17.560049213142534,-23.28168561425723,-20.843303248412287,1735409632078.0
0.20669001584958346,-143.14274995686895,-658.8725780754146,1854.3512708298863,0.017221170292224496,-26.605684847763875,-2.062546103653106,16.188224005936256,1735409632106.0
-0.08752285011219119,13.41651852717095,-227.84501943165517,306.5581786324965,0.01760692163642557,5.988045546786502,-11.856191847894358,27.556526693588467,1735409632106.0
