Acc_Betrag,Acc_X,Acc_Y,Acc_Z,Ori_Betrag,Ori_X,Ori_Y,Ori_Z,Timestamp
1.7600787865168714,1419.3971876157907,313.5886438026491,1009.4865728932493,0.02524982837111074,9.072025614384273,6.832301226395193,35.54101348311768,1735409818712.0
1.1688552987874226,1132.5497370457883,380.0099618475389,375.0175468144308,0.02622038192143538,-19.603982674157038,-21.26283646910722,-26.05831982217116,1735409818741.0
1.2921523547280824,672.7239746260202,180.68535382114655,1057.3895832010633,0.020137241249902623,-15.032752028090583,3.7190112893401635,-31.387761958404838,1735409818772.0
0.5498678236562866,522.3070062466562,453.7940872180278,47.118256884079415,0.023758719964262397,-36.61556048510795,-10.524878059425784,6.812208687762997,1735409818802.0
0.5055000746048068,754.5090437023813,822.4839915357289,370.63662966915956,-0.009509354504461985,-42.68072620837066,2.420333051885887,-5.345324363344354,1735409818831.0
0.5885000684952795,761.6660630811306,379.55200249334337,-175.42409132828664,0.04743960496623247,-44.25931841888331,-4.848390866758544,-14.123778181692398,1735409818861.0
1.1009302420953166,431.32389721235864,547.4499528297142,796.9476741556123,0.015564444321806647,41.5842717254177,-0.8199786786513643,31.799740646810832,1735409818891.0
0.7193741981150689,778.7974752908615,225.79000887615155,1546.3438113670704,-0.012693954355316606,-30.957388925154177,2.4604086382617214,-9.2697169539669,1735409818921.0
0.9436860230378007,912.0766800405696,850.1065077942122,-437.38434889213204,-0.018338939623728418,-17.526329566990462,-10.704572375133962,2.217559400797794,1735409818950.0
0.5327786912816252,535.2675099220932,802.0573546797777,529.6497556657407,0.005457781307448764,-7.912839900718061,-8.110946679675877,3.023250400219502,1735409818982.0
0.8959884499152461,394.51845888191116,-1.7584696505746251,982.1613117128289,0.013276200077231456,-40.879407626908105,-9.260775167257673,-30.088165667052355,1735409819011.0
1.3368349516375166,421.04716606938024,575.1341185909383,345.8131632921612,0.022238477847693998,-28.927855163490236,-4.783331482908532,23.756914249413665,1735409819042.0
1.3878232263745138,242.86882123120733,-107.02310304096193,1157.1739309178697,0.0088665880750684,-57.0698599036284,-1.543171984333442,-66.7876651493176,1735409819072.0
0.8526744765284181,1145.697112239838,297.8966355369197,-534.1918905929681,0.030406056479988085,-24.687270252028316,-11.34182730887456,-31.27766495615939,1735409819102.0
0.9775497654029969,-329.5351288800437,579.1459262838255,-1396.0390258292991,0.0449548762889369,-26.177085965635058,-17.312627374122595,-36.2491469267228,1735409819132.0
0.5014836185459842,-89.33416407714878,413.4800222890372,-977.7965022056644,0.015417036893186624,11.596498570896863,-19.643022767994438,25.078511281759535,1735409819162.0
-0.2998985917829713,-167.9294665377691,74.98387944155797,502.6126771383345,0.006163895785695743,-17.303662817223255,-10.711777495088276,-94.54151775605062,1735409819191.0
0.20997524680989993,269.09824419832626,612.1038257227318,108.43122192286435,0.06697553046214288,24.186260286869143,9.237381443308564,-53.44295651633227,1735409819222.0
1.4132058854183225,30.270691721801516,-455.0392061039902,-818.752328677407,0.031998083768312854,-39.65187390129421,-1.4585822637774788,78.81435069813567,1735409819252.0
-0.2474980833732192,104.61008707852697,-222.1718671612657,-141.76727193121886,-0.012150654091684096,-17.946489791751798,22.055380736817902,-30.98358640276053,1735409819281.0
0.282275189550926,-648.1794409185158,-81.50282145473159,889.9814206962677,0.035524122328359,38.12825224455396,-5.320803806136601,-34.65438369052073,1735409819311.0
-0.0627653962700907,-902.9645423572273,9.532332599726644,-506.2658854151186,0.03424610793443388,-47.167919602146256,-6.325429084276884,8.267549143368889,1735409819342.0
-0.13362186787001512,-511.10222556841416,-747.1509740037079,-499.7247117220615,0.038349966230365844,17.167861227916312,10.898191336286626,28.977089658321457,1735409819371.0
0.4269593660334567,563.5787990039782,255.72609810619772,-1.6476235961318952,0.043396003780430834,45.961611887359545,0.2601334942931057,-45.51308939075011,1735409819402.0
1.325308319517756,154.24140582715214,792.673013522707,1635.3125602279201,0.04326088932138374,23.897791259164777,8.493101354883109,27.64750253461941,1735409819430.0
2.5108987275059746,-158.92412230195407,162.7622849974332,1465.7037504414434,0.01573019074575142,1.8034993960421843,-4.64209790333765,-48.28608119359703,1735409819461.0
0.9468407435146733,600.7354324225898,658.0514019737965,443.51956099264453,0.006120277231754024,-69.17139673531156,-1.9973461556739713,-32.702558778961816,1735409819492.0
3.561425848573111,1968.656609606774,-2956.2005513380727,2552.5430663361317,0.0463008051131188,-26.064143459470557,-11.32231907045216,-3.879289529846808,1735409819522.0
2.989352957543458,2278.7686241391716,-2300.9586700735795,2192.547694530237,0.07974332507408992,33.44195260209372,-22.810253989556863,51.35032337452643,1735409819551.0
3.0510825381537905,2724.6523147100097,-2435.3392016244316,2782.8883259536588,0.0318348650414072,-21.263039694615518,4.735518850841489,16.051933638763657,1735409819581.0
1.6190576789766349,87.24673337235214,-573.016122091647,-122.07100575616914,0.033518173646328094,-20.950200256470378,-4.410171607435187,33.64525498395072,1735409819611.0
1.7259999552075578,-450.2300893297706,-233.2849334159592,1468.3680758551081,0.018176419316829256,-20.832259022855602,13.956158470818226,37.10386200205872,1735409819641.0
1.3674082236696998,470.70965950326797,709.0350438868812,2139.2643388903016,0.032820283422958625,-17.082202136379838,25.038241481645343,8.364893920209475,1735409819671.0
1.9146568669660113,-486.51708306778585,-846.0879528812206,1384.962397487995,-0.001091075336042753,-5.226399695823125,1.1792174543427207,5.553278440292225,1735409819702.0
1.5257578337930717,170.57512497459197,-1163.1394037617558,1370.3190740623031,0.011805478487982121,-30.434625634502776,19.043273465326983,27.244671442905126,1735409819731.0
1.901466880509302,-57.333305369097076,-619.3682391376592,-306.88643000285697,0.017020319084426312,-4.598823323304774,7.62018189780664,48.12508688850953,1735409819761.0
2.178906320761101,298.84050424437385,-692.4465874020394,1750.4458444720099,0.03476478159452456,-58.29656789327146,-13.402903087559457,13.896315617385383,1735409819792.0
0.1344604744504253,843.002226301553,-131.7876965471906,475.6093074366455,0.02513113181302259,13.395304116843452,1.9667987889288097,71.60320599054121,1735409819822.0
1.09549550606026,-624.6064216376878,-475.60516750169813,1577.5740046038586,0.049533529479287616,2.8966826750138086,0.6308191505645974,-30.351322839319725,1735409819852.0
0.830833900560801,132.65486342365153,-778.8242763586817,2002.2683912472753,0.04644633982799434,32.19202946778934,0.09661035068372992,0.8963596440096246,1735409819882.0
1.2392559517249866,-239.9126995537226,-394.7772829778985,12.902275728642962,-0.003284888272272468,-38.241563300302616,-0.1732756523439849,55.928266108955086,1735409819912.0
1.5519616732448875,-188.79333793047053,-297.05095684305957,1001.4839981575583,-0.006308816808688455,3.4387227858888996,5.248087569050228,-6.681239293582004,1735409819942.0
1.3123427274155213,-191.13027187941228,-604.4889287988391,669.3887157963181,0.011865648263719913,-15.51800000003841,8.968793407120291,-25.33412815811221,1735409819972.0
1.4284211762356724,-279.7007095594512,-921.6076259734059,623.2243291500129,0.020569809157553964,16.095298786393265,7.769417734556104,-86.36532853976708,1735409820002.0
1.171861580988319,-197.6458687689643,-744.3413299313553,1660.4539062099539,0.0061003033414380545,-38.587120117110814,-13.835604539675277,26.605660934536317,1735409820032.0
-0.43441224436855985,-799.9495013436268,836.8802288694064,730.1584610879289,0.029550448207228984,25.464701872798756,11.298377785199607,2.715776059200277,1735409820062.0
1.6586405989923128,481.45755789328166,364.11195885870666,2163.6455264537994,-0.00812788851656818,30.665975302376786,-11.443876452319543,29.9867641310082,1735409820092.0
0.6327945719149314,43.74570654677723,62.47638232052128,1524.22458531075,-0.0156676414044567,19.36526751624177,-2.373556329670846,-27.84610172569328,1735409820122.0
0.6115357769065829,900.9819109810907,-605.6421971849879,2852.5475920649333,0.01767194552599479,47.48328799364702,6.712847459157304,4.3848686254282025,1735409820151.0
0.890317285256385,542.2168472052543,-768.8218174715538,1995.9599990163756,0.0024567131352069248,4.878128418343936,-9.413296432888416,-47.28961057684848,1735409820180.0
1.5710938934758074,-184.35081386385704,-1115.41768912116,1091.7668792438483,0.014126655487633179,-7.7653226363109,-5.766492729518291,-7.247573960111152,1735409820212.0
0.48961287946276344,23.56154458520531,-369.15874441104756,1567.657372739964,0.007300565222407438,-7.61136585819046,-0.43499787570827,-33.74935454962505,1735409820242.0
1.8673992958095633,-103.55122237459858,530.4455362822512,576.3529589109214,0.026302672480736953,28.54204035256591,0.9008843519139491,-22.215191609520573,1735409820272.0
0.4944731875151265,981.5505837675705,-89.05058523664803,211.5277891763592,0.048027736580572515,-33.46859878834638,-6.331025044995046,14.112711517846707,1735409820301.0
1.0404448654952756,1.0132060524881439,-1146.7319252120208,1892.3533655471374,0.02050347909787645,-15.683850762569447,-3.91277247117696,5.57669319725078,1735409820332.0
0.5640418233989741,429.31898526438306,-857.8284615394914,1333.9594707159538,0.027394009828188792,-11.251875778312135,-10.100037382348969,-63.65419509955205,1735409820362.0
1.4426209078972534,9.221187379027214,-284.88004647504175,1145.0945284795039,0.05563578194423461,0.16604462759308936,-1.3703087896594126,-15.183745958544318,1735409820392.0
0.2968789323693424,767.3367543636288,-344.11937818079065,1063.4112923690798,0.03848033134993014,24.898698334493893,-22.001988500020467,-53.025396350230174,1735409820421.0
1.1342133194823367,-370.62151567153154,-50.29334389460311,329.72029894100706,0.020805199076899258,60.16299542373409,1.2250595358773033,-11.775196847229054,1735409820452.0
0.9546096208547845,797.574692142765,-531.3701760430386,2131.8249478032335,0.02257388407727775,-12.875718420661096,-2.8461451313055766,-18.97885019621355,1735409820482.0
1.121063008302471,-898.1751294096227,-28.47437388173779,2311.9460123434073,0.03619815656732631,-15.156737236571873,-15.444601041604667,-19.266928484473148,1735409820511.0
1.310703745571721,-197.53421025208058,-367.94070142988164,670.4504742486159,0.03199918166940818,12.41512272370814,3.256144256203,-39.470415215359786,1735409820542.0
0.6757633050694284,-284.92135515988065,-349.10172534073047,1196.665734686127,0.023967096512702145,30.948570029982815,7.9850442148586565,-22.54237112073412,1735409820571.0
-0.366637129337833,-58.77327266693867,-728.6770877970202,1135.1503601648305,0.015553504374033989,9.576337590239635,-28.164683034308215,-14.086571330737558,1735409820602.0
1.0727847628343097,-137.27882882304857,23.213611128101377,534.1197646820376,0.03803890228286477,38.03799213586311,5.582771149756566,-7.847032465390395,1735409820631.0
0.967822889880461,28.458218517163345,-420.976667697322,756.1267812543459,0.026569833450813464,7.170742650520049,-2.341628884257528,-50.54935009926905,1735409820661.0
1.9880361460815368,311.210693761724,257.65750460175445,1336.68153465725,0.029838435386890794,-5.985525154566621,-6.451770994360797,-21.1591592408409,1735409820690.0
0.7815390617776692,83.77336319469734,150.19252601869533,912.5194957378767,0.03732782480438537,-3.8304451343627686,-15.346164751106107,-58.55951503432269,1735409820722.0
1.0267703064760954,-853.3014454787805,-853.0619464838903,1223.1260327528985,0.008719701860557844,-3.6977648121439004,18.176253917103107,20.994553266417824,1735409820752.0
1.7731772071544147,37.202087262730515,-267.02895115940623,182.60774297092757,0.04697289093354935,46.79519168745329,-6.936677027612376,2.7603027205578883,1735409820752.0
