Acc_Betrag,Acc_X,Acc_Y,Acc_Z,Ori_Betrag,Ori_X,Ori_Y,Ori_Z,Timestamp
0.7264177468561064,-1183.225365327011,-441.80177058193703,-175.27406358290284,0.05418585207984909,19.855199540020607,3.819337569757195,19.31898214494522,1735409694480.0
1.7649103587963846,-751.7621993648573,-413.62426249177736,111.9181943596829,0.062283805588805724,91.20917176459514,2.6558915364823457,52.35653667020755,1735409694509.0
1.2107653479000222,-888.6708188397836,-477.3889348889831,-592.4936553496989,0.06603032734244635,45.593700346676684,2.9235155483954975,126.6146375178672,1735409694539.0
0.9875204106668184,-1934.083437505923,-870.1083932738127,-993.0622433992647,0.08310120954540481,109.92927440200398,-5.5658559893594495,31.94412312290101,1735409694569.0
0.779817433870782,-1361.4815452752423,138.16516297416348,-318.49961047858073,0.05333989779329014,61.89893790270523,-13.095052836800953,-22.855263559980596,1735409694599.0
1.1256413408989832,-1116.6948844682868,167.8892901808272,-952.7977702509821,0.04927850804367731,108.2369723516635,-0.959697803860653,-27.866076360159667,1735409694628.0
0.30850878231717127,-266.1515144208604,-102.95536358322698,359.5957965659934,0.07767255485716289,16.782028301353073,11.440271324177239,-41.36332453798894,1735409694658.0
0.9240685530787932,-1346.6193908697214,-962.5647918690311,363.945576087984,0.034551094763619686,39.94028986734908,-3.904254169033942,-24.981207357905397,1735409694719.0
1.375602708923761,-871.1186218996176,-622.0102733292026,-621.301831699832,0.04955481654349169,53.57900661421508,16.03587933729664,-78.0977762699844,1735409694748.0
1.6234780419681687,-1682.7032260890244,-411.622289332239,-196.36406983238436,0.04905452557299939,49.04899012796309,-0.062335310346000705,-28.835780374379073,1735409694779.0
2.221302028166618,-2200.9515290806985,-775.6818680259398,-482.3732723707786,0.05274405475351885,6.431974082204313,15.494018919899482,27.171282279720703,1735409694838.0
1.2488516980201674,-1365.4062860714869,720.7132038624867,-724.9087038079253,0.04926535675058842,-77.70851775579622,13.014211967180124,18.25963902889233,1735409694869.0
1.2695507561173658,-1851.428917177785,-669.231510305072,-1748.7893704407397,0.022287144071015053,-61.02395619853895,-32.12089174390485,-22.61884392193092,1735409694899.0
1.4190187517432404,97.71155264860295,474.3371916495448,215.15733116836174,0.059233412141144165,-34.03894853819031,-10.539794443738238,67.96883165102568,1735409694928.0
-0.17921449466904826,210.47883365568336,490.92035789601846,633.8971091853343,0.05193080189252849,-1.333781696445925,9.522120255713881,68.14818936964134,1735409694958.0
0.9963093317334999,-238.07555297875234,-775.5493548120954,-155.79404224708105,0.06838696865633061,-71.72335699793507,-1.167882094461954,-7.057921816623576,1735409694988.0
0.8818523824182023,-161.8537482378693,-709.8962947694077,276.6789039495696,0.0586245045428128,-115.78754881407019,-3.108146844730858,6.7319118529626385,1735409695019.0
1.328077590055923,-583.322416448429,-270.10705790466614,-244.52625826260177,0.055049321394688974,-63.83974720150839,12.022281014054386,61.5869133944517,1735409695048.0
-0.45446755100317754,-350.64485325893304,-89.1555848434695,486.8580573158014,0.030335603930714272,-6.127437415105323,-3.6667964712568395,-37.70884335151433,1735409695079.0
-0.1040749792005225,867.2759636359688,86.19570169112427,-880.9194305462739,-0.00036388976801644823,-14.685188975083154,-7.905486561308585,-37.32598983923961,1735409695108.0
-0.5810160738575691,116.21427536001895,-800.8061715407277,-437.3320939903537,0.04792500451343212,-7.137552528130975,7.085794888129557,16.924814293886197,1735409695138.0
0.6388695294166961,1793.4599867346435,-216.81496233780578,800.0679964575733,0.056262877190309576,-77.82191963165315,2.6870503278038997,42.95045666290716,1735409695168.0
-0.35666544610541395,-76.43333065910326,229.90888225362283,-931.0596919608518,0.03019552023617718,-24.4466504862394,-4.511123219418411,-52.790110221946435,1735409695198.0
0.01765722111381146,629.7611518226695,459.69861884556997,-313.34299017759463,0.0695475709891097,2.1008267976896207,20.189148866154742,19.93763135838478,1735409695228.0
0.9037818436843852,-125.6699128241575,-372.27196347409017,-599.1641804861837,0.041023998711379996,-64.61621786849943,-6.977145902254943,-26.65475806930204,1735409695258.0
-0.39088716000950413,-544.5786380528369,1372.9866753975973,644.0868069534432,0.05114646052012513,-49.068242455670955,6.894310465962731,-71.43527414674637,1735409695288.0
-0.33090223962018317,-103.37041865326181,-64.69427645493447,-492.8483087649797,0.030228200363949503,-39.97166779875383,14.089651419170142,-61.49625334415625,1735409695318.0
-0.14041980228952627,938.3124017502015,122.51624915869041,-625.2666730614792,0.023334141140317198,-19.584598449682154,-7.245011283509939,54.04585047344236,1735409695348.0
-0.36540528857622473,-650.9045370760091,-254.89032262159512,-133.55143867138239,0.05140899901222081,-43.186942634890706,6.739393681420449,83.31310302728463,1735409695408.0
0.049000398891861585,131.6203220821322,-547.3521037946665,844.3234592329004,0.05360077890485023,-41.60470074575346,8.750556206264907,-49.67692793971744,1735409695409.0
-0.2542381240521014,654.2457790840655,585.043474747173,-681.4647304656921,0.01782520010583289,-0.6424210880866532,4.108040927935651,-12.396488387235257,1735409695439.0
0.6481850757656629,-643.6796397220719,1340.4013405500577,-156.56909340439793,-0.020801240277154423,-6.427748836796116,9.868656069647137,-25.44673311354193,1735409695468.0
-0.21285034215194004,-481.4689578413221,-344.4851846704459,653.3183891736014,0.06152444592320561,-1.0673039068885366,-8.14514244051836,99.19843353033005,1735409695499.0
1.940737794185283,1068.0365823982463,592.6215630492107,-1450.9521820094997,0.06010286418330526,-34.93687172199736,1.996116974536385,-52.33846961561578,1735409695528.0
1.1730172979880171,720.3312297436363,797.6734390617373,-444.4924068626849,0.08522009645439639,-56.338166740113365,-11.842615417432427,-36.49339108472463,1735409695558.0
1.879046962029927,818.1156598664759,-1068.021581326999,-1097.9766798855912,0.03671015959146799,-69.4022751567797,-27.547315767368037,3.9475820822548275,1735409695588.0
1.6825603853758053,365.9112790898946,346.3736797984515,-461.37780692478333,0.05478487469048207,-69.50579414720221,6.4729378230180945,-18.264488409742825,1735409695618.0
1.2884810305876955,673.179948743135,974.4662964540589,-494.6398655017839,0.05079445744821328,-36.612001128541124,23.12446033207367,5.10682197571586,1735409695648.0
1.350512222552627,911.3300168107676,-400.38429375327166,-1753.992766841554,0.0370210403061429,-85.80750704982302,10.735077218595972,6.319007837913699,1735409695677.0
0.9435323020558841,1041.3204583902361,230.53622499979423,-644.9474026658011,0.052721155375693954,-76.80544404829178,15.297969810383528,-9.961494151224612,1735409695707.0
1.5613816422020108,341.25746868012953,703.8444696660549,-655.5092261248122,0.05670405562479233,-83.94891820433695,5.464328720122891,2.8104362143631754,1735409695737.0
0.4346493860340227,478.1880629030974,1410.0824981035173,-758.2988494349751,0.046207258303155876,-43.965759643210944,-9.473781730718306,0.5776286530726757,1735409695768.0
1.5428994620499088,610.8405176093154,797.0207557358815,-1510.273462229857,0.023136532312089918,-36.71293663610032,14.154593820397327,9.11236478934494,1735409695797.0
1.4912335974473985,578.8340155421442,17.427334190902457,-1211.4237369327586,0.0509674267655972,-54.21910709445767,-5.917645986087968,-5.044653878705386,1735409695827.0
1.334421557755664,1047.5464388297485,1529.804068948873,-816.7961568331673,0.06238655337999335,-88.41992688164319,18.48004041207412,60.61206670298341,1735409695857.0
0.5499517505560163,853.2193465137569,1067.5239540910043,-2056.9018780127626,0.06709079745608212,-75.96432748281974,3.9470762905609926,53.77943050196512,1735409695887.0
1.7923781967272452,422.95456934052606,-41.95290016785651,-2344.192208654977,0.03342258194156285,-27.84931749039214,20.747855596299246,37.583794510950604,1735409695948.0
1.2083302167475316,1099.2003229660063,147.13096601431585,-739.4677172403126,0.04253847104779174,-52.24151538248131,17.893937497822876,15.41817628180074,1735409695949.0
0.228917797719145,1166.0235695110416,-38.47033400997975,27.57873257790186,0.030212773194388552,-86.99789315609291,14.985971954467356,23.342924109058444,1735409695979.0
0.47495618941368456,428.9506251897253,42.66387614004009,-713.7041542935609,0.07752200593867176,19.04423149014353,16.261806734576773,19.234210033680533,1735409696009.0
1.021216012668845,444.58504131625637,485.3330248112247,-321.1306789734,0.05566938711658565,-35.735641735540085,18.058176512567645,20.678172360503485,1735409696038.0
0.6466396111347321,395.32072149496463,-48.43795742161274,-923.7097048115222,0.040237889876408736,-82.78228888995729,9.729890152352311,64.69849241343627,1735409696068.0
1.3571457845143944,63.801746303182654,654.1065772624345,-1045.117932518335,0.028967528796899653,-23.04554635869217,15.75163506376817,-22.472531359351308,1735409696099.0
1.2329254118927289,98.95283972546733,908.184565748785,-2044.5043200360924,0.06541352178333869,-90.55404144957117,4.100472613193533,46.121231309159754,1735409696129.0
1.4917305809433787,567.3741855556643,468.2667276733892,-1516.6826142639102,0.04568612341118236,-79.27421394247837,-2.3185822747545206,50.814718350609354,1735409696157.0
0.8994691168266506,-552.8584770023256,914.0286056853627,-53.60555412097608,0.07208219328887411,-50.56282319815286,-2.420832826139754,18.21109397080344,1735409696189.0
1.2424197241765216,177.9053480269804,-82.90731040939676,-291.0625174304712,0.06027454736471669,-62.18483283690787,13.304145702131908,71.91604238872725,1735409696219.0
1.5690200375272934,-21.862712970550547,648.0295563169827,-2138.8862991452206,0.0635882353924281,-45.07424995878617,11.817628833287063,20.068057412539112,1735409696249.0
1.3568146265827952,382.01351440696675,-245.92231131915685,-1795.2936086214918,0.0650758157281117,-40.07265661842604,10.999054638982557,81.60838376692232,1735409696277.0
0.9975170397006101,1000.2191598042257,73.79631102683595,-1264.6633820529582,0.05368002340842386,-29.178633801078963,1.9968195740586943,2.662248614737841,1735409696309.0
0.605854530413316,-366.8388156196638,1538.3129246111837,216.2548131239064,0.0668345239095673,-37.160799725401105,12.07600050925739,-86.09153339715995,1735409696340.0
1.8850052356072626,806.1095527041707,1080.5184504104334,-1090.3284284560689,0.06571466642817218,-32.424950003030006,15.260069722817487,8.828123977031751,1735409696370.0
0.39777861432871287,71.51423816703843,-212.90397573005043,-322.14691625133446,0.08763798012186139,48.45679215976474,6.720919996470549,-24.79046012013493,1735409696399.0
0.5918221163035193,555.8610532398403,369.27672430569896,-1000.1094684484915,0.030006132903840764,-38.17222315039431,10.934812412512757,-82.87915940359986,1735409696429.0
0.6744777928181569,1354.924191204066,159.1631280993101,-1258.3892655770558,0.058891975833724436,-25.13037495492814,21.94966555076404,-63.105541696786496,1735409696459.0
1.7071878260341955,816.9350729387313,1111.039976395638,-1335.7326940470318,0.0530117187430445,-24.032461643890446,0.5905443071716983,-45.56797266823784,1735409696489.0
0.12851474774943294,730.1822934401764,455.2851398232283,-1908.9340995672187,0.030488802733202057,-2.634185044541269,15.571159883955652,-12.059024194129368,1735409696519.0
1.02949059859115,-599.51947371195,211.3517759097477,-2338.8606496070142,0.04528459366763201,-106.57487580191031,1.0526212598224989,-38.15527691073716,1735409696519.0
1.5934531220556933,506.7176263544218,-952.6986512005274,-1615.2256975067835,0.06919684567940271,-43.66496237520116,11.58726795306248,-46.13256701940338,1735409696519.0
0.976222948847941,183.1954291170222,61.556972024861665,-928.1496577452438,0.05431191327550544,-35.30824193796604,13.057161185004915,-59.14854434575546,1735409696519.0
