Acc_Betrag,Acc_X,Acc_Y,Acc_Z,Ori_Betrag,Ori_X,Ori_Y,Ori_Z,Timestamp
1.2088185504776932,1280.2902207040734,-884.0346791417705,1655.1820638536628,0.027733041397644192,18.481226083117228,11.469000333533236,19.468967301269814,1735410056677.0
0.22348755139580334,966.9213170417783,-754.8993339428823,395.72601928557737,0.02602360232749041,12.54441719867252,29.55965216854282,-8.724451288808265,1735410056735.0
0.6556750525655783,676.5449996088056,-1674.9702573080094,1401.2214129998965,0.029247301454993366,15.489790486080942,-14.79583444891239,-86.93733111310043,1735410056737.0
0.5560078576309118,937.9822437016088,-231.5273722468811,-273.8180996238902,0.03395388182683655,7.3460888185165505,0.9080792093561962,-6.807027034803401,1735410056766.0
1.610077697604953,-67.69122715507012,-1572.6792976555748,-590.7801246278932,0.04745707766744406,1.0454053404755301,11.89022064107069,11.470112526500202,1735410056796.0
0.6927606970606257,2.128324145404349,-413.7952143207868,-688.1952149602577,0.03581237492199951,-3.467609844545108,0.8308347876102626,-62.498092606498794,1735410056826.0
1.2946989815011556,375.8995191169543,-578.980533460659,-44.16637241681238,0.014013463043541409,18.318489275138155,1.8132473012392776,13.149272667368837,1735410056856.0
0.639485597031372,319.3405680760159,-1005.7225652203978,85.42011364395762,0.007789389546135329,44.51304587354692,13.299848500965545,-26.431088561519534,1735410056886.0
1.0002143027049704,591.3196121320022,-1732.1862898645097,-0.18460429071984663,0.015137980724153734,41.588024167183505,4.3430586422116555,-46.118961301048,1735410056916.0
0.495900466231879,1117.1498179943344,-890.4639495992807,-105.01643976649416,0.034265354904803313,-57.91656940497772,-3.2909477878850932,-8.603059044945674,1735410056947.0
0.7621166097624354,-93.79568709409682,-841.8212654485548,269.63137128856533,0.01533793694011256,5.44810694024803,8.929468009035823,-4.301954113479319,1735410056976.0
1.5032933072722037,1216.2524576290823,-485.01049997858615,-455.5932879226539,0.021519019834759935,16.616371206990156,22.919538920871332,-5.866691091012761,1735410057036.0
1.1591814776254046,395.62308466872014,-911.2477089821255,340.2137377069987,0.03730595298204552,11.477027606273538,15.478193008493621,-40.905977344765915,1735410057037.0
1.481077150289794,1530.4258276304745,-1172.5322301429949,555.8495309826583,0.02879654818327419,2.027265485236372,21.500178674396835,-59.71780413613688,1735410057067.0
1.211803437541581,863.9113377963943,-312.92907452446275,937.8727571898339,0.053496125776802905,36.47824415996172,19.97764811207177,-25.125013126235217,1735410057097.0
1.5797460283455609,1224.6033761672784,-438.69941036387945,486.57293846842447,0.02738897319324298,28.786325671207372,13.116720637593609,-45.49536011514633,1735410057127.0
1.1384936975765076,1324.72739453328,-355.03077946712335,1150.4605500772432,0.06460233702394376,-31.568498067169713,23.622666277498695,-37.04534347368633,1735410057157.0
1.7352530929655476,1822.4619030454558,-129.15880174802442,1817.1270471569878,0.0526961764953456,2.507473522637774,1.1434955098451134,10.561375966249855,1735410057186.0
0.873411415843603,-1075.8313010486536,-60.9950485300575,-440.19369571204453,0.04949740704794807,29.169276995789733,7.694080071592792,25.896042238172356,1735410057217.0
0.33987106621693935,-93.86708826287656,536.4624910264906,598.1005752969419,0.05457042132283192,29.443282422159573,-7.039695708822581,-44.546386865010426,1735410057246.0
1.4235815245549641,-1194.5914385077672,210.40804356073318,782.1892961308373,0.005688569610634929,55.90577736264879,-38.840722733632916,-15.553448490350611,1735410057276.0
-0.2755915964415056,-246.37115533865182,-346.8412753218473,-709.4924612539355,0.04981753795582748,4.186101510355844,7.750628658259562,63.347771324811404,1735410057337.0
-0.38198378124361626,-566.1473705589656,-425.3045625303462,-1001.0299440485991,0.015166998560055885,-75.4877113221697,7.9838540976511325,18.798074990814598,1735410057337.0
0.09694259391416023,-1520.6934497565585,-28.58762168079675,-194.35771191455967,0.05257238795903617,-58.01628147806528,-17.7198840373423,35.60151201848402,1735410057366.0
0.10664221942338349,-332.19341289875194,-831.5228161995884,-354.2945248918496,0.026893095176312953,-42.21118355950135,2.0171377888740976,-43.34067510491628,1735410057396.0
2.5210849183646813,473.17135165369365,1734.526380256124,-1645.1034579454442,0.08433670704421269,-43.55516891660388,-10.337681595590322,1.8767341269157853,1735410057426.0
2.341689624265226,-522.5920174725585,482.79381830376735,-2118.2014773897135,0.038971341300654744,-16.825664410161494,-0.9965761913944666,0.7259591254412108,1735410057456.0
2.6423573650541083,-86.22760978288704,811.1188978112659,-2431.2567042641035,0.0750766666940171,-19.773821518096717,-8.577456650301837,-72.88663266792896,1735410057486.0
1.54396717827815,78.94093086654225,214.22413417391698,-2677.461622528882,0.06949296037223285,-42.26004345330939,-21.071943872704928,-94.87292413866764,1735410057516.0
0.4265335866490011,-825.784100741121,672.3502900055639,-1248.1837454012757,0.025303292196031217,38.41187613606081,-2.588916161388572,26.489190334626805,1735410057546.0
-0.023396887818779022,-139.19085758640563,-805.0609549296482,-59.58189739239782,0.04534035082721718,60.62107706370316,1.6972606369563419,4.260650776379663,1735410057608.0
0.08840420244777186,65.59879113967662,-385.11806596672886,-2302.27653787227,0.07083171770294824,38.99576458351689,-2.6032089381511634,-27.637465402589495,1735410057608.0
0.7997079739782084,-338.58525010707575,-553.1663877926744,339.51365945376523,0.04892872661346508,-23.643542581264562,2.543966404781322,-24.573738876092015,1735410057637.0
0.4260910435883647,-439.29193272582745,-308.9082734720132,-1235.584635852582,0.028550805866755635,-4.497628230554259,-6.530871157119491,8.534362746624387,1735410057667.0
0.8357745763951437,147.51676693290153,-796.9563302653324,1550.0901253732006,0.06278774688867121,-22.40160128232613,-11.804992003521498,-58.778827747896564,1735410057697.0
0.8438430042903738,-474.532965234907,551.6068724058396,295.7674309135625,0.07448970217565572,52.485925870822626,-12.559811816150404,-9.850206406274943,1735410057727.0
0.6661053878581,238.54562832288877,-184.12833318708866,-531.8229691657614,0.008264846321539157,21.647241334169255,-22.043483975037883,38.63219282225939,1735410057756.0
0.02029898289765919,32.79341781662609,-207.9753782044701,2499.4622824173684,0.036908491791891436,9.480531312159782,-0.7102750241943887,9.792158961727568,1735410057786.0
1.152714222516917,82.39602007373003,-225.00095182707295,490.88624317998017,0.027681476097328093,16.46670058751672,-4.102485890276332,-45.56978324056263,1735410057816.0
1.2117919483352648,-29.393794428265437,105.69340311608602,1445.3871913845546,0.02849457605898988,7.54128500495495,1.3202770325579491,-23.465437682299516,1735410057847.0
0.214522131986285,-321.40442680351015,-311.9988164166539,1510.219159765736,0.03408099297691296,-18.33891107183186,-23.16858328676643,-76.40987338034054,1735410057877.0
1.2952895327540257,-207.7243161082508,-875.7711927906045,1163.7678582792455,0.06152280706550987,77.85558806480847,-8.813911214991442,-31.480059715751956,1735410057906.0
1.095258920499749,-635.9387441026967,13.973897855499558,1319.4224441259128,0.05010074133248699,-1.9155434393301594,-13.239193968649742,-68.86270228660666,1735410057936.0
1.1816513390740078,-175.25916136962792,-951.1560162881262,-261.1859659363663,0.06561255302363864,-9.705392670854879,-8.393554598961028,-34.263748706953834,1735410057966.0
0.6586863300911534,-11.187449962922763,-850.5299241614462,802.5686542344929,0.0605667338284704,13.68272729586007,3.187094374693174,-69.55625858182114,1735410057996.0
0.8154825941826761,192.76122234184163,-312.95459339737886,1225.810733239101,0.05251827199856969,-42.73282787571764,14.322563976196124,-1.3911948128540246,1735410058026.0
1.4021311011162931,1232.3316581648967,924.0372073672982,649.930660813023,0.03472697335050973,59.2415793926523,-5.123498093129299,62.82346803803899,1735410058056.0
0.35805972612239834,1246.5540797753831,-700.26007704533,2034.2822187747472,0.06000994280109084,-14.873648007383842,-0.6754070688373008,72.67804669581979,1735410058086.0
0.597594192835792,-365.2262407605725,380.96693180629927,1404.6252121957846,0.043833545754305724,12.069643427009318,12.29883043874799,17.09980647866667,1735410058116.0
0.1502558753635873,-762.6460036309237,-953.4149639103468,298.25158719222577,0.06904831885692661,42.184168008038036,-19.381137446098258,21.555947745138436,1735410058146.0
1.5195149205570253,-446.00246996514204,201.448579569966,1489.7559126376184,0.037803356677627756,2.6533788982704003,2.7562713393999156,52.83072640800114,1735410058176.0
1.6036389552452652,-330.4627964185216,-709.8343669530846,554.7109113797572,0.04793247395262577,-6.875433584714238,-16.080015942419664,50.6076529836405,1735410058235.0
1.3979958723819075,-360.6994037239046,-646.4718733024388,400.26867401173274,0.07594547554748018,-23.77895297597088,3.2860402749649844,57.03493143883307,1735410058237.0
2.026323870700905,-291.74661142348504,19.784223263903527,418.8249540599245,0.03812656879451976,18.80824753701664,11.797338965823517,15.057704406179337,1735410058266.0
0.2249549375129296,-267.64652156166323,-126.79627800393348,1501.9226191222626,0.04096028326573445,-6.864150558104017,2.3899171089759914,44.96965013176502,1735410058296.0
1.3532492709293833,-1124.213615198022,180.4768251175517,1778.0367073853317,0.05521028279969539,-19.898486961653045,2.684722465791665,57.74217225225888,1735410058326.0
0.7581183250627315,-306.35078390990634,-391.3830639066945,97.79838857170853,0.023618489012600608,48.69089375437413,5.919906305892453,12.02400377700739,1735410058387.0
1.391631015007935,-147.17735010297207,-293.5738950926678,1245.6003412651223,0.015426602314491283,3.029037186303012,5.530773092756349,10.889379921053639,1735410058387.0
0.8001947863441665,-211.30327527704512,-405.6556384176585,218.11120343988432,0.029571467976907784,23.789082303092993,-13.781233985751111,45.294986005840286,1735410058416.0
1.0733009318430913,1047.6740015552646,-581.0755195743468,1140.939559317682,0.021466893643281727,-55.14674641608971,-17.47494605321072,6.259092644204163,1735410058446.0
1.7913819437828082,-471.6289613920581,1.4781354248168554,1167.8277003603155,0.01744401426511491,13.330651518610088,-6.100046397883376,63.851219674867906,1735410058476.0
0.989917783097057,757.2362045936271,-71.64026940940292,1103.8053767929207,0.020042232088859933,-24.21680590174269,-18.979904861381065,42.11621890960713,1735410058535.0
0.5666182083031217,1440.18194129072,-550.0674243334695,1598.6731938578168,0.029664831626088704,4.379038212779509,-17.21363537469361,43.92881676087603,1735410058537.0
1.2756472055061214,-332.47519181782377,486.8836770523827,-29.437025026781726,0.024711201179022077,26.582952519573933,5.665138680327532,17.29262714950679,1735410058566.0
0.9841580385613365,-352.67997902446166,801.1316904796563,1397.960477495975,0.019043404679311895,11.209264769003553,1.0516562056342695,79.47262843919884,1735410058596.0
1.433489247872948,461.56810739363283,394.1320704532545,-227.36581859928924,0.045017743165505456,34.04489617145263,1.0987713329425084,12.861990630423543,1735410058626.0
0.7757556915409012,-259.6868533767454,-1083.8898201502789,-201.29189728134475,0.034065813720568966,-10.002873004907014,-2.3218780676021087,16.696153190516796,1735410058656.0
1.203357062753164,583.9263697343871,-92.52036686166309,370.27756340775943,-0.0004002574512728483,-35.95007386089133,4.461671950782646,14.208460110102713,1735410058686.0
1.812234558090584,680.3478871745054,-290.01561496353605,1193.494306597648,0.01992199672562776,14.27798584072768,-8.72734325907539,8.017294537953468,1735410058717.0
0.06630017693069101,1007.0373361955312,1007.5420314031564,977.5369812251081,-0.02008905076835277,46.84502859979251,10.367608867891283,19.094506847758584,1735410058717.0
