Acc_Betrag,Acc_X,Acc_Y,Acc_Z,Ori_Betrag,Ori_X,Ori_Y,Ori_Z,Timestamp
0.014148519396625425,-496.065250856037,952.263077187769,-1040.606941049001,0.026304779720290813,-20.07378753153973,-10.397754672027704,-37.24735803897343,1735404945104.0
0.8469832413448961,-30.85765518530411,781.7947524868558,705.2362938254817,0.03153068192940697,-86.20488104368906,12.531591023866262,-21.622362938543787,1735404945134.0
1.1251445921694025,-520.1975419864415,1427.4305351668363,-684.3021209819416,0.04013321268973403,-50.052398615038,11.645817640123637,-9.284552113856606,1735404945163.0
0.5937300465763091,316.41563352906724,1344.297226910585,-611.7572879071331,0.0033362762717855793,-5.606513340931674,-4.217077827734545,35.663518365790374,1735404945193.0
2.321123511666988,694.9133804378951,419.4561443124012,1519.3083174492772,0.04268228807089965,-16.495330158738284,-11.331422226967033,-18.684493108387727,1735404945224.0
0.36551010928216066,-144.53643574409648,-60.6681188958255,384.2950448558927,0.04546026239268958,-18.934440529229715,6.396436729821453,-54.24952586970633,1735404945253.0
0.8701285724350126,-197.98782595384137,707.2841252806115,-251.46660943236031,0.030214939862205373,-31.65386497898951,-10.768403389925755,-13.51057895397955,1735404945283.0
-0.06624513824299338,-566.7836758828422,1239.2656822711183,-101.04014061797943,0.06223675752171513,-19.931064367580454,17.16370263238105,-10.429349003685573,1735404945312.0
0.5390165277332093,1219.5206010659472,622.7574159381186,363.72987365719723,0.015787026475731412,-2.5341402495021264,16.324563359401473,-108.85775586164088,1735404945344.0
0.4676122641143594,378.23901572875127,670.90258392946,1033.9923664128396,0.037278465464444584,-54.22955242784454,-0.7510249685707377,-66.45323336317581,1735404945373.0
0.612607926444596,588.4076808015593,807.1120674911158,-1352.1739978422002,0.03148035914555972,-37.991652605734245,21.481508330170342,-35.80321623144025,1735404945403.0
1.2305528369573775,157.1492160608095,646.6279580843276,365.4004221600482,0.044176104941040226,-90.44621339859813,-1.3216991450021442,-76.33523801926735,1735404945433.0
1.5390259581847732,-768.3232628431633,1722.356990489804,60.27659093205211,0.048021977279149954,-68.12025611104866,-10.348049322327075,-83.97739841012091,1735404945463.0
0.41675680868063236,-60.74873815946478,1374.9876880749466,393.0495881904065,0.03233386606003264,-13.679937979699993,-12.840481494758698,-45.383463751650055,1735404945493.0
0.24112772006287309,-499.78778264900836,780.6748052380483,1258.798926112097,0.05011714484208385,-17.681536449454633,-0.8014408026426292,47.23422761852954,1735404945525.0
0.14462554695221574,337.91323513478073,344.553660753689,-205.4428019686067,0.06602971256996365,3.0250633627687407,7.622533655912804,29.500961211334214,1735404945553.0
0.37271585568677623,174.7431396198558,498.21724521620257,-284.65390960731185,0.051700720610610866,24.626037739631638,-0.35417596018408837,34.923584596199376,1735404945583.0
0.24155943478237824,-368.7976689165404,1200.21157329243,4.9103701293431,0.03923248271579601,22.618122054638512,-23.109397758861675,-47.135191455991226,1735404945613.0
0.8027350876887258,-904.7487346867708,837.7907341613391,524.3588421738204,0.0440759137397972,40.94718866410775,-3.7978682110682254,-25.503636964731097,1735404945644.0
0.4625592690086866,-78.65539336285639,145.13637525066525,-147.21430762432402,0.046554216769132344,-60.81888972739955,-19.741781199451978,51.91414252312178,1735404945673.0
0.009107409358981036,-595.2585145934846,1015.1401284753657,1518.9597196932532,0.041479971785553,-22.474927578349742,-3.120493329769742,-7.40026188739299,1735404945703.0
0.509221265619492,105.46934469633831,-965.4112533616072,-404.2126977496553,0.002885552957114852,-21.040805203253946,-13.056478143203332,-7.425489320370746,1735404945733.0
0.22935106487031287,-176.72744504619186,-602.512243223882,164.80683423246862,0.05374092026470489,-69.37178162362382,-15.795083018295669,-36.2048685647125,1735404945763.0
0.47901855231707824,403.2741248662886,240.34815836396345,387.309237476309,0.05053883907942228,-6.36527796394888,-11.36387811783715,60.99706706784591,1735404945793.0
0.16064298454007073,-205.68649292722571,-1125.9289306750375,-856.4600168764654,-0.017610754681180597,7.586857173426051,-1.028714287021499,-34.57772887592975,1735404945822.0
0.2410788803889134,279.27927918982783,161.63400519525658,-241.12800939544897,0.04467909922155098,-4.470897907442779,-6.7527321287614885,-63.11865167876654,1735404945853.0
-0.4873218030196211,278.25763905413584,107.22473584970551,385.6496427199497,0.03461252853859896,-35.51675399816075,3.94701387282889,136.18457675531843,1735404945883.0
0.6150644144424353,423.9215146786955,34.747143422300965,-252.65823943335099,0.023813524666829223,6.140023530533691,-3.690492471267981,2.326446842248984,1735404945913.0
-0.4958724754841501,878.9140086794519,124.73674262057696,1052.908762076818,0.0007160817676625415,-40.68286654707031,-6.922042689432853,-32.30332226872211,1735404945943.0
-0.34924846927114384,719.0411968726959,-52.243963503962384,-896.1951737790466,0.047131687037257064,9.057209849073995,-11.599025094818398,14.681206715460073,1735404945973.0
-0.5461241753983637,724.1002088604156,-894.0679387749034,-831.4581460019565,0.032887361296676784,-31.87771020241561,-21.9978392701684,8.089928542148435,1735404946003.0
0.19490866924204386,231.36268197007885,458.33981664241225,218.016763779463,0.036933415078933655,-32.60425524861511,4.336969896211343,-35.22028312879817,1735404946033.0
-0.3731185568596407,274.23319756245303,-409.4906234633449,-179.51490605028073,0.03188060308902794,61.50078821362092,-5.0011825882473815,-41.08223354511547,1735404946063.0
0.03936242095896608,319.8573308016996,-779.5260556307014,278.07280849303874,0.05356354332291985,33.7852498679458,3.752609465729882,-55.17407283133161,1735404946094.0
0.06914865330745756,757.31658878286,-147.71298751326452,-57.03948927097407,0.010842684600605241,15.99784224562538,-2.411355490776404,38.297044669822576,1735404946124.0
0.9309359196334346,-416.56133544186406,483.04399574330074,536.1283231365416,0.06607607437852046,-42.770290784634064,0.7779539258520014,-0.29038127017513915,1735404946154.0
0.8108563263809593,-1051.3207246432357,356.165002699191,438.1676088525687,0.024672836426324653,-28.068911074683886,-7.855140052703008,-34.20797613982252,1735404946183.0
0.39037014582125507,-1280.2415112985,-322.7557567932936,748.361583383331,0.05899073013404843,60.36651293492172,-3.5234769874115006,-21.681246684141176,1735404946213.0
1.2363167734221316,-720.8418684147334,617.3083402743878,-410.98773071536345,0.04322063598799751,11.896770731203198,-5.7290249154263115,-77.49495536779672,1735404946274.0
-0.5463820855146939,-389.5094427848768,459.84520256195003,-349.0148386975535,0.04091884674301728,57.38981895825079,-22.62332010393915,-7.846873062468234,1735404946274.0
1.7020475566218447,-711.2576490672782,-250.38513744790714,-819.9022772062826,0.0334888340458047,-13.99072250625531,-11.489585885672453,-18.292218314320156,1735404946303.0
0.28576965034363455,-871.2891541017741,-503.9504882168991,-278.89834811693225,0.07112606118191933,35.14233592043793,-1.3403837950437758,-33.837311632624996,1735404946333.0
1.1597027760034138,-700.5912199185459,-747.2708865796992,-59.67460430789211,0.056534310262374855,51.75755544932292,-4.552368891247525,-8.01662928305808,1735404946363.0
1.3440555231157965,-355.66740980111706,448.9911723397228,648.9624397366343,0.04582692179947096,26.027709306519778,-15.474243075079311,-67.64257424498618,1735404946393.0
0.9274042581007969,-698.7773158427508,290.06921995615613,269.62517363201033,0.07578328407390211,55.95134674485165,-17.407869244479123,-8.85171332210756,1735404946423.0
0.9597067410630372,-928.6679185363225,-605.149142014283,-217.09518968821152,0.047637805233870165,6.446775830936534,-10.708591819488715,-34.1091549717618,1735404946453.0
1.3709267192226025,-847.7798327099669,-119.86448306852884,-158.56165562967539,0.032001792934686205,61.773459489360505,5.353584862458188,-18.82407973023956,1735404946483.0
0.9106699526424272,-1140.3705325396293,438.4073503618659,40.321392157180185,0.04038981064890285,24.71292720556957,-9.990633157689427,-9.551621155141406,1735404946513.0
0.8100414230100029,-1164.260021546534,690.6747202795787,-732.2501562742334,0.0006250126779268547,38.000620588105484,-5.95448958175699,-35.18593091159816,1735404946543.0
1.1780708570321545,-1349.9905944959364,1617.2916277156935,1225.996023595824,0.03602508241194985,15.625796400504127,0.38589663730444634,-51.83580648752534,1735404946574.0
1.5296692624184296,-817.8723888533566,-152.8785897219032,-1098.9474922244917,0.04170428408712873,32.05180345323365,-9.647059736125058,-49.47452393410679,1735404946603.0
1.5527000977435947,-436.65399285965634,-535.4549891756919,901.9512336234884,0.028014663619015123,33.26084994212885,-13.700065908119374,-46.2121711724943,1735404946633.0
0.8813295276799982,-602.6590167589736,-817.3305941078265,-40.061360022631504,0.03135833338698708,33.34274639313385,-20.717598654811496,8.096554836090196,1735404946663.0
0.7794718916357981,-1328.0658711553067,265.3274895996671,175.03591088907706,0.045269781381545374,-10.27594566141208,-14.983185251156648,-43.42939642535392,1735404946693.0
1.397497069486906,-1140.816536842257,110.15877230946865,506.3916592990255,0.04479204787553723,-2.6241802497557316,-9.941868442341406,-14.619769513693477,1735404946723.0
1.4937694597356188,-884.0525482617992,630.3012399743966,69.35701635188627,0.03529351234821849,53.409046830314495,-40.118858471999545,29.506012147396,1735404946753.0
0.28852443182767595,-1076.2094962263516,-33.079462051865335,-549.3718613501852,0.029557760398237314,41.14378880859502,-14.30094176280161,33.247015883529706,1735404946783.0
1.2001855128564014,-806.7975383876897,-743.0039278467779,207.3071347948415,0.05221114955713221,25.93710460292819,-17.796913835766432,30.9381145907812,1735404946813.0
0.9387572749561565,-1214.4367806915538,-42.48799767240985,-634.0806413829177,0.03629991706240005,48.298111779234915,-27.081530203968,-40.53416766294109,1735404946843.0
0.49337841529921406,-954.015533939597,35.57869567358654,-1127.5967678845518,0.05949312965321656,28.59968511244104,-23.869818961661945,54.93735233624564,1735404946873.0
1.067195530194872,-1066.3802006842507,-42.353517451953905,-636.2949415858241,0.035175482462236285,-2.873667813949975,-25.259218334040817,46.56981800308356,1735404946903.0
0.5983013558297843,-717.8791471393079,646.3941280961155,373.6092335138626,0.04348722538081859,-22.473181805237544,-10.434485926100951,46.82990204809769,1735404946933.0
0.6560939178236558,-362.8290239504786,679.0377683066505,508.5436495510436,0.07676765602162357,30.104226703584303,-17.34155279209589,-21.823544045386207,1735404946963.0
1.7831920246435664,-9.320926127395978,837.2668864395754,5.849953234752405,0.04611382725262751,10.2754810363241,-18.281279363033352,-35.75031361124742,1735404946992.0
0.8987041773488597,-911.134321179683,717.3917080128865,-720.2604367806899,0.060674758681596774,-16.417131490683587,-8.416664137927235,-55.80267428117149,1735404947024.0
1.1200178898219844,-1452.7846149488105,426.8054754010545,1157.9364411150998,0.05442835069575255,57.355894877933,-10.437419606549792,-70.40357264373051,1735404947053.0
-0.09263388113405524,-326.86477741352735,263.70725902416916,-563.4358768870911,0.026066457423420494,6.808463404062566,0.27025531750103404,-43.20838862948217,1735404947083.0
2.020807918769973,-1112.710437250601,-156.75797522670587,735.2484336726715,0.04265856429813291,4.802707546966008,-15.050910255591429,-78.33414216912904,1735404947115.0
1.1846352953807033,-554.6349904226568,-161.77927076014475,-260.2158689027015,0.029537747630704422,-10.729867058234863,-20.888823680165153,-65.73213529188342,1735404947144.0
0.8408773147178371,-892.2307935715905,272.21282595077093,-1182.6349946638902,0.00911101462794053,-18.021735557435147,-18.416269240955916,-35.5160914714352,1735404947144.0
