Acc_Betrag,Acc_X,Acc_Y,Acc_Z,Ori_Betrag,Ori_X,Ori_Y,Ori_Z,Timestamp
1.3540373308593276,-700.1086978486262,-532.2301455476108,67.3585189866368,0.030638746839692723,75.64573605802055,11.184463444219617,-35.11984632962029,1735409770805.0
0.5471369185689772,-366.8780181921036,-37.27563389196254,348.7807047104733,0.03975129452651928,73.97522983993576,-18.67999757279809,-31.152386632432844,1735409770830.0
1.2337721521565672,-1256.1648276973083,252.44470507422633,775.8502658085489,0.03361782140914186,83.24164586181769,-4.331263028592584,-39.77484889558815,1735409770891.0
1.9732180106693993,-752.9935519057914,-116.26112994890764,491.9949646045543,0.0325241566877638,47.87532743030612,-23.6432473198942,-96.45151369863528,1735409770920.0
-0.11799436163337029,-884.3391045391461,-248.51795429850222,704.191844366721,0.053832328171115156,24.354642846282303,-25.131837191773002,-42.579176741725895,1735409770950.0
1.0962284678401162,-836.8803027681272,828.6304113884532,-229.94564337838227,0.08538104984663605,6.012967867326921,-9.042538456883712,-3.419388354817176,1735409770980.0
1.6516451821162947,-804.2067523614069,318.2177951851919,-498.9657216631641,0.043022160017902,44.59180642348599,-19.174083967329075,17.184276700225723,1735409771010.0
1.5561810279748247,-1625.4894625904142,-129.6596317750254,1544.2558811345366,0.0063301049386984345,54.102136969442014,-9.007554514718954,-63.938567484098385,1735409771040.0
2.0297669913801704,-885.9627935410517,259.8605478472781,-1037.2951685533544,0.036312767988371436,24.30832461149686,-22.004578106698837,-23.224853090046704,1735409771070.0
1.6522598740329841,-1791.2354408558122,-596.9583019872379,137.9339505413178,0.06372475921930469,8.067323477899727,-3.061402974078544,9.367459600458837,1735409771100.0
0.41265619702298306,-1834.4696894900708,-679.8372012048674,-1541.5762509349265,0.06127486784358098,25.27780943222031,-5.772891890897792,-20.254227729410886,1735409771129.0
1.130870983898254,-577.2220763928883,469.73374280977737,-931.2473155814127,0.048719361707765724,35.35529058913277,2.0980670091508733,-25.822698505928038,1735409771160.0
0.13437262745049594,-1381.4611708694838,237.69762774537656,-288.7057619242952,0.04855716492679432,104.11700659820926,-5.078894105079247,-42.94449769689854,1735409771191.0
0.3986720714489792,-902.1742944103665,-870.2141918834021,-1071.4256207847127,0.051267635162863465,13.667473334034963,0.3019540122070255,-52.0667222700408,1735409771220.0
1.417425106664329,-1292.190158569823,100.13118428691857,-1271.127525725434,0.03686510211693839,14.703024542918271,9.677509134020408,18.063855888800322,1735409771250.0
0.4520124294266913,-478.4721921451797,230.6004484366261,-1248.9491290133492,0.03390722885164131,-10.002108753329637,-1.3453947872991887,-22.152941277848726,1735409771280.0
1.2571148135193755,-1090.7942673647215,-849.138309172978,-1925.3443286638176,0.06755755828063746,103.03750377388599,-9.370423810340533,-16.827087758950228,1735409771310.0
0.24439669883061677,-586.4194540269623,432.7188831409353,1.7134922467403157,0.03593465555896197,-72.08603608759071,-4.198375436408367,-48.92492033056476,1735409771340.0
1.303440612865076,812.6232914252869,-509.6066893394218,-1514.4285631447867,0.057738255613949185,-18.241627913547884,-3.658211264406501,42.70450960285698,1735409771370.0
0.12994081478939484,58.27374930574127,-271.39864094532663,-1273.5981311518485,0.03356311243388675,-24.67989876774351,3.6228899890874597,40.26296700386922,1735409771400.0
0.6313770328431174,-175.32009966924554,-186.39912291377277,957.5410954051707,0.0551827155365248,-24.377487720183666,-30.54951469235379,42.91770737580689,1735409771430.0
0.3001671355020089,45.67571294995982,483.40301061945473,-169.20003428748984,0.01926135026158626,-87.50614201343532,5.8086478831199315,-18.515956026250784,1735409771460.0
0.29623747027095376,-266.71942070882477,14.280917193650062,378.94970265581145,0.066283030540451,-51.3515149923331,-14.430545681543599,-34.04302084980735,1735409771489.0
0.2142748439788049,305.0317515806728,315.11035407709437,-713.3948250356328,0.04421815171632187,-41.59486948079184,-9.858149565425435,53.82897602633024,1735409771519.0
0.34540176589247074,411.17094707398155,-283.96624839298863,548.0453002028806,0.03932604856396721,35.68225238960027,-2.8259035441234266,21.743452691862494,1735409771549.0
-0.058403824708916266,-244.55155128552116,-676.8648022409599,-392.2464835949382,0.016141807042320478,69.96782059676573,14.439596330065863,-21.19100200434302,1735409771579.0
0.2434958481964074,-241.9719459478132,722.4944303876387,-576.0573095123439,0.07100331953604874,37.912832867010486,5.110997905853971,25.627279395844294,1735409771609.0
1.1600215402424046,221.50257014317492,451.96284729356404,-614.4423448666251,0.032040420206507984,50.72736929969575,13.661860616313362,29.3279633601243,1735409771639.0
0.1392270019859312,-171.99062889881634,778.2574352720827,355.3991007942084,0.03355641370452141,-14.872825892901922,-6.91950454022561,-39.359774075764015,1735409771669.0
1.5646359287057878,-1216.0427655739513,452.81095195857546,399.7744504633604,0.04649014723654812,40.31512895737937,-23.91608634620497,4.666821673022961,1735409771701.0
1.1362442405657083,-50.43561316277936,1177.3736494758737,-628.6679755812072,0.07375016552654425,-76.90962217919997,-17.04921338611139,-92.41174434023853,1735409771730.0
0.08892660091752136,-1219.92953574919,1766.2187232741053,-1425.8489767379886,0.04949801667153749,23.191727814170036,9.412825263081949,-29.900227224342878,1735409771761.0
1.3516821577043594,-422.7389605436477,1154.41642329448,-464.31372457712473,0.07366863950440018,91.16689859195613,-17.31049628852351,-27.517833782790692,1735409771792.0
1.8098000995259482,507.6413397540225,139.60196927194477,-379.005512871203,0.0468636407893331,61.47642928952446,3.6626584176048826,-49.00475851300861,1735409771821.0
0.2570565320242103,-705.5690200052184,249.40123131864834,-2237.8441497325634,0.07081639155363505,-84.72272059359148,-11.952225758237738,-25.360220662844462,1735409771850.0
1.0438926296681879,-650.0307163172992,1211.4820055840642,-1334.422702856709,0.060252811484862445,-90.89869135609311,-11.767342499060959,-31.949608837874727,1735409771879.0
1.160461778990414,-1212.8903527841985,2.493496048319571,-729.7885082374708,0.04651964530080157,-27.03416322163076,-21.837330490145153,-33.73999283130657,1735409771911.0
1.0476658910629253,-441.0022538107734,2189.638521041241,-111.9137837767019,0.06386656745268739,-38.056606580936744,-17.685119737939942,8.986018731549123,1735409771940.0
1.467588968061329,-909.8810479359856,996.507748661408,-523.4777562610639,0.06253159740103773,36.557844461709664,-34.90754371797946,31.642697078074626,1735409771969.0
0.6403472309197242,-779.7184020841341,-139.5420985644148,1359.235951661393,0.07674833832190542,-17.134222162342226,-3.331975106356719,29.84331721587084,1735409771999.0
0.9174770081820616,-542.7335275688533,512.4776715628875,-299.16710585218925,0.06331362655232381,24.7633899931459,-10.140311010182437,64.69445288156004,1735409772029.0
1.871882082095822,-155.14489611249763,69.51809656243393,-135.93202928295892,0.04651512009405395,65.01257166614032,-16.55778518417524,35.395515346004075,1735409772059.0
0.749168853450594,346.2486205022685,1649.9548929144603,-96.1118874957841,0.06196072209508619,-19.857549689792428,-20.517256851213304,-34.85768653566181,1735409772089.0
0.9849824515305624,-508.78613777776405,110.51639788517696,-293.1821017260276,0.04860804955238524,-35.371484622261754,-15.274523925866543,-6.1643740146256185,1735409772120.0
0.8744141715744619,-837.8357315398707,347.1190067078624,-58.31307558817346,0.08095309687931479,-49.53729671207442,-5.946200491771471,-0.9047870602563499,1735409772149.0
0.5978843137931036,-859.0491511169421,562.6731759910374,-699.3072767866497,0.05119894500750513,-68.1027093029228,-17.174595324043416,-51.23947241849355,1735409772181.0
0.22418170329273412,-744.877550997905,682.2110417289985,-244.32719547069516,0.06015254038467067,106.77312103754576,7.223353987567712,6.5761005875264615,1735409772211.0
0.020848624046614916,-386.9368640355018,1421.9588332301037,848.4817466660019,0.03616460327134187,-82.04649986994986,-6.895422853313134,-19.614108015372345,1735409772240.0
1.0425943321241837,-795.444924724131,2315.515975126734,66.27921283624713,0.06747045744298463,7.209249063592324,-25.066705474714077,-48.40754153114216,1735409772270.0
1.1826174096663888,-864.7670712856939,671.8658070684257,355.688883670744,0.04490307776517142,-10.041444407251216,-10.230072212842572,26.67022271638934,1735409772300.0
1.3953673910583766,-1307.5004626862979,742.0526821149735,-337.6456035310036,0.02999522170242793,-0.9596467518377629,-24.55999615113331,13.418234571637642,1735409772331.0
1.2764924023006916,-271.19724478052575,623.008353196085,421.81664455687167,0.05109502200748047,45.4048745497435,-18.343327011916635,67.36972536212603,1735409772360.0
0.5096038799368351,-987.9462858267602,-24.370990166149,-159.02586381163113,0.05622458476518549,69.95957874522273,-15.770823773398629,9.755883577691783,1735409772390.0
1.4264023883274826,-673.6252249251394,-63.368225757497044,1245.3047202696314,0.035110311017084284,-18.049710165514266,-33.256556619521156,44.89517587384677,1735409772420.0
0.5679740855258214,-577.6813253505791,867.6799244851306,928.9251466712687,0.040277688756037544,39.926699614699416,-29.074963127695757,-30.071339295334077,1735409772450.0
0.8592286449758715,-853.3948644661796,1112.066466217037,-546.5823027982349,0.05166186154911939,-45.60445577948689,-26.026521494183363,-19.95743047996434,1735409772480.0
1.3395858033538506,-168.43349815968077,1492.0578956116037,-1132.076119125515,0.048670287134261775,-38.2447682869572,-28.250472707172577,-18.286999462010165,1735409772510.0
-0.15297156192810013,-459.5271872404285,822.0808843701734,-109.90346891194835,0.05504727523451746,-53.55462321025488,-12.401698673806571,-41.96389851395659,1735409772540.0
1.019211924396235,-431.1031010833476,491.2595889983458,-26.723880160697462,0.038196991644538644,-28.31709865590656,-5.782695517051822,-49.04009592421117,1735409772570.0
0.9725860770313706,80.93201094970993,936.2186700253428,1159.42828193558,0.030241374670045295,-9.429579742193006,-15.418315016714455,-22.592400697039587,1735409772600.0
1.5698409709394823,-613.6846599455871,631.5331946601485,-392.66656618462514,0.04554048810467362,15.805716357780696,-29.50478998998743,-1.049659670494691,1735409772630.0
1.4414108410148034,144.1300115171058,1402.2438868054844,1031.5018455589316,0.04017575634202836,-10.788058425628023,-9.788240433105786,-30.109366314190638,1735409772661.0
1.0084703340690215,-1120.315249941192,703.5207635823367,1565.2349507181236,0.07876860638012416,-28.11032924795514,-23.728478859447513,32.49826321477814,1735409772690.0
0.6523180258543428,-1570.7606584634352,1125.452329453512,-811.1820828771499,0.05250662033854464,33.627039550230194,-34.412265129522886,-13.575395404715081,1735409772720.0
0.8404123935386483,-842.9220623920826,1470.4815110802037,-530.9412036171951,0.05286374318451507,48.41900701715866,-25.731633276854613,25.091073015959633,1735409772750.0
0.16906836948634996,-578.603931993787,1086.1553096270068,-1769.5293561986484,0.06730829415794584,84.759064798797,-3.222610257120749,45.77666012732819,1735409772781.0
0.5845351519615893,-1107.9647761428273,1014.1120363999501,-445.9575422474758,0.008184719654616639,-56.07273378433115,-27.79486895985383,-8.935795679438215,1735409772810.0
1.4572446315798309,-329.17359687725826,299.0153161176956,452.19230263829354,0.06376785262392647,-62.87381608839694,-8.465202247158636,25.767955426043144,1735409772841.0
0.597549842070825,-667.6180310728065,787.0587425009267,-35.03809593582419,0.05675103839717374,40.55158661282,4.033624214885024,27.80796306229668,1735409772869.0
0.9782266087583278,-1026.4864565981024,1407.7660194670466,-915.9042763789924,0.018812630782007657,54.12887959811695,-15.633808443580943,6.356589667925645,1735409772869.0
