Acc_Betrag,Acc_X,Acc_Y,Acc_Z,Ori_Betrag,Ori_X,Ori_Y,Ori_Z,Timestamp
1.2932725517329602,665.976338981349,-581.2152609656798,834.0575815865053,0.025263198795986857,-4.055814008971366,7.085918192554043,56.23807060956909,1735404814507.0
-0.21277626560375906,-499.2823194699914,217.53138865182393,-342.1589577881375,-0.0016517718952914102,-21.447962955989126,-1.6250804430223997,4.984446730087901,1735404814537.0
2.082798443460245,-44.19220339214637,50.03155841996926,1315.8013714505194,0.019251546530417916,82.1330812069004,4.872060005678793,-26.878390595307035,1735404814568.0
0.828956050982988,177.804088128574,-431.94422349411957,1084.5761790137137,-0.0002271288390338997,-37.59716188483302,23.987067540884638,34.91824002238617,1735404814597.0
1.1997498042288182,-435.5063170231164,-216.91141598000405,-151.6984640651117,0.013863668493932217,5.21843853531534,9.453449279306975,-6.068693731103975,1735404814627.0
0.9761390713120853,-330.50532897668506,-304.73245775448095,2667.377348035342,0.04929782592400178,20.44440928017556,8.218250465064386,-22.693956681976772,1735404814657.0
0.6726086990096349,-1334.588759437481,127.73190155695073,2369.8916772805405,-0.010359624096563004,-3.827098499906663,11.137079030488614,42.3135415735483,1735404814687.0
-0.24433224581343338,214.05694722813598,-261.5482966442816,3.5942018826746107,0.011587261885780367,-14.694859089499122,11.697847411120161,-33.05656841192735,1735404814717.0
1.8146061992587645,-665.1553321126215,-599.9699776901473,1386.8323895993674,0.011812283930197842,32.54002757903494,18.44934041619147,-1.1047074489068718,1735404814747.0
1.3241273131917248,-403.59118354866087,-770.8494216882516,643.9651411306063,0.01873279945624646,32.14494669873951,3.130956911401113,10.052443872580422,1735404814777.0
1.4868217481286925,-146.66390239349735,-995.3276173266512,1047.8923320413683,0.007640767787760801,39.58567696382823,22.738113255996787,-21.0970348215411,1735404814807.0
0.8422331019869885,338.42367078301106,-267.5220986528097,481.6953158331704,0.03412626784754379,8.635351048962269,9.013053181008623,-6.778622119202093,1735404814837.0
1.0859000754460875,-218.56341470952856,-778.4987985499827,1237.896898256789,0.042710045871395014,13.97717817141988,0.02341025068721514,-50.87907127810004,1735404814867.0
1.1723022485787395,126.21183209050662,-48.64265650301368,420.2192823076167,0.015501184032377283,-14.545964649361746,8.274802488711703,-7.530070428903004,1735404814897.0
1.9959401925202518,-1010.1026126752326,-910.8306839129518,1445.7024488177212,-0.0033157704776008313,-3.154456193717598,16.299809121191085,22.86039031358021,1735404814927.0
0.729583266346991,-9.295684494221035,-375.06088998269263,1584.9490749824713,0.008909603675656848,59.08083832989959,-1.7695936085273054,-14.20856602878021,1735404814956.0
0.6072869762084905,-60.371253348713445,-214.77188192957735,1634.4707411385375,0.038341357984271025,17.06763796786032,13.013359706425152,-7.738678673890401,1735404814987.0
2.550277077332605,-106.88881344598335,-45.17260516097172,1324.9882122811546,0.007476161339460571,-23.29746550622805,19.74317640726635,23.493092611464206,1735404815017.0
2.4516600539486744,218.8899349474311,750.727231209577,1061.3218957153058,0.035343193741104256,20.113055225805788,22.041617147493465,-12.179611088479163,1735404815047.0
2.0756511001455458,169.99621414355167,-155.1931666440838,2534.8189306470736,0.043142934129784614,-4.620365132864482,36.125966858976135,-5.828780829518948,1735404815077.0
0.4616671512527348,-104.85306550218613,-499.253113209821,351.5642592901503,0.027399497142931092,-77.46291211515623,13.878229614977503,-7.92796086759185,1735404815107.0
0.8697353228050382,3.5278455245799734,-1639.9835052486521,196.82454483532916,0.041314154910789505,64.26892327024426,-1.5211087273094055,-98.44343655732177,1735404815137.0
1.0801361265568683,239.45994411445412,35.09174979808111,-450.84956864329826,0.0489390842664237,-0.024595324038784838,6.262190534230788,-51.84917387464365,1735404815167.0
0.19301249631972556,-40.882113108355654,-644.7450838896254,-460.63315961851885,0.019348089919741226,19.477571097522908,-5.5963019526620155,36.3136026416103,1735404815198.0
0.5403088821638826,69.1035751441272,76.10779681302955,-285.3549847790479,0.025474207871644318,75.86679855932039,21.68389004837187,32.362135754833695,1735404815227.0
0.6902210570811085,156.07323990425286,1240.0867546782363,470.95318623821663,0.06060960362293194,80.13920999999775,0.43774212850747496,-53.27006346037902,1735404815257.0
0.9758315669741361,-36.186128621976096,-126.42311159272069,-88.52269580131947,0.007067276329279629,36.04968152009709,11.859966572492091,-22.39910111569112,1735404815287.0
-0.4993674547685251,379.5984809755248,676.0487618013675,-470.7115640707163,0.05068664387203407,45.541679343243786,23.973407176330497,21.415682759869163,1735404815317.0
0.5472379936226976,-578.7178431520786,247.43830109621777,-859.8607781684688,0.04715480295053297,15.626881684042637,-1.4289982908470318,45.12522670095253,1735404815347.0
0.43282459284076424,636.8523573088443,-256.51108537708427,-1262.16256071281,0.07000461289235954,15.333798427778422,21.955419626144884,-34.080760423633095,1735404815377.0
1.9656832520912508,218.14713196831985,-1494.1221104703293,-1946.8324827079764,0.08128070036202487,-37.675536049457016,10.015109100230719,-35.03383183380475,1735404815407.0
1.1014354369635546,-513.1582722845762,-2464.4326057993853,1984.159601927388,0.006781797432797977,-19.907754135083714,2.0343554285163825,-26.551991992727146,1735404815437.0
1.765181789243538,263.9155884935084,-2217.2056898805995,10.465691908333724,0.06969591620799338,-57.63103244913472,27.213384073246615,70.06775561992445,1735404815466.0
2.2949788666023703,-99.44270434355064,-1229.2539735929422,-322.3532884659776,0.05425851078396701,-27.194011847204926,5.294775644307393,24.757005532805056,1735404815498.0
1.4580963470941515,-257.7986110473323,643.443449694631,-31.121221663508265,0.05028305190042279,-23.01604765393254,-7.900282377048849,-12.419194127690417,1735404815527.0
1.2231685979501528,-628.6760772606106,671.7381135296083,-299.1089876000152,0.07102311915047219,10.363560067397906,-6.968363448180095,-84.54832692583096,1735404815558.0
0.16502620118713518,-4.940191931790281,1008.9970558957266,1168.054089822853,0.035068071568493925,-61.85153018463281,-0.28631475911831394,90.46111847020234,1735404815588.0
-0.013531083678921196,35.8962829446092,108.16440391595847,225.43432328120412,0.03834535473541193,-59.186423209024085,-3.9000975187473124,4.7369233602177685,1735404815617.0
0.2066096039191191,-207.5027509710044,865.0029889591846,769.9468066171013,0.03672048687325709,-92.92928327762847,15.388646941649993,26.346707942046475,1735404815647.0
0.6171113801710311,491.17737604557936,370.8105603203239,-631.2165168946412,0.06947425988338368,-57.99484205928466,-10.005159254641427,-21.163015765750075,1735404815677.0
1.1968055725958169,691.4889370273002,1019.4074503216173,-1104.766478424601,0.07250619429320075,-52.99096184824563,-5.437833386340476,70.2032972293451,1735404815707.0
1.2207502053968633,775.4371076278946,1179.5283330179252,706.7684115838031,0.0651779390180698,-49.494323152960455,-6.23495816117582,37.900215181249266,1735404815737.0
1.1285299180373942,172.83964322431814,1241.6948403087918,-289.9426087883355,0.03254395992679069,-33.24333121564151,-20.750086722473764,-8.72004459885879,1735404815767.0
1.562409546912963,314.2546948493613,1428.7151557908742,-128.35849935313632,0.0518166933634151,-46.80725509527596,-8.419562768988618,-28.09546024096864,1735404815797.0
0.9197817585960567,515.2162884428169,-5.642441329557414,-1414.9503943192165,0.04900092874012338,-27.910483590982643,16.334706964950165,-82.29902594162294,1735404815827.0
1.6899186442313106,458.9851811003143,1301.9727635906388,-1260.0687292845837,0.03926586997955484,-5.596277972228078,13.280572674115996,-13.887540254931295,1735404815857.0
1.9197165775675105,1194.2314678262042,1043.8703731743567,-854.022631213048,0.04126497290611267,-6.980981109598282,10.230012847633104,-75.51405596996938,1735404815887.0
1.5313174095871789,1037.1661632872701,856.6344171884807,-324.19246391707895,0.03119150241340914,3.338412616408231,13.10910563984261,-69.06061248254714,1735404815917.0
0.12019582700173626,473.40787115692234,1526.3179609211343,-473.02124735508676,0.022572437353316037,7.278946080201051,12.854717847691454,-47.89941551094275,1735404815947.0
1.3225681604938324,668.5647860222589,1005.8220626680263,1080.2999635921342,0.025791097530340246,87.948971965662,17.08778423244874,-19.431311872016508,1735404815976.0
0.8874925175425487,752.409003133523,325.6055361662145,-844.1746257628629,0.03781115656531738,28.842746754598764,16.71556471076163,-59.47984123650644,1735404816007.0
1.5521325865595466,-648.1502577453754,1500.171585199493,480.44797786718607,0.03136996738494781,-6.486943778532717,10.402580416956754,-54.60620063495481,1735404816037.0
1.133311511427287,569.4601577615258,1001.2217294316267,-81.32283521473232,0.032916281658022434,2.463272744033592,19.65618002115102,-52.73505719226375,1735404816067.0
0.4232597615269992,361.81464607086775,611.6116697395978,1065.7094911818092,0.05683460225049461,-30.37725056074225,10.753864244974352,62.21893595401541,1735404816097.0
0.994661497591015,-656.0804798496084,1551.4341893200253,-366.69064372119374,0.050303340911611226,10.05089376557406,31.53774963661354,61.24479641560269,1735404816127.0
0.6867936597962152,331.7216212299944,1231.8728653271232,-86.24081031397805,0.05671276895325693,-25.74294164443664,25.45916967441373,34.85994796721652,1735404816157.0
1.8349183040033097,480.74412839661335,907.1481085341102,132.19403734385963,0.043984945112880695,-55.78499793664527,15.973335812579611,41.010234773375004,1735404816185.0
0.8673263059617902,801.2713969061587,1303.600674508474,-592.4168451508639,0.04325493791349551,13.273650912041795,10.581639728631203,57.704004668390056,1735404816217.0
1.117400422417716,476.1281681677531,597.5546317360513,-741.0255981766328,0.07558867765034591,-10.15499985543859,9.388096636730808,51.88568529343245,1735404816247.0
0.972419456420484,-831.8439808593209,1945.551950534426,-359.5578880779756,0.030513996740557853,-6.343855629538002,17.48032939280435,103.58935303650536,1735404816277.0
0.3091772452877465,-144.56065865828822,417.5041257097995,335.52262754512327,0.03672907238566208,-12.337441997685172,-2.9566579290397463,37.96420471678363,1735404816307.0
1.1661231450882825,484.5891370786326,1708.2911838323625,66.26998308617871,0.03993699482835868,-49.76438265874811,17.873850614493936,51.7808037005192,1735404816337.0
0.28814807504982487,832.835268131452,1724.7409063722907,-567.9461414592146,0.05906134142889226,-51.49886989990016,0.3298954923948525,-54.82478310655122,1735404816368.0
1.3652219151368175,1290.1392999232708,1023.0016738205636,500.0242261750483,0.06580143887838305,-32.13232638244412,10.07980158313055,15.636940020020026,1735404816397.0
0.38402244670683383,1315.9494309538306,1321.6425384258062,-492.66317409428586,0.012411064658639268,-43.931500222807166,-10.065133344504785,-4.398291420896861,1735404816427.0
0.10345219940398576,-573.105438364193,436.8996185927614,1020.2346322117223,0.03610764852782461,-46.87961011791367,7.68091795482281,-69.21031512668523,1735404816457.0
0.9146269585369087,-103.62513501000262,1506.2541399777192,-393.5617565857144,0.041119691817640795,-23.18472273437098,0.38029427491353207,14.17797439141947,1735404816486.0
1.7889051972219825,1306.783085958474,1383.3607279946054,-1155.6764885991422,0.04974744044991802,-57.22125438836103,-2.1727407941591386,52.08966189906539,1735404816516.0
0.7825294129413705,1434.4330515531014,492.36542887682094,-1057.020872318908,0.024366840842306847,-9.64023191794227,10.95762451780218,42.32480497339645,1735404816546.0
1.3149384129285946,-279.9237016767734,991.1251157817813,-310.214941872031,0.03726641171311241,-56.0185724167224,2.038375691347464,27.527070211225805,1735404816546.0
