Acc_Betrag,Acc_X,Acc_Y,Acc_Z,Ori_Betrag,Ori_X,Ori_Y,Ori_Z,Timestamp
0.8608387626235809,1353.0179655647485,-150.39551954477145,-336.7554382125471,0.024379417375660274,18.13647271668964,9.757013027167142,-59.349861751686035,1735409365161.0
0.2787231301740709,630.415576433873,889.3567448813287,1276.3862233196987,0.020746466633471673,5.359775194452034,-2.16548554545665,6.935976587578123,1735409365190.0
0.9060043849445412,1058.5343510922216,-106.83654976620394,-4.756781125531688,0.014486964262977955,16.603377799753588,-2.944939677492645,-72.88315778336028,1735409365220.0
0.9884482583130287,1560.8374618912162,289.1616721926366,1118.5768117139075,0.03223701777668491,-4.735150763257176,-5.424488959185057,-23.821612461427293,1735409365250.0
0.6819745914282357,841.0740489094317,-520.8097770936287,374.98708321354775,0.07610682983676394,64.46971395251487,-21.035263231945226,-27.424139315074356,1735409365281.0
1.1582812415499897,803.7268305935565,-115.82020578649593,-909.1200983241404,0.033178699880637715,-51.020300632939865,-8.328044882298418,-41.8501741767676,1735409365310.0
-0.03207381398331466,-25.349168695310198,379.9992307069658,-722.521907925992,0.05538950965320207,-35.633569424278555,10.093649468360791,-46.211388506989564,1735409365338.0
0.4729418950895534,487.6555036024839,-514.251649710847,-293.565059505205,0.01632189971268113,-13.165035820634646,3.189812889891749,-49.525061494735446,1735409365370.0
0.5951573940748038,847.2023978969208,-336.5229119073681,21.891303405339983,0.03291466094838168,14.95664777941883,12.863100840637042,-22.080466774850947,1735409365400.0
0.9642602859546276,63.1572708494885,-687.2200765139592,207.15250264811624,0.03571493972431271,-27.116869832132817,-6.371589923946669,-88.35429434287899,1735409365430.0
0.618745571781184,2081.3810156348745,-1269.8998049589732,-437.36068993103254,0.034618649771693925,16.814800554189546,-5.529037794155789,-11.478864440009723,1735409365460.0
1.0512837748764527,1018.1604964076421,433.44627353207557,59.5467041256926,0.04535030513720478,-9.153793783851672,20.818066133676034,28.845639362740073,1735409365490.0
1.527115852868995,287.66658394794786,-1241.185016135169,-451.68643403363797,0.04854365370659133,2.832682851131942,36.02922135356812,-61.97305138686404,1735409365518.0
1.3535467859923997,604.7530353979209,-575.5809082250481,-406.4578955217595,0.04487781303380903,-48.02072204775573,7.404678436205256,0.7060318425369632,1735409365550.0
1.4547102676431782,523.8405729723322,-648.1138711266411,-101.65241489602874,0.01577686412053904,-17.538410373295648,21.298747532707168,-11.607941238230818,1735409365580.0
1.5351632994072724,1146.1528876604118,-195.69335638469929,-996.2200408539381,0.03752322320371798,-27.104778333628516,-0.6481316893758073,17.564662814033053,1735409365610.0
0.4727773328336021,1659.7685595523412,-269.97623139681684,-323.9966728680693,0.02357930720050861,-80.39075701727691,-5.460995015844901,-25.41289752914129,1735409365639.0
1.8486666192938417,2160.1761737823863,88.93120624534544,-403.6684287624112,0.031658605814012294,-77.03924608809425,6.488860627436884,17.7817340058436,1735409365670.0
0.45603989371751263,904.2234041350886,-806.9738087173465,-775.8235568964056,0.04846539933248125,-30.26632315316511,-6.804499608113986,27.196291923709342,1735409365700.0
1.0299257307393932,1828.258610200081,-828.4957672042548,231.55854006373636,0.05595625263580777,36.933307951572814,-30.481345364952375,52.61571908899182,1735409365730.0
0.6974406187498996,637.3411408439367,-346.12550412090144,41.167372602823434,0.06235967747512272,22.006177896227932,-9.984669828107586,-56.880463584683994,1735409365760.0
1.4246240736567324,639.0843984166138,32.86906620573976,-58.308328453176955,0.06551981652871289,49.37324673371285,-18.69837515788928,-25.34239739007466,1735409365790.0
0.9775288693887805,5.37623707814555,-136.53243199955546,843.3817918595967,0.04662873369777922,28.317647494129318,-6.418345508071802,-6.62963651935895,1735409365820.0
1.3757879297574893,764.0345847053129,47.273012221188736,-1318.6665352418759,0.0486835777629303,92.38064439000595,-6.780717207452967,-42.10701782069796,1735409365851.0
0.8693967939758285,453.81315467939964,892.2031318699451,-1010.4082345458901,0.07036220544237475,24.872393859691886,7.88433670662114,-44.02112910109571,1735409365880.0
0.6135307927889332,1007.3873320601376,-12.474286917563603,-1679.3670224348061,0.033730073396308125,16.995866789607568,11.574402068081033,21.03153984839712,1735409365910.0
0.7951782106010115,-97.00440059071457,-764.159940948789,-244.39299769158112,0.060242580807146624,-27.356602422105688,-6.071651675813967,0.32040291240996766,1735409365940.0
1.443154025905946,-266.5639578073493,-479.8222524741525,-473.2046867690817,0.04772293411627544,-55.06032677453661,-1.7474572122310863,29.051083646356673,1735409365970.0
1.0879167616159113,-214.62451600761983,560.6828319609448,43.818260372700934,0.028144563402746788,-17.194286010122024,6.903275506643569,-18.87697076348148,1735409366000.0
0.8989855016563613,399.28201490761234,525.1513719519698,-214.31387139054306,0.07507818047873478,30.172888780672352,-4.741025758431654,27.734746573537137,1735409366029.0
0.17609277398485446,468.2368167208989,709.5753135361886,-1254.9654352009356,0.0553634987464373,54.9854387138021,-27.168424889220354,30.912846287776233,1735409366060.0
1.3546469215079797,-108.99917172356265,460.496975322091,-751.7372126425763,0.07954737417956695,43.90308659503417,6.425637582317725,20.835948035314658,1735409366090.0
1.1706130690718097,722.1501266201042,917.1888653489668,-143.11557299954939,0.08007815193011003,56.30767464879124,-11.410140610217562,-9.474344833859739,1735409366119.0
0.7269783497115294,1471.9715458816231,230.55509673871936,33.375025732445465,0.06158785551332393,-70.00377724519092,-6.160731021729315,4.366374946658496,1735409366151.0
0.729335124950823,803.1792624936752,230.29702309568148,393.7547074783131,0.026587452763653825,-75.41452519017972,-11.599618953187418,-34.04804898367269,1735409366180.0
1.7219936049234112,236.04773863067135,1394.2661258643907,-974.4112818752526,0.05389875237308523,-43.19721690415565,-3.709344229849464,-13.242083022151009,1735409366210.0
2.1739342348992223,1832.5485166189978,1827.578894517998,-415.1288449876202,0.03540393529007333,2.1191333131440615,-6.60558448273326,-60.04539877939682,1735409366238.0
2.2516360533525672,1514.2326783165197,662.6257521053209,-786.1172132596286,0.02905187295665331,-17.707629181561842,-1.9919448670260431,23.899644610098235,1735409366270.0
2.508338790788791,2186.587310551552,1674.7268003183365,-1068.8115937628759,0.03341894292209774,-42.53217058614571,-4.889527586191851,-31.998075724001843,1735409366301.0
2.2499035294629404,916.7044174605746,1503.5679340046167,-1054.8416915866972,0.04295581326089592,-46.32796445905882,-11.553578522207241,-15.163911014688246,1735409366330.0
0.5724386799909909,892.1905773380845,926.9750778015052,524.6174011624711,0.036184407421782576,-9.044824349667522,1.7953895011200245,16.873660047230242,1735409366360.0
1.2090129181959548,655.0593435188617,631.0913417924298,-389.10822501258497,0.04991821785090888,12.528023140288177,22.47153951737894,-71.52622216433956,1735409366390.0
1.8400278510115788,512.5753906173313,799.5484267636454,569.9492864726552,0.03768466473378496,0.32178045360951124,2.098816832941635,-35.461301793809376,1735409366421.0
0.3881128769673087,700.4094977005277,518.5475196415628,295.4149301556567,0.038456615549849374,-21.68939323969811,5.0246419779843565,-3.2639585864701424,1735409366450.0
0.3952123314694782,668.1040403466832,358.4214530405323,570.5536342490001,0.04105073775766041,-13.772879946384196,5.509281158119846,29.448971479208193,1735409366479.0
0.4940695886819921,335.57400507292914,893.9171961515993,360.7086908008231,0.038152276855096895,-2.870708467154532,-4.446501493701831,0.1251818104660849,1735409366510.0
0.1915292712479066,-502.4082963273381,251.302514763658,1.7411384916640467,0.045539825407703495,71.00151835593056,-3.4398419438904795,17.866812153721856,1735409366540.0
1.334517058153404,65.28237193634232,-180.3790594645313,-621.8668784043438,0.05379067722723194,-12.411923850634338,11.411067342638692,-11.2958491798275,1735409366570.0
-0.36045894276173174,410.8062235662734,-352.0115944852073,-668.0083305326662,0.03946600707859472,57.01142836830936,14.312016359774148,-9.739793199277052,1735409366599.0
-0.36490617181447116,88.79981128709727,0.21732231610184805,5.141633310410525,0.02490012301353935,12.207310529023594,-12.144142805555392,-84.88650827875149,1735409366630.0
0.7530873358181314,901.1000256328058,-601.5199694475853,793.8429622579902,0.0005611223630303704,40.62904333439315,7.5828249270584624,6.269032267988917,1735409366660.0
0.40528208161556906,15.515235966903674,-453.6774494376417,-198.00476647284412,0.054879626333886364,13.469567203746834,-45.62374940276541,32.04582855922965,1735409366691.0
0.5175525020826026,-388.4798919555449,-193.08584954350252,-933.6159066489357,0.04907855311462985,-32.12854099608475,-8.496390697022171,5.433605573679401,1735409366720.0
-0.18185007873275083,476.7636295798248,-379.2865198384424,-716.3027351113137,0.03165404135595554,38.849928233611934,2.2547535015809745,75.68544655889826,1735409366749.0
0.4504422219063542,509.8000252130741,-303.9953177103047,22.1565667487464,0.07064765634763089,-55.716580452390865,-0.5092803749162691,76.90854937845188,1735409366780.0
0.513085795399032,-131.3600160801952,-602.8892484519598,-347.84862355716626,0.051135890088101946,-50.256172346994944,13.137098277972562,13.724394895433068,1735409366810.0
0.9195655355801666,188.51941838863064,-312.4746198075421,1179.2085803043524,0.039318871968236475,53.91224207350585,17.52718039307129,-13.35083764881631,1735409366840.0
-0.7227816674255384,804.8544578598978,-304.25263119219795,556.0345033933357,0.03638087662334842,19.373038678286534,0.5900527909386604,31.013721978282483,1735409366870.0
0.8310257846124798,791.005714025566,304.4230207272029,535.437268099292,0.018289729109550144,58.243977589222865,-2.1648604109202902,-30.086236141363806,1735409366900.0
1.2660101721501344,-204.05590290715185,-1270.2810301126665,-1129.5656686180332,0.020848956660111155,12.463939415319366,-2.965348569438669,-0.8310263494707182,1735409366930.0
0.08840304167798158,-108.69523143639063,51.99530883556513,-408.12414293106167,0.035446350320493106,14.502741463647725,0.23810429692779778,9.097990891478329,1735409366960.0
0.6378255014995093,272.07980297709094,397.2882130590033,226.72518130472835,0.05096924614261572,48.00858639087845,-1.569974900494814,-32.634293254427405,1735409366990.0
0.26123060188422,-162.43139949355586,514.4842312013632,-91.81013586511804,0.020409846782539702,-4.211619720575102,-30.047956108532283,26.96743631878648,1735409367020.0
0.3406839790601218,-230.66726437728443,-697.5612379825128,-379.03562394956936,0.005463867484582134,64.64041380982235,-9.636142936226541,6.8107986177031,1735409367050.0
0.7961758078865948,381.69651351208046,143.96520412299952,-13.523316665815756,0.0016234000146788455,32.48722400073076,7.645734944755386,-45.24093473016431,1735409367079.0
-0.8512783740819079,-631.2357254810804,615.34448426899,383.7231451340581,0.03010971855666868,-6.327129777413931,-6.952400312498675,18.68006830914711,1735409367110.0
0.1024245263045406,-54.884681048879145,-360.0810326085595,1266.116185706338,0.02650957484931119,-14.283399775297111,-11.939390564426986,38.11495335171973,1735409367140.0
-0.8122506439510628,604.5435327735975,239.62203359925402,1347.9383031677266,0.031096544447559684,45.79902464626147,6.257144986608559,-0.2731900532177063,1735409367170.0
0.15463445133255266,650.5126505078917,786.0775607758837,-30.236890770603907,0.049348254335875766,-4.474996003187945,-24.437071389967194,2.6764848592003716,1735409367200.0
0.419627069577978,195.84590433735076,494.92958360573385,493.6851278333979,0.00641477320076201,-16.128110100372005,-15.460274417659342,-46.39737157610858,1735409367200.0
