Acc_Betrag,Acc_X,Acc_Y,Acc_Z,Ori_Betrag,Ori_X,Ori_Y,Ori_Z,Timestamp
0.5946340113083437,-198.93452285761748,894.4650419769976,-1219.9737886119888,0.01417180398917766,-104.0306062980587,-5.769310183741647,42.499746063158724,1735404972643.0
1.2565905163557802,298.83010306242323,1137.2252580645065,-659.6520532213724,0.0173818610302258,2.8386996877149,-17.39821286557399,19.905616114545033,1735404972673.0
1.56419841101485,-116.76119598690784,1909.0215179190702,-914.5483247963805,0.02709301182394091,-78.67434217112661,-4.185293887921851,-13.613474170990228,1735404972703.0
1.070875362634234,-269.40295136409634,1262.2340601134642,-210.14597212223467,0.04600921829744152,-23.537501675281415,-17.429268131922825,34.896757236662495,1735404972733.0
0.6435343645858955,647.6705709992888,435.87124734362874,-337.75599539805535,0.022059904371207244,5.673465196729541,-31.579833189500015,37.72681988977997,1735404972763.0
0.26805664564227727,-666.6446709830641,1462.823267035617,857.5673950100916,0.053903207462226904,19.690233255532497,-33.554576241879644,42.32049323336519,1735404972795.0
1.3161306030304907,227.04369184770562,990.8742186930185,306.1478984897791,0.04432124328924619,-41.40808476103885,-17.26179338173306,-2.0018289900638884,1735404972824.0
0.8615589083487595,682.7254287680912,1089.9560544021208,461.75355910595897,0.053938930165297404,20.43075410520232,-17.487255258170652,32.97489811533954,1735404972854.0
0.2646150103049635,164.66633745207085,1617.236856294538,814.590138982965,0.02230387330944715,-15.58681507047168,-23.46480350145579,13.550276408301503,1735404972884.0
2.0464373025765656,-395.50951421590446,1129.3791993966322,26.38738991780467,0.012513248649346883,-36.84049291724311,-12.994465833525016,-16.752990497021294,1735404972914.0
0.1291850505715264,1025.4270226702326,1578.0462721191582,318.9323780558734,0.009057089229706659,3.518229463901278,-29.51137449979271,37.25758568244692,1735404972944.0
1.6172147150759761,118.82935051088252,1152.8918120698718,-309.56085574539395,0.008830068843408567,-41.00561155235755,-35.441162647962145,6.200165809837842,1735404972973.0
0.5920053690382936,-248.32825821073385,1294.3938109209942,-493.1090378779061,0.009086720234649443,15.918260938817808,-16.482634078143757,-2.7319278397124047,1735404973003.0
1.5035382420483039,-105.49880800287102,1946.756663845136,1631.572848132102,0.024418707675668606,31.238340101661514,-11.179461416759182,-27.64288035767938,1735404973033.0
1.1305779709616492,-184.74371051824,1663.908485086299,457.55432860878557,0.018685132349975726,65.17292745859352,0.4939855703379479,22.274272459371215,1735404973093.0
1.3249502107834124,-510.4472135853229,1260.878326718489,801.8783368870872,0.07113930383651465,-44.90274966501785,-21.54585120117221,54.72154936557121,1735404973094.0
0.23308587496394806,1064.7738198230222,-332.0066471644227,-212.13609636062685,0.05924675138758299,-42.36071222737373,-9.539791241807691,18.930899879934014,1735404973123.0
-0.4510078370901988,-38.5906886119154,-630.8755844870656,-815.4747382272215,0.04915906215098076,-27.216068421759065,10.527148027613109,74.88556824351075,1735404973153.0
-0.5276807544222095,308.2149810152191,-392.3313069215606,-512.2591527583913,0.037499639759800765,-22.54506892208132,-8.717404811264828,-14.351078229309302,1735404973184.0
-0.194808921279081,55.02577552369301,1133.023627112276,-519.1850004585219,0.03290481080532605,-80.14904080764896,-3.3784794244927987,4.77789539208899,1735404973215.0
0.38337196685442526,51.866771067883484,580.0696468968605,85.722703369501,0.04511657514561712,41.75191542705558,-10.3045476647352,7.913375557373861,1735404973244.0
-0.5176007323345408,96.44567930440616,-143.81980092999225,216.60529550019083,0.06237222494840739,-32.662399658965036,-5.7537112530765135,-11.84674969718981,1735404973274.0
1.1693183833022278,-456.0916126712882,-665.8193333603575,-276.17106319125605,0.05892699067395238,1.9286822275174842,-0.44603467886514814,2.7010011380691488,1735404973304.0
0.5741394605013123,-631.4812480109396,-1199.8039770608696,344.8448942257025,0.0545046737518671,-61.08999302554853,-7.802081968891775,11.377824597801942,1735404973334.0
-0.2116817571170585,790.211928916876,273.40033051772934,-1207.2602108922013,0.06408292712860579,-58.99058475966818,-12.561463505704102,-20.78645587618765,1735404973364.0
0.4444864755002617,-374.24182377078137,-883.5127536896263,-1390.6344134857854,0.03392598923145876,-56.09009612688753,-0.563281728424128,6.208020869099208,1735404973395.0
-0.0941222210447954,-651.3822658256042,428.82977286192863,10.225893711848244,0.028133140030714543,-16.25950449183694,-16.783099538369648,8.20318672962891,1735404973424.0
0.9834980589236885,-358.83847427858126,-482.81558070141546,663.9857043731636,0.06665185330899352,-24.398768630143827,-9.37391729528505,37.78565194660466,1735404973453.0
-0.027839491154457496,-460.54482979131194,-1023.9184926920934,-1538.5454407742068,0.058013570165423245,-32.74790118076733,-5.156292059272102,-20.059767829469827,1735404973482.0
3.09222544473888,-168.737056156853,-1217.631503957222,2196.6139321835826,0.03876673578206158,-74.86542921011696,-10.487593081997439,-51.429409195378774,1735404973514.0
2.6351894964641005,-1506.1848815034493,-555.7932676276127,2467.1948406355023,0.016074891223206884,6.3808415720517,-14.21008761507375,-8.659569844818169,1735404973544.0
1.4822359491508628,-198.3924501390639,-1176.577560011805,3094.450479705949,0.022381000611228285,12.4891630387085,-32.32643585638748,47.90307920190368,1735404973573.0
2.269243987494925,-458.4267159744455,-835.1801885245271,919.7123440188059,0.03763349415815681,23.849559903443676,-19.24801157623181,25.743602504872833,1735404973604.0
0.5617754483205609,31.85931834981605,-298.7365685661501,-70.54956354394778,0.017857746445319865,-53.9964223027948,-11.746681821156468,-9.72422760834306,1735404973634.0
-0.06537712467154932,49.28743714343929,493.82319779543377,491.4319125316639,0.024241943970387862,-36.96130064073278,-6.1037832426004055,-16.46548850758213,1735404973664.0
-0.1658890623146841,83.04494811483879,-282.94759469308167,-753.3938156194497,0.05093550419219271,-35.397099422866006,-1.4540339806401725,-2.6428199892646163,1735404973694.0
1.1331790732721232,-537.7586709246555,405.12686690558814,-489.37756717715706,0.056395550037149814,-42.95649516092004,-11.963892139974472,18.560610344907033,1735404973724.0
0.753150405524138,211.8439285445317,-293.88542138947525,339.9916615574733,0.05066726947016856,-52.772655058160595,-12.537419737658022,1.0050559974407722,1735404973754.0
1.9867544875191185,54.68294014888241,476.07281450190465,2932.377988410373,0.013612724650266694,-37.34749281488756,-12.127738852682661,28.174789894267125,1735404973784.0
0.3269083247290654,-860.070322319303,310.48177663680343,515.8300918918884,0.005109549664060197,-8.27506608024737,-20.568446166464273,44.949535445441775,1735404973814.0
0.9334963354358825,254.46886922967883,477.21110178463744,1184.347024346558,0.0033775250196771706,30.780256359267227,-3.4674155237056477,-9.173154400610336,1735404973844.0
1.1113754771773732,-301.8374819860526,-368.07430162477624,-28.854430533821414,0.014571140229795759,-25.272167563705743,-16.977617667425324,-42.43718321875117,1735404973874.0
2.375860007539522,446.5442131526545,-962.9676093624184,-940.8925959942003,0.0024518039296037297,4.088628840929996,10.378248384274888,-34.89109247170549,1735404973904.0
0.31756678283843587,-249.52839419017624,1085.1106021236285,251.5306944028015,0.03449779771796116,-3.5614944399805046,0.03108744084719417,10.574364815268419,1735404973934.0
1.6584337371546045,-765.511040634537,1391.663313229961,1618.8180102456263,0.014814115348060607,4.755306978898209,-4.6279980623055685,-20.86780813107991,1735404973995.0
1.1100339342094394,650.770433910557,-98.466550895669,1257.5037750438507,-6.708053643889392e-05,-4.61308316074663,-0.7368551453762837,6.339647970708867,1735404973996.0
1.404764070249907,338.00606590513985,22.61194669750668,-0.4773929404748287,-0.009837323395648297,-27.758002655713998,21.036673851630994,-17.018008654068385,1735404974024.0
1.8657546892688734,499.87015108087655,-82.9064464999899,915.6450007582927,0.015499309739229434,-16.747196822581266,13.66851067544116,-16.941491335758638,1735404974054.0
0.794407318699816,-305.4162073219453,735.1619000669589,1835.8590136870114,0.004751267838794419,-15.979219409741853,-6.3811109987412955,-66.47970586599108,1735404974084.0
0.6859343395047319,805.0126775637752,-359.4862716437602,1521.0748664834177,0.038512863209524316,-37.74707067338031,22.194522271580965,-21.205669333689443,1735404974114.0
0.7664213927745347,-200.80908674031798,293.43375244196966,251.42832188418913,-0.00046609505820498394,-10.995172121265975,5.215717365031583,-16.260899435877775,1735404974144.0
1.3034938137801666,201.74722877508174,1192.664751552285,548.3357894171509,0.020368474065879383,-27.1459705011844,-3.6395445612945627,-37.15687056047389,1735404974174.0
1.8979100129029036,-1031.956413371546,-920.528674980014,1352.4761229226897,0.0011347688374904498,55.85122304598889,-6.5111082857137745,-38.658068641744975,1735404974204.0
0.6273547560654157,-594.8185251243656,937.7307007650398,-545.5698965915035,0.02431632924675881,-41.82080487872538,5.2244966407586935,28.384698340224613,1735404974233.0
0.8794339704314786,-0.6198329014933108,75.10220592979412,-1196.6431998178355,0.016080377092384204,-89.90332377657944,4.369911391785932,-1.278565263191985,1735404974264.0
0.8113314671586619,-303.2456996029867,228.19371453523405,1521.472847177442,0.01230659429294314,-1.0470653929877483,4.630573302383282,-32.180276214877736,1735404974293.0
0.777222080401724,-145.98056172224415,-1317.216562232548,505.0051634222496,0.004547087474191037,-45.33433403922867,2.1278076385698643,14.242593421209165,1735404974324.0
0.4358460391794722,-1194.2305484824662,-433.40973707801203,953.6311667277553,0.02553564613487399,-33.48780404152461,18.35050758271281,3.387599459351887,1735404974354.0
1.8389584551614533,-454.1739741724389,817.2114760060092,1826.9201799595248,-0.011306216770940786,0.6823242220482539,10.517627881448691,-29.269100690860363,1735404974384.0
0.9672795485504789,-1185.9989564178204,-378.7252084630098,1676.5453118493579,0.039645630028131235,20.776467680408675,3.9188451844941676,-16.080861827819195,1735404974414.0
1.1453470456629788,122.53241163937673,-64.74521376677339,1123.011767332685,0.014747241427468053,48.541179929328685,-1.0626875346325626,-26.928656617830008,1735404974444.0
0.4179744853788585,-421.0926703028672,152.66164556652657,1951.2316996869567,0.03402280987752331,33.322692073076716,6.755726097171324,6.998365891835835,1735404974474.0
0.9874146470110515,-406.2718945397552,-324.2565656669357,2145.531234248195,0.02385720457317547,18.91258368531471,1.1856584995592918,-24.199103321364696,1735404974504.0
0.7942782663093795,-338.4902083200094,48.07287315861301,1731.8335429463364,0.025201952682848867,21.263882710653434,5.555251331481361,-32.04090030062615,1735404974534.0
1.1041004901549814,-835.4607470631553,249.96510662530866,1476.575609008915,0.007337806031466463,5.671090070223505,14.783068674432254,-29.158397788059556,1735404974564.0
1.2591693185408825,-694.9506607744232,-317.526429505573,1462.8118868880015,0.013078279812890338,16.67094583316158,9.499361829103323,-34.72190910828434,1735404974594.0
1.3581373378472414,347.64731495813066,-569.1630177826117,578.6318330605231,0.018322637459917857,35.2442221691286,20.52264013219152,-17.703191541053535,1735404974624.0
-0.008649492569896,89.69917945018835,166.00278204307358,910.6011855576974,-0.00905276156770875,32.894477532346805,6.518242540737743,-14.462380181590849,1735404974655.0
0.12222691089757765,-19.9879012214476,-133.15346885987526,1203.0050882443136,-0.00012610368338112146,-72.63965175664858,11.967044294502102,19.309128444791742,1735404974684.0
1.1216180898055446,79.80025376732453,917.9655995905363,891.184425905065,0.020969253910233555,0.8285338566915128,4.51172251759436,-8.198131500892169,1735404974684.0
