Acc_Betrag,Acc_X,Acc_Y,Acc_Z,Ori_Betrag,Ori_X,Ori_Y,Ori_Z,Timestamp
0.6892095451413335,-593.3358266251889,-248.44796795854967,-541.0005273816946,0.03950285195264486,23.948704238293743,-16.82221237854374,-42.631390731138865,1735409770805.0
0.6720194413236342,-412.64843575444206,-356.8376513727302,1530.8722846796336,0.07640029451217754,45.17487086200059,-14.737326440332996,-39.97381708454202,1735409770830.0
-0.14848498313275993,-1807.1322733795423,530.7649448366055,-274.58239875482263,0.025250495091790302,63.970785210234425,-10.329804328614129,-11.524149695102889,1735409770891.0
1.136230027842912,-1293.9822690282247,-344.14243839688197,500.844079400955,0.03278055155285575,4.054030425619935,-0.3835982567886429,-22.606369602409305,1735409770920.0
1.6281635386762061,-573.3119436535587,-26.730120050897796,135.9665996015537,0.05404604305095777,13.715890834185622,-1.6146005971808375,-79.75577698328382,1735409770950.0
1.3064510748459153,-2406.645356040136,-369.36988251702314,264.9184846461929,0.046083214227318724,71.44666751651995,-2.32663951220362,-16.675669971137076,1735409770980.0
1.1457818051366162,-938.5110287342455,381.1219305206998,-33.398237365236184,0.04123477824507856,63.739135375415586,8.960425277414464,2.6493214941114616,1735409771010.0
0.17905031593800091,-1111.34957365145,-141.89433582680465,304.42229657556516,0.04776649851026671,76.48585267702182,-11.465276661018429,-33.833137900994345,1735409771040.0
0.7913271043695371,-752.430415968638,1341.198052522061,272.8630868200868,0.03654201708926879,27.730202671523582,-23.111011224958688,-71.67920239881636,1735409771070.0
1.5344000448248307,-961.2750915376878,892.8351350733975,-722.4836593129853,0.0500361856497578,33.97661957840067,-19.898369948577585,-11.774275272578667,1735409771100.0
0.6697304104538948,-736.6519337255422,-203.35819742132918,-1241.977234613832,0.03841715447726379,25.134854048596676,0.2969198816259295,-4.480871941820364,1735409771129.0
1.4873188063306126,-144.1567372717975,-139.73252111802708,-1086.382775563684,0.028318474836134463,72.0013118016875,1.8841133044864504,-28.48324862205399,1735409771160.0
1.9142886827139558,-662.0680808775719,-656.7729890870332,1255.4357370772486,0.07500718275564558,38.031952044427996,-13.833605413362813,-24.39311464127622,1735409771191.0
0.6554225621254945,-1061.82820376324,354.3212083973981,-1281.663258234007,0.03360673878000799,56.840192138394826,-15.622244680382483,-49.29211701108187,1735409771220.0
1.643442685277844,-1631.0355224364318,-270.87579720968114,197.35479463885645,0.06468817887897808,2.940250723153355,-0.3041387597069991,-46.57776141842797,1735409771250.0
0.9374896210568172,-702.8797633333099,-11.309829391064653,-384.9828881873227,0.0648894376297629,38.77949531334508,-10.35482743861522,-57.32601107499951,1735409771280.0
1.6438016264591746,-1394.0329918436198,-974.815812272752,-791.2539413836988,0.07320193198780164,55.21898383668499,-8.615982012418089,-56.83534884261165,1735409771310.0
0.11764071878816275,-516.3070443853596,884.8706320800828,-1233.15069467597,0.07166158223130324,-11.960025646641498,-7.535823242869877,-4.571760406117519,1735409771340.0
0.1943604313810654,-357.18696443621786,-311.2675697932965,621.2037738757193,0.06240965480633665,39.83533790891232,-7.846023304249115,-16.468085424389372,1735409771370.0
0.4068759223296987,-127.07798560073829,-714.501966727596,-1638.5849185505235,0.05892919070080882,-55.33090629291089,4.055436424218608,4.002988443371766,1735409771400.0
0.20326584572543527,875.467849269481,232.1081919124302,94.11518492046909,0.05268079150396337,-53.44732933366327,-3.450665851073009,29.688219665760947,1735409771430.0
-0.22948535328341943,-473.80909419797507,29.719788278804742,-156.76654454678342,0.06910521430655284,-10.695136450874266,-15.043437478429066,-6.352100591238379,1735409771460.0
-0.022626762993467033,701.5165433330407,-405.9241536680709,881.2494342342994,0.12234372518746954,-94.77015296740917,1.0551984744216663,-50.08263839386737,1735409771489.0
0.2599794630081254,1196.008361583785,-180.00803099765236,405.38757864057493,0.06919571276890497,-24.284745142958897,6.898288851773334,39.51909834112074,1735409771519.0
0.4870441055560655,1209.7675326205926,-256.4712154532984,28.343880328998353,0.03507264444630581,37.30603484598769,-7.540445230739914,-33.832497112937766,1735409771549.0
-0.14655605433243435,-246.85448786321948,-196.36271965088065,737.956112567233,0.03393490139691607,40.9463832986332,9.389927370302004,15.871839110324206,1735409771579.0
0.690644793224089,-292.66571382139205,5.485621618228583,-2111.0380423844026,0.03975174530908736,89.42894588252534,3.7504638206602783,22.30197259323433,1735409771609.0
-0.1955716520346772,-41.655238884619166,588.4871709400996,-1059.8721346803911,0.037786319518487446,-13.44758408532271,7.903765198144875,-11.331378432485167,1735409771639.0
1.013486821095408,-345.0562290724302,1035.5148465919274,146.46099415038736,0.03883754825769448,54.987907854527236,-11.720337353690224,55.57156671098563,1735409771669.0
1.126214326237068,-635.7722494815797,999.9688252291705,-3.1819263110826057,0.035324165713118236,36.43265342656596,-13.511528964883635,22.186087728042985,1735409771701.0
1.1150849269077385,-62.03786658320877,-46.775156767100384,198.05977146952387,0.058543224002043745,-88.89263092341716,-6.612584061122632,-49.89054920911298,1735409771730.0
1.5925188529948717,745.012388293037,829.3416606535613,-1200.5253777170265,0.052619393882332756,81.81557100466738,0.8831748108553672,-54.84319696939623,1735409771761.0
1.241257102132782,-136.32138202116795,866.7975454748031,625.9439804283759,0.05762411612814708,36.12652018214554,-17.78398664401497,-14.277975265099428,1735409771792.0
1.3145332157927847,-854.0154658636449,1907.1107456975972,463.92011784401905,0.06641341340794872,60.154830303583736,9.576752780518218,-51.68297490581084,1735409771821.0
1.9086117217271705,-921.6730276350447,1175.7256643561095,408.60413344821166,0.05048399563908457,-94.65591241069426,-24.63884703651022,-54.518132347151564,1735409771850.0
1.2401299212626309,-672.061906166147,1152.2964944571195,632.7206975958647,0.0451229208510645,-40.18345947595553,-7.420821841196403,-71.94313620063198,1735409771879.0
1.0509609597372795,-801.6640322199896,1489.456939439469,-1325.7830910804473,0.025245701044114912,-33.343717469156005,-16.868427219013718,2.7349635569670223,1735409771911.0
1.300709587635988,-565.3142778568667,149.80140033736836,-746.6578419424185,0.05628286829759494,-39.722044492636165,-25.908455158282614,-46.46872394657394,1735409771940.0
0.6503753011596438,-806.7104298437218,364.3390100421784,833.3643228415259,0.04685693527877237,-1.0886165990586605,-26.96867906093579,21.555442044087567,1735409771969.0
1.4886974043948547,-660.4566077899112,172.65927293210478,1216.600768459255,0.026891865207994317,6.351865929633428,-20.49435453029131,89.28825461923174,1735409771999.0
1.9605974679258362,-473.09057887300526,548.8221289682311,1136.7528092850587,0.04088332957334652,-46.097193511926996,-28.70380160375845,27.061372731792748,1735409772029.0
1.5154339134799475,-1400.8909827760758,584.4043937580625,-127.10006770310763,0.049160780488598906,-0.3802356267452147,-10.808269181207041,45.968252231530094,1735409772059.0
0.8353219988049607,-1027.02678578232,536.8968884021386,329.8672270787098,0.04001072715896461,-37.923554352443794,-37.68349888308161,2.58942900219677,1735409772089.0
-0.15333133286390743,-157.376381578694,1414.3877608934908,253.7534544889362,0.054105642147261414,-1.403376088542359,-7.70364524336947,-32.306878698522276,1735409772120.0
0.9923422952390017,-542.3918738963781,766.7372172014038,1942.7463538274342,0.0601501723927485,-31.532851522623584,-19.522339571439247,-26.680537715495664,1735409772149.0
1.0955950743806442,-246.59016137733903,1057.9889090718596,-855.3634147559814,0.039248566001745325,-86.92390122420679,-6.378847691472317,-27.261745216035138,1735409772181.0
0.5359190796637037,-1044.9114523877265,259.7133101158722,-980.0885476322043,0.0492623367946154,1.5148679750532281,4.688509912739642,-41.38371966448524,1735409772211.0
1.574630661271469,97.89177500898825,-92.7789503196617,281.66051606935633,0.046146780069315475,-106.55004819139458,13.23523462669884,-42.52361160256125,1735409772240.0
1.0140867229556774,-425.65562753511256,214.418178087363,-539.9279442695124,0.045781040044948006,-41.54887083171212,-15.212898650471526,-32.38084952003655,1735409772270.0
1.7502488808979724,-1024.950204045195,654.8498514575801,141.8657100331754,0.028922780199068472,-34.78447745696141,-28.074890031652494,9.566787441755071,1735409772300.0
0.9234357948466216,-618.2603941200514,506.97592583306255,290.90966374457844,-0.0004738869968242826,3.795298680914879,-34.89130840179203,8.482585472755678,1735409772331.0
1.3094787867431923,-732.9433254224903,548.746187392802,-706.7806016825497,0.04540496197285793,38.904271539267334,-16.999178303795762,89.7339899360152,1735409772360.0
0.08845804993832607,-513.1355549749355,-333.4078776985142,863.0729392564158,0.07046023453322589,-28.025412869871317,-16.379951564969254,53.16421914609208,1735409772390.0
0.9076078090247759,69.89972998103872,-69.80138541230872,-1596.2747038180714,0.017862578660429052,10.111225290597615,-21.712662749530082,-10.122154991905923,1735409772420.0
0.3092505871613078,-359.9197315984239,1003.6664952965367,-953.480444436139,0.04588375538364885,63.23572629353177,-31.4808507441741,39.29392755014357,1735409772450.0
0.9755800556428201,-997.2212521834857,920.7906492269008,-1042.0860644871002,0.059348976947524855,-87.29509613589175,-20.775159124823336,-61.01929629052299,1735409772480.0
0.916739419950289,-154.88300629021427,381.94144642336977,-236.58954766869658,0.05457185883267393,-26.66759639084846,-16.165793308755305,-27.778734767922902,1735409772510.0
0.5529325248609245,-318.0525037901094,1376.8411169145568,297.74964873111975,0.03491960363842353,-69.02665672652356,-10.440971909636886,12.96322187680369,1735409772540.0
1.69898758444913,-535.0482631282706,1201.714717885022,530.8317491502224,0.05647132909431904,-47.415345088498185,-5.02862229266273,-7.243445842298178,1735409772570.0
1.5734369311405247,-624.3528969765574,426.6371504789325,39.16722485855965,0.03818386043778676,-41.25890600623325,-8.805314304216912,-55.68453412196682,1735409772600.0
1.2629232196128135,107.35663730962608,1111.3725393079326,-1463.316687169678,0.06081628976875022,-22.12928322487989,-7.54619607720949,-1.1213834691624287,1735409772630.0
0.8541391060754482,-341.1349464555685,283.41738677197344,-958.7788440945748,0.05527070610277668,-31.14684005336199,-17.860875952569668,-36.80281446498226,1735409772661.0
1.4591586544457074,-619.6615805082918,844.3734918128962,409.06488595711875,0.06195644793713158,-13.575269313148134,-20.579198344488873,-5.735891856262709,1735409772690.0
0.9812103941482356,-242.5461898834455,633.0032873979799,185.60231735616028,0.04304513779539958,72.6338565388026,-17.66436002223307,26.645450213938155,1735409772720.0
1.764526959514693,365.32721360137464,2297.449332249814,-787.2795556555707,0.07462767967997866,45.43746729522135,-15.797239819619628,63.84400622817154,1735409772750.0
1.4483588121907625,-1355.4541512731848,1177.238778661358,-750.3650944446852,0.06604714643337166,65.22439238430991,-27.761638754592322,-3.621741878589013,1735409772781.0
0.8496145968681479,-1131.0092567379315,575.6272057653887,923.486999601142,0.06624103149207872,-52.6930730564847,-24.168580634436935,38.00819447597019,1735409772810.0
1.0835669680811364,-801.7355816948133,1025.0095459408585,422.1633460963912,0.06043069773240657,-83.47617972441182,-4.095322925680769,8.455589315842799,1735409772841.0
1.2313364938308156,33.6426507923851,923.4064613637474,-783.2038419610401,0.09463857961477624,58.81938684006701,7.715458828992838,-20.65002414670275,1735409772869.0
0.4705699437684582,-327.5992790279893,1343.6098451643672,5.52758252266824,0.024978066104795096,87.65275785834169,-4.18166958386275,-1.6104956479006916,1735409772869.0
