Acc_Betrag,Acc_X,Acc_Y,Acc_Z,Ori_Betrag,Ori_X,Ori_Y,Ori_Z,Timestamp
1.4693384220039944,-537.384501302896,731.1594101141137,-575.9313427492879,0.08325490931472583,-46.12369198805042,-2.5526515278215305,-76.2596146305035,1735410029496.0
0.9971241831437673,-867.3916513288331,600.0784030846258,-708.8019786323604,0.07520749787918962,-33.82052133280939,0.2675229732540334,-28.867468448242217,1735410029525.0
0.5751845040704159,-947.7214808318765,341.129034992428,-296.236547097474,0.04332286055495378,-27.403136422787554,-7.95053369738618,-1.2806327208813784,1735410029555.0
1.6146846806665551,-214.23301461348626,1547.1617125646899,98.04858847133413,0.10335038969563748,-55.34108959483329,-3.4351208043544803,-22.658796782370064,1735410029586.0
1.7443117125856267,-531.5983826974795,854.5169178504939,-193.82518218270647,0.08914504683103137,-67.96796456977671,-0.21800509030945214,-26.379965512584675,1735410029616.0
0.5186545050313306,-560.0492664041599,947.3013930077566,-491.8138573135395,0.06666877675457239,-50.85496583465393,-7.105434921952645,-54.576164100127386,1735410029645.0
0.8252542420646599,-779.22714735962,1066.903111909456,742.6978527836285,0.06409457517605507,-66.55789441092301,2.979718865828964,-68.24010738451125,1735410029675.0
1.6231842482573833,-634.1239446566512,1533.6809299551178,597.5618828113498,0.06331539359855907,-82.32550749407183,-8.960900695631041,-35.63032775697767,1735410029705.0
1.9163976484665293,-568.7131255757487,534.5235252667989,1052.8590220222845,0.09094292177068233,-38.3708181656246,-8.153332586590057,1.5002802590030093,1735410029735.0
0.7463275430391769,-421.1332334973659,1172.6767336983667,99.16758086025844,0.04850207848852898,-85.97211269397596,-21.624221185494306,-6.655514744735402,1735410029765.0
0.5957279106873883,-509.1116669625537,682.3758482385886,653.7362734112919,0.046385962807968834,-24.612015507104385,-5.335411845855903,-51.96201786338855,1735410029795.0
2.3474977001168513,-1202.62971853575,715.9150191055802,189.98031262410515,0.06140041393370668,-45.45921287641795,-4.521736024752809,-6.44141950138116,1735410029826.0
0.22822455191104107,-857.1832778229896,773.6118422951047,231.8755258482417,0.054741416213773327,-67.485204043291,3.1722515052665425,34.71873190172391,1735410029855.0
1.4768480627204195,-551.3263850650275,271.408973475006,-30.490272107099678,0.04315666620640535,-23.98735266512462,-15.590414472218317,12.135365129398622,1735410029885.0
0.7215851269882265,99.4540647391376,674.9783117594324,118.55196687870851,0.0625062211380897,-15.390962142152468,-15.295734017418464,13.988455596154068,1735410029915.0
0.7623956125848728,-447.78716486984894,323.38581637723246,839.7365354880168,0.05799492219539818,-27.89659982194753,-14.464708312283674,-21.645994165397127,1735410029946.0
1.251193036265351,-329.45387532527354,368.0276788604792,363.44562033735633,0.06338282628134476,-34.23194939946029,-15.196119763548143,-24.357026813287746,1735410029975.0
0.3401316157007538,-182.90293928984107,1037.8497483363847,151.53680654872124,0.06150843204557023,23.887384358989657,-18.153045852619933,-12.426802401011345,1735410030005.0
0.4387714472530089,-1094.2643080744338,989.1805348337163,-171.70144243736314,0.03300548786083454,-24.50443651955219,-4.311428723122843,-14.782841224246233,1735410030036.0
0.30469020972751415,274.80219769469716,677.8847788169487,-1413.6569538158506,0.0217721830498882,-5.191001517344297,-22.51792970289698,25.595572628956845,1735410030066.0
0.8756598797634827,176.9623599112317,-19.777952781148535,118.22146766069295,0.054821263673405986,-83.2341428087225,-18.975655434543526,-3.5454443497672536,1735410030095.0
0.0019235981339821,-353.28822184599636,-119.01476552942846,-733.6726543814453,0.07166313114771837,14.034123792106243,-2.607246193119561,36.46664976293691,1735410030126.0
-0.05271858268787874,-44.11679248402591,-92.36971365134721,-1198.1476047839824,0.027261165337437315,6.726719856749451,-19.948708964095612,56.01092506513167,1735410030155.0
0.7555660081156382,431.0084574648262,937.0731081605699,1040.2402073078497,0.06450790748642035,30.207694319420778,-20.569209500286682,26.11014102696652,1735410030185.0
-0.2385768977845158,424.8401308371268,-30.70498855006481,50.55227277264009,0.07109419840688876,56.22361043209083,-2.0961149076796937,39.97695304313422,1735410030215.0
-0.12186111560033619,106.63073900566349,617.5121289048575,882.1223087036544,0.06997591211219029,4.969860017165253,11.497190437395561,25.272632695325655,1735410030245.0
-0.014791581138503054,-900.97566940239,-390.8518381734383,1243.8689971016665,0.051086495970015626,-6.309294150936839,3.6526268839420157,79.50629572890665,1735410030275.0
0.47687302625506434,354.61636280372136,120.74642177470037,-580.5260133142483,0.03668313046013863,14.624147591478781,-1.076454291332487,32.273852965398376,1735410030305.0
-0.28617374934847395,147.39622537492124,506.47449726866034,229.59549159623379,0.05489220018519655,73.6730703185508,4.891865003454671,4.587099403793189,1735410030335.0
0.8910429760429224,-26.633614507759617,318.29059555125974,-527.6381950758278,0.039413586162917076,56.10633146805938,14.230832862135472,-16.605889944932084,1735410030365.0
-0.161678087816495,303.80540887540104,600.708342477341,-551.7186442901391,0.04720548206425455,-10.359591958537777,-5.599763685336354,61.31930883563301,1735410030395.0
1.2327656554147968,537.5513827978855,-73.10632136860741,-106.44297567764039,0.03554667685129584,33.406161430627535,-14.811986125197187,-32.98944721764746,1735410030426.0
1.3328001122377593,-378.08372773640804,466.3493359306086,129.34733240257538,0.06516260796885733,19.657060575794905,-9.687584495997598,-46.76947506202928,1735410030456.0
0.7068936256147721,1172.6400277162716,126.79454619214874,-2455.137577190222,0.06485827276816335,-18.384650399833475,1.8139524949256112,-39.37690863767152,1735410030485.0
1.5663792759866602,885.5440845472745,256.76052400619506,-1182.0964153404418,0.06321931955328935,37.339903435556366,4.797606331828361,-10.000225253302599,1735410030515.0
2.154274659986889,482.6373232503472,715.472635713335,-1921.5554068822757,0.03388741423651525,-81.29895676045771,12.935171706168349,0.42191779898297277,1735410030545.0
0.16969439056651092,344.89706863535554,305.28609291059024,-1108.9165512212119,0.04028120910154448,-2.6390553736418454,12.803696720524012,45.709977743141785,1735410030575.0
0.4380187593185175,447.476760654711,382.57994424419246,1490.9643715113652,0.05404270887827461,-5.576245055508146,-5.255630147481734,-21.013697024599715,1735410030605.0
-0.61435535164987,-334.62178095103883,-58.522514391548754,-1041.1570715898988,0.054626325215122964,-80.61921073594495,13.867355667871347,8.351678942122167,1735410030635.0
1.4612301165653847,463.53737694751254,285.87931375738583,-490.3479736770836,0.07361087794692082,-41.05125420547188,6.054843521483002,2.4715488370623433,1735410030694.0
0.9893592558043779,1575.0747840289487,373.0910883303909,-751.6347611101047,0.0643852305346858,-65.52736518213601,4.190724025108421,18.47755918187482,1735410030696.0
1.7610573057411611,224.01776353620997,76.39909380415199,-1599.7982173715104,0.0744275356258163,-17.58135969083646,0.20319778324313198,-68.65219091082939,1735410030725.0
0.5671985599266403,966.0805678843739,323.1451703979781,-448.86083921317027,0.04036075812841708,23.916049139016614,7.749753470228594,-33.58420103039626,1735410030755.0
0.915517319596534,-295.2464374018048,-174.57679995428293,776.4890166680236,0.05365482738933367,-77.08893262807214,-1.9611124334454004,9.235059859043599,1735410030816.0
0.627915236970126,311.12773044814094,167.2878935311372,-313.91599115345764,0.04523751534363596,-35.19156716822448,6.899085838212016,-0.7747647316470445,1735410030816.0
1.1803468773742072,-427.01766378166667,-491.8532681949366,-331.2637440303305,0.05036678698129206,-2.3653383566228143,14.349892201978506,-9.285893989898309,1735410030845.0
1.8448904167899016,1480.6828500546367,-111.49502455923056,-40.67749330753804,0.016923774796775194,-15.14687748654633,13.480255023317829,-32.6235337683377,1735410030875.0
0.2574002300275885,1170.4187755110195,-102.22999923504216,389.68077407612304,0.040567638481761516,-65.21981746996317,11.138994673393142,26.732219076716813,1735410030907.0
1.0205893259211587,1007.837955037258,758.6877132007263,-627.476293081796,0.030172296054543735,-8.670384991998993,17.635318045215186,0.3566592182545534,1735410030936.0
2.0500939437569747,520.3927578632787,-548.3472446283337,-1347.6100949585455,0.07339033105346818,-9.631995298797406,-5.787199595243269,12.588614977183457,1735410030966.0
0.8675510094977559,73.08259449982936,401.64823957989904,-1426.7660305158001,0.04850068240808592,-81.1221405134836,10.604139898406187,-29.281248291012638,1735410030996.0
1.0086615778311794,-252.40634532384638,858.5930314795094,-1643.6345247612758,0.03692431020932072,-6.03681569106724,-7.892656279636118,33.91544715230661,1735410031026.0
1.093015119596614,421.85198118590677,-81.65890519841207,-207.09210328325992,0.05833835614568169,-55.74609274809631,-5.9801007108092445,-0.5274834821972849,1735410031056.0
1.5993407383290217,-248.84640326978638,328.34679377079294,-547.0531994589198,0.04323918563997969,-22.01565573764772,-9.063231636245817,3.3940854753108107,1735410031116.0
0.6722541850179308,-33.02248911344594,-236.78463219146408,-0.9117632963864253,0.024612748631062872,-59.26922816381493,0.6639572496489272,26.9272315565544,1735410031116.0
2.297976650706244,134.71878254835934,-292.35799030986936,6.143623647456138,0.03799619860608177,-83.03777431593464,9.293891305718898,36.34430638773486,1735410031145.0
0.7265641993737519,154.10155888894968,-59.691108669530365,-1379.719864058872,0.04121212405020801,-20.10127866734631,3.4946913663862076,25.74586934780964,1735410031177.0
0.760405565399404,480.0759045308654,-72.32223454024654,-799.3373466730743,0.049887828960165935,-36.31807853562887,-0.9865421480826333,51.06784716476651,1735410031206.0
0.6991448939452398,708.3245965491745,-367.2380311144915,-1312.4813619452827,0.0487461896611166,-68.14851320348947,13.96919603611364,-18.36017076071675,1735410031235.0
0.7276611489612845,-423.2637312929061,9.165967804800857,-1088.1308258462414,0.05648173018528428,-65.54176325505433,1.879708294812969,-10.267125699448737,1735410031265.0
1.4950603152641802,445.70839300808484,298.74618771129184,-454.44231399695593,0.051212947131510186,-71.34793651311212,10.107263581491905,13.255385283871389,1735410031297.0
1.4314661746431019,-57.20544581281621,443.8743135570578,-1925.18489666852,0.020991949489252686,15.46492493564439,2.9417683944953725,30.521289337802813,1735410031326.0
1.3726695086025043,489.7650769743641,837.5672317200867,-2028.0387652872585,0.07231586805717989,-32.21036882354278,10.909501187618325,-27.203889190333175,1735410031356.0
0.11046039502882521,-460.7958614991379,465.45496603635945,-421.3719053921269,0.054851875021624724,-51.313681410260074,-6.133169410014304,50.04524410105184,1735410031385.0
0.7932274109605132,319.16656881055667,-77.15709924795533,-273.4710798827341,0.0480846385582426,-53.78413162680957,22.061029180186413,12.405670308235557,1735410031416.0
1.2918463404022011,-747.9493909653321,-315.22040823973464,-397.61057204462645,0.06174701563262404,-91.18867046214018,0.1247789701595261,20.758894701095915,1735410031445.0
1.4530922893611715,-489.6069773513325,-395.94126901712616,-1543.6550886863124,0.04744389550032554,-18.113887639003174,6.469647410249619,89.1778575453921,1735410031475.0
0.831518748786612,364.60867351080543,-150.77077064175683,-1515.4201990206307,0.07078923045531761,-69.65089781501408,3.880862604534388,8.643484468874625,1735410031505.0
0.6824116861673644,433.14167189568525,681.4204850459116,-37.357054092026715,0.05733373369518058,-53.46437228776923,-9.461664397363496,-26.883702203632417,1735410031535.0
-0.07540043549927744,439.17371076672174,-79.65715129310024,-633.8331346775135,0.05533766664005774,-28.36253381382777,17.05168366221165,13.907152870828185,1735410031535.0
