Acc_Betrag,Acc_X,Acc_Y,Acc_Z,Ori_Betrag,Ori_X,Ori_Y,Ori_Z,Timestamp
0.6858612894412878,-1267.9555936041531,-414.6952121383829,707.8657099581437,0.03423759192067902,10.97791512190595,13.730949801036672,6.674734509416228,1735404996705.0
0.8763409737712056,-19.1388527002309,132.05909614541625,-343.3531948029065,-0.0005623669462864675,34.765610794107374,-3.3923335690187013,-5.92761513294614,1735404996736.0
1.1414730104320143,-712.3132309176684,273.23621682727617,2365.573163613298,0.018099857271564972,-29.814486587567558,5.88868708765356,-68.73509866768872,1735404996795.0
2.066070217171588,-173.5171283887858,26.165275199479158,1726.2555970743324,0.008088604605971873,49.62225454850288,15.096386298971789,-17.49552215707702,1735404996796.0
1.5600708201671223,77.23513610713437,206.65428589697476,719.3246295133806,0.031374388521717325,0.9552271775510889,-7.195937778648428,-23.193395781069718,1735404996825.0
1.840555709791543,680.6212575995195,208.22108937336282,538.6352963042934,0.01824409763799539,11.795475995489586,17.63668747811769,30.359426136391157,1735404996854.0
0.8430771942588884,-305.9212715888067,-394.0331360366941,868.9463101908141,0.023623322566077277,8.428794544573417,15.362664880325443,-23.930395842523154,1735404996885.0
1.3237936502568377,529.0746834384681,-186.0028592920109,1721.461349754908,0.00767767489652516,-38.81101186532618,20.50448439316762,1.1011016014104964,1735404996915.0
1.8271963669728923,284.1184601945292,-371.66815262416486,1922.0639504839905,0.02474727157201309,-40.94400449909099,-4.068971905203416,-30.55993349471479,1735404996945.0
0.35338677241657446,-589.1255994902712,661.8614849734037,1838.0658840353167,0.02147499266192921,2.8348169570917796,13.882263300467924,3.949564127384267,1735404996975.0
1.027158488642565,-144.90863693395744,140.82931232947737,915.2567011673959,-0.008307768912463627,40.22096369284065,12.557860607926909,46.11292482993872,1735404997005.0
0.47811478583862904,151.85278395720144,1211.9513547049594,1462.5096060737892,0.00435599116259304,41.50694911327049,4.550611325543677,22.98556060411879,1735404997035.0
1.326058193237683,442.1097202158626,-110.86735271585667,1469.2714133337176,0.007819923979782406,-5.419325845600946,15.034571723540886,43.119071453703576,1735404997065.0
1.191450329219791,222.94985750545533,-1243.5536283507847,2014.8670344511877,0.015502806108490716,23.46451665650544,-5.943675116775779,21.036934777210334,1735404997094.0
2.191496537648303,-32.71431742515676,-648.4043025749755,461.99106446795145,0.0390518409880411,17.922500755337385,22.00601102158948,-49.70147119036872,1735404997124.0
-0.32102890942063106,41.68372567239535,-804.806254533708,443.03683523861764,0.01978460992055147,-59.76910310067512,23.091032175390854,-44.34402371395807,1735404997155.0
-0.29366852838185903,1357.0218996423714,572.1882361961855,-357.96277885612665,0.04618514495441319,25.476283964911865,39.33409480883115,68.82866810117258,1735404997185.0
-0.00020944676083563957,337.0034337724072,-291.9417915901522,-56.27237555872785,0.04958529085480851,30.571161420854153,17.62702919081647,68.54656317607892,1735404997214.0
0.05191240262351471,143.40890449312676,-660.5563673590241,-738.5763060963436,0.06896455596563206,-98.6269490312063,7.97383463438722,59.50762546934026,1735404997245.0
-0.6182233687931931,249.62838734636847,646.0060891234039,-740.0916799694991,0.051830324816379794,-62.46580262591938,1.6704302707018204,-1.1543742736339553,1735404997275.0
0.02453198572415226,686.3030942985803,-938.0148294144961,-659.7380357462428,0.07101048931079892,-37.25308676560411,-8.517044822129272,79.83064117815584,1735404997305.0
-1.092381104796858,-591.361925758921,232.00525839149202,-59.98612326097958,0.03830106082830815,-23.178094628651028,-7.824938022035565,11.121142499853793,1735404997334.0
0.4962808830028105,273.31335154569547,184.55013470422074,-758.6233512600095,0.05884791930538163,-21.900231357865557,6.927810278139445,62.76828218472629,1735404997364.0
0.7745873805243463,150.6395289544867,-244.80850034183072,-15.81395038009191,0.07477177907165951,-64.6884547495016,-5.198888718209192,-78.8726061262886,1735404997394.0
2.031311615081992,-28.864363263906682,-417.7210691145814,-653.62834488526,0.03406197164365029,0.21823644608608106,9.073376060796994,4.444667306699401,1735404997424.0
0.39895069972675784,390.6990606357988,44.97177754183951,-592.8452473788279,0.02012860116702333,-16.80514385410368,11.717451308034802,0.3458982641217543,1735404997455.0
-0.7178195474532549,13.280293648791531,-373.4468066396576,59.846202827772515,0.013238917243679284,-34.262704787130815,6.61434922385228,86.41458294639445,1735404997485.0
0.15762244726772742,-11.01504204403454,58.55043253336544,-81.13545699602798,-0.0035467433099038263,-8.262283961698984,-25.195794352377376,-32.69639298672155,1735404997515.0
-0.9967464410551784,-207.41168764231938,178.39199289788374,1242.9188447926042,0.0832805579077793,-48.89163079387943,-14.285381483175438,-73.9969554317517,1735404997545.0
0.12731444959650873,-182.28539774502553,744.8453166920849,122.24151017139138,0.04802311898452116,5.402884146222171,9.334844126629735,-19.401559211902267,1735404997574.0
0.3731916551398873,-385.81725278416536,-146.03292420844951,658.0991612031441,0.05456660928549696,-12.324728473187198,23.498516213019045,-72.03174979561115,1735404997604.0
0.20131715523061167,41.61300950449393,414.0824236667535,377.94971535767047,0.05610492513756886,-2.123785410764878,-3.2038095301857936,52.87003879392512,1735404997635.0
0.6340819495384835,-978.9153855044174,422.7127053254596,1108.6030204068284,0.043528340729189235,-37.36438352632778,8.413187142793095,16.104628532790812,1735404997666.0
1.5869956840142097,-455.4003037635992,-862.6590959860984,1310.5611327269999,0.04533533868599207,-27.782605932350187,6.933403563062713,11.155110828800769,1735404997696.0
0.7975967584674748,39.678042931847244,-891.8320759344954,676.8426546238547,-0.0011224503812434852,-16.2983835775965,13.417355903936379,-3.076924455130971,1735404997724.0
1.7182255018536563,222.4376472908304,137.61173703854251,1472.2625443801799,0.03151138371925506,-35.82244081564386,2.8760519354867853,25.94039107358873,1735404997756.0
0.7495121111048516,-844.3967121486891,-412.05737676135516,975.7577095813128,0.027022362226101607,1.4062419064194014,7.700667149644864,-2.1507429754191136,1735404997785.0
1.0098509734762426,282.5229091920322,405.6635797204187,387.6369141122326,0.052969521012223644,-25.42489581084166,8.16792373076893,7.134201377280357,1735404997815.0
1.2723761100916704,-998.0598482571415,11.644407610125283,-981.1006614683104,0.01637787650633811,-54.18237798241448,0.8446116679009394,-19.65586076568391,1735404997843.0
1.4582050403992959,-814.8959226659537,661.3850151366147,-53.52264410372345,0.025809455767771987,29.10469658164878,9.992274338995374,7.945695109699278,1735404997876.0
1.1516558546782456,518.5954237847675,44.4012803245613,644.0331686298798,0.031806340967249914,-1.4006200026108617,-4.419003670947353,80.10714102716648,1735404997906.0
0.5165007967887401,-389.5583173876437,403.4930774863968,1150.3580319937018,0.01874440494643508,-53.18744774625695,15.896914625620468,-0.41339755778626497,1735404997935.0
0.9756721936493623,-1034.6204182241265,368.0758472560149,1669.021109895617,0.038576759462767465,-49.06853820280267,4.778684798617088,18.930890488178314,1735404997965.0
0.9767294164625705,-499.5216191483471,-315.28395170942395,370.6462079971128,0.049937995926429606,25.797545427514006,8.93854865314211,81.61305213470155,1735404997996.0
0.6605906897489615,-149.96791933806438,208.09825382011576,372.6156055169413,0.02110969046192209,55.12086640993505,6.8822331244217825,-9.62158378221065,1735404998025.0
0.4365162083823031,-14.667770057087267,-627.2548958650252,1202.4111849168319,0.01305724571799894,0.18212807495551697,19.78928670095094,-7.872340659081935,1735404998053.0
0.9976894530433444,-278.37888996659336,431.80987237467133,886.2240354681313,0.0010185077652363587,11.64151156856757,7.85437846122608,-14.45482873431591,1735404998085.0
0.3979822117060242,-965.1079393770527,689.1165306497168,1324.269070844315,0.02529462781751871,14.33289065468541,7.741256381284833,12.924276446349001,1735404998116.0
1.1960284261876017,-195.9301018099562,-192.26532762846188,1964.3092314999983,0.022959842115466367,51.146503819229686,9.605822521714611,8.564445960929396,1735404998145.0
0.8472114718228119,-272.5059527411925,126.12010754527417,448.2012985803025,0.007930311694608588,0.02429579466410514,9.77353075139937,-3.1614384458163514,1735404998174.0
0.8231274422769708,-500.62373240994697,-659.2088842588561,1365.3513610596692,0.048038290101991385,-19.553078597948907,-4.989197752978349,27.310088997034676,1735404998205.0
0.8519886248461916,-724.7959265910674,-547.2259071258308,1401.2893583940267,0.009966496022388345,47.363037918636145,10.322351465493124,-0.0874161690522115,1735404998235.0
0.830304156842808,-68.66003385099222,-373.43405659592855,-469.6922784009723,0.01647703105392611,16.669099426834126,13.384280355128297,9.088638537090313,1735404998265.0
0.7684194750384263,512.1616517542656,275.42221390954103,655.2114622340252,0.01578501668739734,9.551746397530971,5.995802466856822,39.30458154205775,1735404998325.0
1.0594686721444722,-584.2614302070108,-204.07929919541684,755.5690888292331,0.03524076510703142,37.46067415123644,3.8396714551687383,5.938152781610707,1735404998326.0
1.4133434438346923,-342.3624577438832,-853.5094487158216,1082.6607026774634,0.02568247228626519,16.999830314169774,23.721105575167407,40.220185181080105,1735404998354.0
1.4250128736138237,168.65440919508978,-549.614437777435,1395.4571864111515,0.03186052091243175,25.682299294060858,2.371278921033108,33.52004340275101,1735404998384.0
0.7370772696518,437.43069781989504,-221.971104904591,618.7843320299229,0.01634619106701605,8.407488333076863,16.61399249624464,-20.051763692794033,1735404998414.0
0.6623106198989692,-911.5185721663329,-693.9791618600768,975.3521624256471,0.039916304623150045,-0.7134060844383827,15.943805325586808,5.6119194091477524,1735404998444.0
0.7954955265504458,374.14155439409365,109.30429760257103,517.8578035531993,0.024905882375718322,-11.527458226770989,10.091891653885716,13.334526357097532,1735404998475.0
1.41415808245983,-725.4335035049037,881.6013832208174,788.6423693173334,0.029532996794878984,31.646669444327944,13.368495811284328,59.86844281614556,1735404998505.0
0.16417728484983363,-105.83304014778906,264.7651424199681,1644.718649363423,0.031083524852367813,12.111458656627105,14.53063691831469,38.58403996840018,1735404998535.0
1.6258358426774349,-190.81769663887545,192.1592234383618,45.07511234582023,0.016790533396449314,4.041618716829694,13.436764512609347,6.155193490382061,1735404998563.0
1.2450520937750686,-318.570313847965,-192.23619905993544,1135.9297277323215,0.013608410212293138,-34.9482714746934,33.44526583591996,-46.54076632256414,1735404998596.0
0.02281047684023718,252.94990795002798,-272.00001228234976,1724.3785657937078,0.04533004568827123,1.420452104813782,19.491160170854045,14.484481965882424,1735404998625.0
0.22212414863322516,-680.671048070555,523.3590840003683,672.6847650646991,0.021221338339771266,1.5516726877505636,11.733813042689244,64.00847229189101,1735404998654.0
0.652758489900525,-345.34101758077554,-498.3756876784877,1411.3483834192966,0.04207183906457977,-3.0223932296999267,6.811413153061684,-15.142288902091124,1735404998684.0
1.4732496022793504,205.06704026007424,522.8178547354789,1167.904154001349,0.006286062140995915,-24.61022346924865,6.77229516715944,46.42392945875984,1735404998715.0
0.4805483796503992,211.1771345828085,373.1791198744456,844.5958353618047,0.03833534886265788,0.5322986603987436,2.818939793947969,-22.902843289276234,1735404998745.0
0.4284003197052425,549.7512112015993,27.924711875408462,831.6266035516705,0.008202086421385806,-1.1231267042986022,17.76403356260554,58.05143854224022,1735404998745.0
