Acc_Betrag,Acc_X,Acc_Y,Acc_Z,Ori_Betrag,Ori_X,Ori_Y,Ori_Z,Timestamp
0.6911040242201514,-220.73192777663138,868.6521905263512,-1388.7153474107022,0.03178506872150929,-50.760134434183975,11.53264296342771,35.35528325497831,1735409653887.0
1.7238676537747855,1293.3260072248254,-727.032547666976,-1514.7288579365008,0.045778563148581995,-44.91390725288547,17.049034445475836,28.59492684150736,1735409653917.0
1.7622158494857532,-120.05065063997426,-753.7094694479953,-509.2667206739867,0.05181103528044251,-42.40468587716479,4.988162485405903,-39.81345971544117,1735409653947.0
1.4562343733608278,678.5744391859362,21.30380712100638,-1352.7605998497118,0.03982960889624314,-64.05258250305222,13.785189131581362,-58.41822290123259,1735409653977.0
0.9475672764143884,699.1437060054106,-256.9438806492469,341.074452634296,0.0713014278638249,68.900689077255,5.979926742812834,-36.525037752843716,1735409654007.0
1.507728534122259,614.8210807271798,1196.2505517770176,-837.4439093182777,0.04801636533248881,27.462507162960186,18.04581023323273,51.68289343249372,1735409654037.0
1.5864012716760956,596.4935699971024,290.50535571041706,-293.72580911875434,-0.0007528767388861601,11.17584593368371,16.67137961623489,63.25015731122324,1735409654067.0
1.3120534801542398,1308.6654720559748,590.2688263186251,-1413.3038169662461,0.026215513765392554,14.315371935039945,-17.79505816541066,67.49659872091833,1735409654097.0
1.5052529316748,1459.2948780560491,704.8136258495562,586.9007331244884,0.030902405597565383,-2.467298339022429,-25.85768083620271,37.79758266845938,1735409654127.0
2.4193163486722775,864.8976540273703,77.62833472638789,-383.98945113764944,0.053087330266016336,-1.5207309914075857,-8.85490009197926,-42.24743285241906,1735409654157.0
2.228737682818726,1247.3114611342862,-470.9037686111775,-772.7687860150298,0.03739314768574038,-0.02129853067053844,10.340350297697562,-11.931044188637205,1735409654186.0
1.5623859289958202,1332.7183940568711,-414.4667133605514,-1374.5030439849334,0.04250737813347711,-27.041896988874733,30.627489347681042,-41.794499220222995,1735409654218.0
1.580981477680733,1995.5003044917057,-1047.9350763026584,-356.8785719827573,0.020015259995871403,2.3754725028708013,15.433174353897774,20.55001276328247,1735409654248.0
2.047704388758091,703.2897419212899,135.26681291485022,-2037.6832856143296,0.0365030457909999,-0.9111272508653556,8.46659198058633,-16.39575764945455,1735409654278.0
1.299845296010405,349.18196306608843,33.11169483397828,-2057.7000794813694,0.021709901642122262,18.46683604404894,-10.530821271048774,5.282463894516665,1735409654308.0
-0.985863737840171,-284.44474347112043,-800.4971145759566,1546.453444074795,0.05111321694026783,42.87285514930271,-32.64137915787853,52.51788835630544,1735409654338.0
0.29464496617917263,655.1228394357431,-834.4045133735892,-369.9243939968371,0.03645731668258568,2.449812967270077,-18.577630803131566,-27.54558726920828,1735409654367.0
-0.2740323103686051,-164.2890267421015,-69.28425133150769,-1120.8070270984188,0.0326412608716164,6.072718800869671,-14.58647916897037,-38.617571321689624,1735409654397.0
0.09630986723791464,793.4753739109334,841.1116457556413,-548.0828824115742,0.03881178157401631,-14.06820592253544,-2.4652472929116755,-14.450002180715614,1735409654427.0
-0.48749179441409274,158.51511698574097,-157.22333214907775,783.578006373209,0.011071393705748842,7.176493518429034,3.682488631528068,-41.7834797969153,1735409654458.0
0.14417107516785094,-719.4676803859231,-162.38574202932477,-472.2542314321821,0.016677692512843404,39.994968778312284,14.496989438133632,-24.600079826528486,1735409654488.0
3.40643345757086,-1755.0282064415449,2361.714804636572,-1605.9764363241848,0.05142676052631018,29.13129276841893,15.40701622971396,30.23921778514012,1735409654518.0
3.033095984487044,-1866.9505174957842,2259.186744473919,-2006.6956285529618,0.037591110712023576,25.300984738760626,18.516581856655883,-20.20579489187587,1735409654548.0
2.6595123207857028,-2036.7057604762153,2556.435381627391,-2209.4918708488826,0.027694116791856817,-65.33546605531612,-3.772217357886631,-29.990728538115576,1735409654578.0
2.876310857116386,-885.5067381796034,1873.1498644427077,-1330.6140921120498,0.022532191769063976,-19.902167191084295,0.6955531263633956,-19.937096101921064,1735409654608.0
-0.03822133307972378,-414.4544572945564,-247.85052784508287,454.93109212348855,-0.006992458451366082,4.678645180482435,5.235202315496641,1.1800153689863446,1735409654638.0
0.2693991307015785,233.0122401858537,542.2464272981292,-361.26622696353456,0.0062077026037645165,15.641906796077258,-12.070556027992966,27.133470973184544,1735409654668.0
0.4583043303472954,-761.8042599119624,-379.46405866458656,-298.53800888231757,0.04730285411080595,8.05144927992702,-8.595829058077342,-68.72826837417375,1735409654697.0
4.1571839556741645,2247.456877697159,1926.4617543640359,-1377.2919158056511,0.019800823017252063,-16.944641192790037,-19.521385126767907,-21.18416654576773,1735409654728.0
3.083952410307938,1810.8226024476521,2526.826671668304,-1075.1139568318008,0.037873785490246545,-33.74840686576194,-10.96381621862981,-53.17555514076053,1735409654757.0
3.1650587232529084,2508.2051089275583,1943.1496471997914,-2080.0786696849946,0.04409301367006917,-24.86430026559436,-12.828492853414318,15.145528258107742,1735409654787.0
2.2673977502326945,395.14042011337244,42.373739960033106,-635.7008931116304,0.024404640243829406,-65.25971481709016,-28.53550077455096,76.09304716783552,1735409654819.0
1.3424525292108107,-348.04172828907053,251.5840147859132,-1144.1336037577685,0.02470393835134847,-4.7502011888595845,-20.742671261338494,13.021240532087567,1735409654848.0
1.6969856069815292,-416.47464924370934,-466.62552206773,-1096.9900884955953,0.05305021077057564,-55.86416409787983,-7.596804370862632,59.8785037987179,1735409654879.0
0.5028022321896162,734.8810041092142,491.510999283406,-512.4203668117867,0.060282195480378546,-47.32145695756148,-7.520427038107582,12.272435341268928,1735409654908.0
0.8244893553061892,401.3755115770555,939.6821859667891,-2136.1191860162226,0.05104692808003128,-72.5304662494272,-9.700059308512577,75.12187518240731,1735409654937.0
1.5515868043579548,227.37523431763748,21.6876033801814,-2503.2554002794045,0.05873716276998254,-0.7989642604489973,-10.999584672126378,2.602511018627119,1735409654998.0
1.4839572102213405,-93.5229182535607,517.6921174748189,-1551.2264897761288,0.03531333115983577,-57.31019206374141,-0.8719054659325653,17.97491153618297,1735409655028.0
1.3046719721264992,720.1721804932176,229.8790931563823,-1510.9052594541663,0.0660888803510072,-39.03921868227185,4.894538713924934,36.03209393787487,1735409655057.0
1.1277723673890538,155.2552985727616,1204.9111791958376,-1023.0485702236302,0.07414928816820411,-34.003317821583295,1.934449849900274,32.184717047382044,1735409655088.0
1.357389999020139,-171.74509936019763,1031.1979334560301,-798.196741922255,0.06039453967277063,-46.67848166424818,-18.365612409010684,40.938737989017085,1735409655118.0
0.8055248850345246,904.6084796294714,197.49575496236054,-1722.7424822935109,0.0747922065187416,-24.08789314634994,-13.552976836693665,42.440534862034966,1735409655148.0
0.3500721563844673,295.37987015790753,510.08816343574773,-418.9446645487353,0.04425971741708629,-52.32653212935845,6.754157880588597,-24.266460842760168,1735409655178.0
2.035550875424623,245.1636151432622,285.14291785454367,-1547.4042160520385,0.07144226318393468,-11.518538286038783,-9.921601588126768,-53.709708368510384,1735409655207.0
1.0053301081547004,225.92238100686225,-56.94888547062959,-369.7050404986229,0.08424416326722373,-20.46837776823875,12.132929715349018,-19.587725597872492,1735409655238.0
0.9613651470851267,196.5255861381404,839.462965951189,-637.9734173221489,0.08943621426844311,-71.41759844186454,-10.223276245378173,-59.02654092045226,1735409655268.0
1.5580190114367518,933.8051182182008,-490.76596464608247,-952.4766414926393,0.06851088524403118,-66.27092616416553,4.866577520845489,-58.346917413162544,1735409655298.0
1.3991340885793797,164.5702429009266,-7.871758636097695,-1657.987110085714,0.06336830546455002,-39.48952324662975,10.156267576072842,-15.019681108296467,1735409655327.0
1.434212772413449,-528.1579785857782,723.7227576445638,-186.66341698363772,0.07962093741262155,-15.90250476921235,15.048556578512333,-46.088027957907265,1735409655357.0
0.6676955111242266,-794.1909888971824,213.26941735316092,-617.3675988846319,0.06602815310579763,-34.640782284775725,8.304715396486564,-36.81759110440358,1735409655387.0
1.3868159037424408,146.57559967229332,100.29070452562473,-841.2986048861045,0.11698344281524123,-68.84580589394879,3.5138634270947358,-29.50631435015962,1735409655417.0
1.643354874936322,-307.70944182332016,-394.82761309433306,-552.4227913387813,0.07615716099566966,-35.020186274617004,28.95346931144312,-91.84427151227453,1735409655448.0
0.5910155559227406,570.1931456960392,-58.91192600086123,-1150.306048707913,0.03684660394961739,-20.35560859792972,1.600411055769905,-26.758433810423618,1735409655478.0
0.46014334024582126,-370.3282618040621,-184.67330886385366,-759.8376627637823,0.057306383615785605,-58.67817129770191,19.62068658109611,-7.68439902018082,1735409655507.0
1.5124345980961162,-218.36140071289992,-24.672919857749378,-1443.210458480898,0.03781194572002512,-29.881626425393513,10.953974051645185,-32.645839012249965,1735409655537.0
0.6100843340339256,1083.8364222779019,941.0540472197837,181.21397243209935,0.053890222916088394,-6.810512489471549,-17.618105083387306,27.98198711348968,1735409655567.0
0.04524869553185373,589.6821158329014,295.02929018358776,-1436.963218636608,0.029433737909867724,-17.67292397539369,3.081652763008057,-5.221745686433213,1735409655597.0
1.0126409632544688,352.10823873966285,729.9907554169852,-350.28026042132433,0.023153067506440656,-78.6068662165097,19.74225739796445,-65.17108621277968,1735409655628.0
0.932618311155763,235.46745040173192,865.8003911807441,-1114.3838056632403,0.08896913587338884,-59.610976887010665,14.060245104223618,-40.383690770069066,1735409655657.0
1.4123300583491358,914.1054177904642,-158.84107998745395,-1563.4244843440977,0.04488274250956126,-90.64982503163202,7.26878621701866,19.046435354799005,1735409655687.0
1.27876434955623,1630.801149636747,753.5026910440171,-770.7472158683983,0.0814445183623254,-36.98410155053861,-15.070222091674616,-35.359168672334505,1735409655718.0
1.4761878357501974,11.435578570685323,1159.427492071928,-1903.5274933757732,0.03860695158185207,-20.80036726600197,10.583776030210565,-13.247125787522195,1735409655747.0
1.1430058942617307,-723.6890013526536,375.26691208342953,-1175.0523725733556,0.0527534140683219,-86.89438874833547,16.805418082053812,26.647929772426593,1735409655776.0
1.3168547713685503,1376.477873311946,562.7547593674235,311.83878094153465,0.04027709319818578,-45.577450403699466,23.56419160176624,-2.054116281896121,1735409655806.0
1.2316648385216098,-345.45718721379023,466.4845771596706,-1637.1007676607023,0.04569865122850243,-5.043442756343865,2.9407879573102127,3.2229276289869873,1735409655837.0
1.2063543419343599,-23.86443952613024,573.8208769003908,-1724.0902672472057,0.053628943513596414,-9.821927715655704,10.275794906747075,0.28775371832867336,1735409655866.0
1.4498179638913489,206.6789513924251,427.3942876678009,-2566.2951374550894,0.047879327014676024,-65.1023085650507,14.940125923224459,15.78155712198943,1735409655897.0
1.0362342218300329,-1078.1626712586703,-90.79967567638465,-1250.1205612830756,0.010652461765612374,0.3138233160678894,3.881331738504441,12.505525205541556,1735409655927.0
0.3895512243385647,494.54706166435915,660.8468151684239,-10.394561052975632,0.04672211592025575,-20.2503574839675,9.971482883913954,48.45294456929332,1735409655927.0
0.4757259598127018,499.04894777812194,630.9862616404334,-923.9851242070779,0.05220716294295507,-114.49799824588024,7.426523995268347,-19.244514164190406,1735409655927.0
