Acc_Betrag,Acc_X,Acc_Y,Acc_Z,Ori_Betrag,Ori_X,Ori_Y,Ori_Z,Timestamp
1.414610176445084,-1544.4957710365452,51.63334602501354,1752.3199114947595,0.07375569396939885,33.891207216434125,-22.386488702835393,-45.40137047872531,1735409770805.0
1.0479686530577477,-999.7710165848355,-61.919659878276406,16.470949905114452,0.02426942867701396,23.54938530899202,-8.264055002093892,-66.03574164509473,1735409770830.0
1.698942076137453,-1282.172575824311,-187.60101464883377,-337.8032453801305,0.05198432193979834,75.70510563897719,-15.664298047765822,-24.185643652506492,1735409770891.0
1.3953477487577473,-1057.4685877321613,938.3113997400657,-96.0976761535561,0.06303015038091128,3.1591110250572214,-21.771342192680834,41.707249035379164,1735409770920.0
0.5823627580896091,-90.71033280455174,483.77902613701406,-70.10273566623664,0.05024755019242154,74.20134298024837,-4.7720326674304445,9.191834096059221,1735409770950.0
1.1218735116729261,-403.38754080671026,648.8206208555499,-1747.5058352709534,0.03682724819908273,50.084710312151095,-1.7242230090083384,-46.88312959379951,1735409770980.0
1.7210958643682412,-1426.495507133535,-13.861836796741642,-1514.9198938659085,0.03741153464661333,50.925577233118595,7.528205418298176,-15.665675574221645,1735409771010.0
0.7109178073808985,-2139.8149074686316,-178.94735653209563,361.0990375826842,0.05048925270411745,-1.8475590735733363,-10.23114576193867,-58.07768049594235,1735409771040.0
2.1713262879656483,-1123.2925658598085,-397.53308101072787,-1211.1507798443488,0.030538922014043922,51.13936558048307,-2.8571845262607907,-56.74597533638705,1735409771070.0
0.22731476585411237,-1252.8431876766945,232.7750386030217,-787.57899944659,0.051768138992621324,21.897826051438503,-8.08633060571658,3.7812206415646052,1735409771100.0
0.8866739074171401,-706.5720040111701,-67.94124954756093,-819.7043495404805,0.046546632777539926,38.199446345816504,-5.286015378108383,-13.819289691979812,1735409771129.0
-0.04005008729454396,-1429.161135249385,217.0117299017602,-506.99658620827506,0.027128329199122097,79.11608119932627,-12.998840743470684,-11.684301764380432,1735409771160.0
1.3198833901201859,-480.600565509848,-420.27893194658805,-130.3305158513993,0.033576662321351286,16.920118352100065,-0.09275109152783712,-30.01809460787544,1735409771191.0
1.767414384846242,-808.0095901549608,-1069.8357452014995,137.1830984852952,0.02404741265041884,57.64718494187215,10.479982610336174,-0.8803487656427045,1735409771220.0
1.9359010446243514,120.89700132329892,95.7843890276589,-236.38734219437578,0.053623696268587144,80.68035507215602,13.96745398462324,-30.583315697653862,1735409771250.0
1.095522996730208,-360.6339376558838,171.841600346142,-396.8155103319178,0.07920792875871846,21.16541954352545,4.921249821842982,-37.692186889953675,1735409771280.0
1.1835306712273925,-834.5401809610966,584.9226359590233,-662.9949026075709,0.049742939506775635,83.75783249929978,-24.704567266437863,-30.09849551508578,1735409771310.0
0.10070135620516132,-482.54558196365423,-132.5105104071943,84.513280659264,0.09106086682159209,-37.07650636893216,5.657025870528765,-60.1952218709923,1735409771340.0
0.4924709499489763,-641.3057864946944,-674.9563128746029,309.4830584773807,0.03478900533938821,-34.71887288726997,-3.016317047478673,24.43201628134631,1735409771370.0
-0.02767629919944517,-48.13728488897401,129.19446641287817,811.685333258201,0.07340394652985033,-14.208660723397543,-4.931863407529136,4.736296218231228,1735409771400.0
-0.27306018141073246,-275.1221453958195,424.2089137271666,-327.26614373286276,0.08338641386432002,-32.93159476140529,-5.716586441973936,-4.356250859802838,1735409771430.0
-0.36610563693122794,-363.1251535920672,-2.247122819926858,-330.21620659524893,0.02643825394586703,-117.88594507434601,-3.3589565602736964,-13.729730438730897,1735409771460.0
0.3578823666798255,-161.04755508042382,-722.5771221006047,-222.39475956501747,0.0799912845509762,-35.48943267421054,10.31143443648827,-55.88059320339947,1735409771489.0
-0.12767233767537686,-1094.101080559547,-547.8711669242404,1287.8992421540895,0.067519624905377,-83.46779212448143,-8.196038584957808,35.91532191200692,1735409771519.0
-0.08385322385545378,-685.4546147951552,39.62365568576989,778.1299779451366,0.04344158043315016,111.86687379621914,-7.640298412680536,-39.41221551104739,1735409771549.0
-0.07056740664015619,-878.1983993961302,-915.4046152623308,-1373.7746268150383,0.029728132442896654,9.859217147331108,-8.85541763473975,37.524207281484365,1735409771579.0
0.21870594783268024,198.73735275431224,-367.26378926764215,1336.6063589580922,0.040660476396622264,40.01230319959707,5.479743238745032,5.057864913282888,1735409771609.0
1.4965776695189232,-817.6109482822833,757.5362246318169,-108.28581216289125,0.05853068485348342,5.354807765886505,-2.605202867117776,69.95790647909115,1735409771639.0
0.03468536346347939,-687.8959006422288,1259.0375140673373,-1317.071065590057,0.057207695578599733,41.94903451742422,-26.589707734275734,-62.39394041571628,1735409771669.0
0.7534732789732959,-1273.3346049157558,-736.0635113953458,-330.8125990553501,0.07393778823198434,15.616118591398997,-14.589744137308845,-26.946178292906524,1735409771701.0
2.124281187931095,-840.8636146090864,787.2041233725363,-907.2966703068474,0.07211300047283424,-21.183534782139315,-0.5134739812881186,-40.997898623818664,1735409771730.0
1.139546718069833,29.48894917002849,881.2813994540842,-1297.4287927986802,0.07620421719756483,19.565706976598275,-22.636900591999613,-9.646891405585983,1735409771761.0
1.1492512661126935,-715.0265519703431,52.09922317019789,495.708050333071,0.04817320225463411,30.94849098637725,6.233866104066408,-3.0770409293530214,1735409771792.0
0.8250949622299197,-1351.8614326554566,1643.1899762641124,-268.40271511859555,0.07971558919336776,54.0663192993447,20.150787462207624,-46.697281690507594,1735409771821.0
0.5967078447545684,-840.5973746172235,1317.5855597902223,383.8300604640176,0.055075080244116864,-108.82799979602015,-7.171895432657847,-54.59548060574244,1735409771850.0
1.415107266471534,-598.2171209785777,168.91895169941745,-1282.524241193443,0.03788305786029173,-67.2572569759635,-22.120515348272825,-57.02870443608718,1735409771879.0
1.731569248715751,-617.4301867876063,1012.5174700791961,584.7430438072533,0.08149070684016274,-89.73755260952953,-25.070017672784626,-5.921388245857319,1735409771911.0
0.32768224830667125,-435.8084672687642,2010.4697213292027,466.4324437298287,0.06072478571567275,-28.685413815909254,-24.350540635089807,-52.63599964272448,1735409771940.0
1.1237134315428288,-1261.0205862939106,836.0045097941019,-424.0524968415757,0.05854194966333894,45.21141295223062,-25.69516855958032,61.38578523196688,1735409771969.0
1.3713496469781672,-513.3625444379466,950.994538298432,251.9190971688563,0.022219925420694252,10.144406285395679,-7.713964761193618,52.65299339155504,1735409771999.0
1.7983135023247492,-400.10706134235505,1072.1679447577767,222.16599570117648,0.048841386788140026,27.259612522282907,-13.8671574245979,47.85885269051083,1735409772029.0
0.8579682634310482,-335.5330252301637,89.58286179660365,850.3684347245139,0.05616122328284075,-21.245541350954795,-16.388956061756097,16.70070398425931,1735409772059.0
1.3426266379628395,-457.3437614168929,1114.3428891818487,329.3894754694833,0.055555037183801885,-37.04642536915513,-20.308956576163837,-12.760798186615432,1735409772089.0
0.8342914611023217,-533.2222331163467,843.1733871389374,-324.9938214322487,0.03660274462730276,-62.715201222009966,-37.3278191672842,-49.21366620755505,1735409772120.0
1.1065042562230274,-750.1240601574791,-134.6676301430242,-1440.4732376366785,0.056328633152918674,-75.7550556582687,-2.678777531749912,-0.8979300310741571,1735409772149.0
0.5007179926082834,-392.90008472034214,1041.680819060512,1557.9318110240965,0.09295019439574481,-50.03530882346977,-19.020606831471213,-21.225631607606434,1735409772181.0
0.5519163509702816,-41.930989946058446,1278.4210719688585,-269.35401857570116,0.06709423623319288,-26.600419315924967,-14.755348915642653,2.1500757971843107,1735409772211.0
0.3311607945590582,-590.0483505725753,560.2627087417065,435.9875133007876,0.06293963909354856,-7.587248244710203,1.0564594546656574,-18.869228161102896,1735409772240.0
0.5830107387690868,-990.1994386467345,723.843977708448,-248.75411870411847,0.06500501958216731,-51.9232220585984,-5.828067524761832,-10.554315580984728,1735409772270.0
0.6885105619175527,-556.5101407081983,1384.1292641171444,1290.9015019263309,0.06012727254046125,-61.46652495078238,-10.732224478572032,-21.928976349775343,1735409772300.0
0.7108182796692798,-1421.8076731396513,786.0931928722198,-840.1155560190679,0.038740981689515695,-15.587500997913738,-20.037873155544045,25.888666853711115,1735409772331.0
0.8170096286429146,-963.0697206962027,274.8902535641914,62.471898979486305,0.029763833238210437,38.1135908168103,-23.466460376732915,31.629144195417155,1735409772360.0
0.8218818474867837,-1033.4110016355507,1684.5372536507944,432.23172301261565,0.08413025965110377,57.54013225828001,-17.842946113478472,50.0714868712095,1735409772390.0
0.6078642241875942,-936.4385042654033,484.370782002332,-91.48712391062625,0.038336704730159335,-14.959177244168536,-21.394918728437204,1.3027715011676264,1735409772420.0
1.3143836717832136,-289.8213772379237,1849.1757130110393,-1211.9016202889593,0.03245820649308259,44.45421744574992,-36.72406441130248,33.90996451166056,1735409772450.0
0.8479611739113696,-1126.7704120486574,1520.6990247791446,-26.281091078435054,0.08465395209958804,6.045447746749858,-19.366313946978345,6.68183380234399,1735409772480.0
0.1723202077371786,-234.5995971481354,1459.6552056555947,-319.6240098791522,0.03372396774946351,20.018882914609698,-39.57655400451696,-33.82687367812947,1735409772510.0
1.000127402037506,-415.87034099553216,1004.203979969715,-961.0044809963871,0.06561460386148639,-50.71641664689294,-17.025081124507043,-26.419636186757064,1735409772540.0
1.2637290798616279,-604.8997065140525,905.2279734166473,-1014.7983456515168,0.03533915822742449,-37.79025854167388,4.52688802889622,37.10650245942574,1735409772570.0
0.6689296044713491,-759.2743094843471,917.3054681930137,123.43912050354027,0.029928977462325767,-121.10893678199587,-14.191851258808594,-20.67308309384834,1735409772600.0
1.564333608000361,-1956.5228732616629,359.4462743361058,554.4750078339848,0.04062457383434584,-29.171911627022887,-10.557143855105057,-26.12939762010197,1735409772630.0
1.2180803057040857,-1004.7392137044358,307.7994340699907,-430.9052454009647,0.045320327810021384,-57.50776957226985,-5.2872724724980795,7.144559960728739,1735409772661.0
1.2152542304373062,-727.3152226930623,284.9563246919272,-146.11918461361944,0.027940392641423045,-64.81163734377702,-11.311046280462222,42.7329476723648,1735409772690.0
1.3158485628418277,-272.6989663231239,115.89262805993758,329.5044827851503,0.07458523145139692,31.212992064895058,-28.521348293352872,6.8984346388900875,1735409772720.0
0.7929701489819736,-252.1808911356419,697.4638617754641,720.2885003836695,0.0793160934263292,57.636809074383,-19.55731185760329,35.557669984953414,1735409772750.0
0.9184299173366233,-587.1774470019651,856.0814063541376,-158.35763474379223,0.08154819357541696,24.844459964905873,-10.352024153140789,47.01501439238944,1735409772781.0
1.075780173759909,-110.28506315291315,1442.8515303772324,705.4845190160133,0.05040703440239917,-81.03076855829352,-4.050626230913727,31.741446003575298,1735409772810.0
1.2661529117358494,-634.4435943354807,515.7148157120159,-736.4142507157804,0.07499122762886057,-45.21327966851571,-4.043873292595806,9.695814779133585,1735409772841.0
1.1234871228973067,-1053.4348557262538,445.4529493206655,-6.188439883034327,0.04127846833797131,79.06920667655879,-14.932085973593878,24.416793632383058,1735409772869.0
0.385327138453632,-1863.0331693261114,1086.2179579371725,-949.6168477606157,0.07401307438537746,29.173413821846687,-21.57561737404094,-14.744823427350344,1735409772869.0
