Acc_Betrag,Acc_X,Acc_Y,Acc_Z,Ori_Betrag,Ori_X,Ori_Y,Ori_Z,Timestamp
0.9843822436781354,952.9977238512326,-441.9646192665074,-626.0121566034885,0.01227864248553869,25.451541964247653,10.802039023322125,28.0787305204396,1735410056677.0
1.3240115734330504,916.6192382496573,-849.2681911700604,-685.5515290525888,-0.006298990630536912,15.771518311502764,16.706974867381916,-33.548464292770525,1735410056735.0
0.5212326078836271,786.8011906411678,154.3527170725181,141.1289377643252,0.02450244885130469,-7.1259439568980865,2.6235979584944413,-40.58868615691832,1735410056737.0
0.8834830220849488,878.8098228098202,-902.2959709980262,776.0086204858682,0.037675434057368784,24.959256761551835,2.661229013092056,-4.078635717663424,1735410056766.0
0.31689635905125124,652.2745385646199,-411.8397422958657,1282.8255990001296,0.03443081529317623,91.57222092650649,25.252432134002703,13.934708487224807,1735410056796.0
0.21862786034093495,135.2810476124543,-611.8536412423415,-3.9463806426930716,0.01906873298332677,10.735273721893915,19.93801778741102,-5.891237108461178,1735410056826.0
0.48518096034390024,541.0191538465796,-1092.0034738982831,-533.7245323592946,0.01752524392147634,26.4328477800998,10.103936328916486,3.5884323202627364,1735410056856.0
1.2823774371423577,349.89853515219227,-863.6739265687629,595.5563082959752,0.021913069775203672,2.769545858459801,-0.4778740954962668,-2.9270275943040005,1735410056886.0
1.178779810275151,-147.10700680550895,-1257.2354683615206,95.55172667211454,0.024359580026365808,-48.767257944987044,-5.7715093746756665,-38.16810758615534,1735410056916.0
1.6854086168581766,303.9042203142268,-1617.6410749908869,-567.8593246162716,0.06348989700044502,11.974222869990655,22.030636495221636,-45.83616058143562,1735410056947.0
0.7962630302221101,534.4410345455927,-1759.7192638635445,230.456226996972,0.02281908975093736,23.73770634465244,3.962459611846218,-16.595339882763234,1735410056976.0
0.9838596831190217,1039.220682590646,-1288.8602678546058,123.32039039912829,0.02295420535497704,-51.710976889249345,4.068455725518867,-30.044953437710205,1735410057036.0
1.2515088589668435,720.3512173438222,-1312.969580181125,1477.0655565280015,0.0377591300794096,10.957029661691914,3.6414409580721605,-47.123085836059786,1735410057037.0
0.7017693807023129,-70.51366840876847,-251.75818317125766,-134.14154267254185,0.01996321110615119,-38.931168263685024,1.4121051125300657,-50.40519745573061,1735410057067.0
1.6602413523146922,716.8798928767299,-1061.7511212104314,-801.0845745868942,0.06311664134544649,-22.241602209535376,5.2534214765864675,-23.873998610725202,1735410057097.0
1.0789327401284328,1686.6491643089362,-765.3838971789073,402.7757653050782,0.037391925370044606,-50.80494235942254,18.10377857894217,-77.39784349253664,1735410057127.0
2.233051883826426,1432.7143661230866,-410.89770284826614,452.40118458051774,0.04307517437179364,-5.594073020269418,11.908066079129288,-38.91636620757537,1735410057157.0
0.7482504934997307,1668.736198176098,-315.0669408685367,1548.1439794355856,0.07945680772277583,16.496830796096955,33.34153946874053,39.88409664011694,1735410057186.0
-0.47877064267412744,921.2587145105807,320.83710391724395,-308.8837235323695,0.08559656276939442,37.64134245907657,11.467089387844966,49.859806037220274,1735410057217.0
0.0782898874950209,-118.83668765104426,605.6366608237696,-241.03187467638273,0.026308835382237175,11.818677823090237,2.3594354642039073,-14.664931830731211,1735410057246.0
0.5599653395453988,-195.57502632152168,-492.0859385693989,603.2544206856618,0.02339566766367941,9.896280919997682,-13.892778833708604,42.33119651017246,1735410057276.0
-0.33401220899768763,262.0308550839984,-380.26125173780406,545.8075516170096,0.048746724492092004,19.37354655015745,8.934782260482246,61.71786004886724,1735410057337.0
-0.3336075098343267,333.75051296481143,634.0670666181815,-256.8929843626147,0.05168181443218305,-64.60841745165703,19.654957196114804,21.10223147766107,1735410057337.0
0.09245718418316502,529.5058843322746,460.50074281672005,-232.33809818347834,0.07609403621985279,-82.91686984357067,-5.743601143083968,-13.00179358685501,1735410057366.0
-1.6677230673216557,303.4021280354463,486.841093944831,667.202585063141,0.06980320011586463,-22.013174486192987,0.8231062747327078,-24.27557442733184,1735410057396.0
2.9159651636776154,633.6846437115271,1380.4655423939175,-3944.912424388722,0.09049783357381012,-71.24761115979533,-6.077034970159623,72.94575467623912,1735410057426.0
1.8982718272885173,1185.6854650020107,1023.0494629300683,-2709.9524702310964,0.019575038796537866,-78.42982055493326,0.9982899993558947,37.80919491487864,1735410057456.0
1.7403436232927274,187.71255007828645,573.8871506793777,-1874.1434917890067,0.060132712386799944,-14.783839592763272,-0.8589815768990299,-27.088524759218416,1735410057486.0
0.14211482405382792,70.38230476864463,197.4705102470728,-816.7288539342824,0.02228208695387723,-2.9583236455606112,-11.763596714883251,-23.06293154833527,1735410057516.0
0.2535057929114101,-9.822606510370207,-275.23116547202903,-1024.9853877466994,0.044225429792853106,24.492581793205673,-12.453656158991986,27.986167913574146,1735410057546.0
0.2772043344838989,5.401520268178345,-688.638265049298,-250.10442714061492,0.05863335096256567,57.75882328406499,-4.782723433939354,72.52806370767571,1735410057608.0
0.5719356848950041,186.7358778649548,238.53165642313996,604.9011607043337,0.06011444849753838,44.21751786818165,-6.348487305064349,-6.466315225350002,1735410057608.0
0.822463674241935,-186.35893692537715,-225.77310178238378,634.263080248174,0.03380331255938037,-41.18634202711142,13.957825730433104,20.1554382663402,1735410057637.0
1.1040177748787539,87.80869173253153,208.38494216315502,679.7601930764615,0.015010435559888746,-31.998415612156982,2.2426140206189196,3.2911934803351746,1735410057667.0
-0.3000723345380003,-47.61834297181841,-212.33974923484095,1364.8419722571186,0.05348092667941714,-22.143756090640053,1.8450013236485443,-73.42420045946903,1735410057697.0
0.7688783950184861,-403.93872962978605,50.75179213116924,358.43107078023263,0.06688006369405176,93.17748920726028,-17.045099625855066,-55.14899904613939,1735410057727.0
0.23185243657279953,-342.2761465325323,-111.03313139208232,1557.1622738181768,-0.018567892260872965,1.2186548875359122,-9.009998623769278,-6.511309138022021,1735410057756.0
0.7239252657355989,-356.43958199685125,-904.274737701067,960.309752419671,0.027396298306482048,24.67530138969348,0.7730821212824782,-32.07181831530155,1735410057786.0
1.3015884362548875,-542.3067547434334,359.30794345813547,42.64135581664186,0.02136871974262005,43.93897512766117,-3.0759021904990647,-47.74138894668907,1735410057816.0
0.11758962184897392,-147.9923631317919,51.18363840006677,426.98274314989794,0.03791811229630438,15.287063474416755,-1.0434614410864893,21.019292420805634,1735410057847.0
1.1479429319324355,-1133.707985233059,-267.0084885829594,520.6019066957481,0.04798722592705594,-5.984424213301109,-12.80651298968069,-53.78858119798237,1735410057877.0
1.8700186603007967,-242.1279206152572,-755.2858654509134,1251.0595394503453,0.05789668912162885,1.5354341411536208,-12.386051617848931,-27.746995352155828,1735410057906.0
0.16745036454579865,-704.9230891339388,-253.24779796632637,1786.566799718613,0.014238360986572524,-54.21887071364826,1.621944765408815,-74.0640458021478,1735410057936.0
0.1590340957044315,107.40218653504243,-199.38170112110322,630.9493834734169,0.05928683293908836,18.294515437476047,-2.867583415642317,-21.29486819828823,1735410057966.0
1.363136247554538,-322.86940863721355,-662.0172818881896,-324.87117933836066,0.08994196262150665,4.5501845773133756,0.26096736932341286,-37.78834953872002,1735410057996.0
0.7109939867517917,-1217.951245614717,-418.07877649915355,1664.4485314884946,0.036775706360843846,5.351029819518697,-12.730679339928509,23.207560176840417,1735410058026.0
0.9805575485895414,-82.68220270792742,972.9650130067885,1363.4956272067102,0.05908343457225369,18.25055191548435,1.2719080281361852,41.50880611104576,1735410058056.0
0.28091390838847574,362.96144718885836,-803.2806979354601,1073.7047956329654,0.04646309846935184,-23.1425186019168,22.624613101723746,5.746185154618416,1735410058086.0
0.5674436734103154,362.4407091367525,-99.71390363104848,802.7968731500163,0.04128300867798778,-39.66528876146217,4.892956263664114,73.58034616976477,1735410058116.0
1.5124922075661158,127.66699581546825,-104.01889927676004,510.3479254059686,0.03886756006410752,30.038816835800098,5.954386557216411,75.48858117727373,1735410058146.0
1.4025333694958737,-36.86512954776066,-631.8967939763656,5.150498945052732,0.061811512538740815,-3.57631001183156,-1.1127970135449776,78.28102930121156,1735410058176.0
2.2486276059073136,-715.3603022207052,-367.47748156992526,1078.9062837293125,0.04052908536932516,-8.349576502459449,-10.29190264235716,68.1913209747717,1735410058235.0
1.010234111576833,-632.4197051936196,313.0195637881843,-504.6838539434989,0.04187778373658472,2.532266807290422,5.1536228949076115,5.9553541149000395,1735410058237.0
0.9815043724787696,204.56991334582258,-479.45627819472077,1450.7852823293108,0.044379575393351293,20.92226118700472,-12.570279711205849,100.35531805103687,1735410058266.0
0.6042773870935639,-800.7387610510408,-708.7387615506918,967.6851602958222,0.05686150147844642,11.915173587251521,-7.36037504783355,53.84063484095135,1735410058296.0
2.0223544341539874,-482.0105408633085,54.17268052800682,925.8389321958247,0.05420088917918975,23.42578203717903,21.150738361977787,49.60336566417938,1735410058326.0
0.6351209477366684,173.93526313499464,686.3455331266823,881.4085435308779,0.02778754400801967,22.793296504712284,-3.29428310010505,1.8145797170242162,1735410058387.0
1.9811166191937202,526.9946768713592,-1057.2114139596029,-72.37810184704722,0.03315897791378729,-58.82974203272994,-1.652046586280556,59.176582624030985,1735410058387.0
0.42995280917090095,-774.2080082899417,-359.41396474610934,1234.0688945578859,0.04846556566202499,18.740556393595497,-14.358799275513217,59.150089997474026,1735410058416.0
1.5431116543654553,-540.4029248863167,-639.7884952766427,914.5678976178208,0.043491923607697644,-20.68345238684905,-5.782382967126661,73.60747522536647,1735410058446.0
1.4241094119219881,-346.9887862153835,392.365964727707,950.9793848384803,0.01732989072026644,-13.455259060552452,-18.561397940029973,11.806068034769972,1735410058476.0
1.2293335924272575,477.1962072260845,-518.9430277084075,993.8438141472357,0.02510839060138401,33.28964068399495,-22.086930887130517,37.648129257425026,1735410058535.0
0.12004277490859672,-176.87124045420586,-336.0363605775565,1140.6289014824406,0.03592983347682806,36.129241454013616,-2.209159973178858,42.64965108267497,1735410058537.0
0.49671003248699175,-446.27602165260504,286.71800852300066,763.0237065528729,0.031848929917672214,-29.482471244414135,-6.01763192859006,20.73275547093071,1735410058566.0
0.9730323868068094,-183.56761172994632,-126.14185177766004,1537.7586074584929,0.013833015966496987,-0.5821751747258799,-17.406201680094846,17.248071038463294,1735410058596.0
1.0476413339758601,-159.97390164530606,-488.5684790568415,1628.1923680633577,0.021885368710757275,-15.791504206655478,-9.063917861119995,-3.3707413258034116,1735410058626.0
2.031631291162877,-261.01893178768023,-659.1329044370973,1497.1533532574006,0.032803193216946316,22.646808421131308,-5.353450494186309,41.798584036221115,1735410058656.0
0.23479677485382544,200.54301625531085,87.1415853092974,595.6938417046379,0.0033428630720219905,-2.3994337872601137,1.363017856375667,2.992618393906964,1735410058686.0
1.0917315609429943,-75.66409654878669,1033.90086893749,349.9947121396317,0.0198495047982664,3.9713179225905053,-23.245464475859226,-26.292362896031477,1735410058717.0
1.5373202663547456,293.36584450832447,-141.8870386291255,1132.3723117203945,0.02166632905774514,-36.39674911432088,13.112528871723772,9.502048723964759,1735410058717.0
