Acc_Betrag,Acc_X,Acc_Y,Acc_Z,Ori_Betrag,Ori_X,Ori_Y,Ori_Z,Timestamp
0.7895185796728732,-320.05320955231014,-1309.6108881450414,688.8987454283631,0.07278286015553394,21.32030075919925,18.93354953528407,17.557958445547012,1735409694480.0
0.8576039485710425,-1727.3576952998865,-425.94511213234136,-185.9524111429242,0.06537580421295108,35.98608233405124,4.836994070738589,73.63930431202874,1735409694509.0
1.6479639468210552,-1163.2425093249317,-1011.7994072211997,-34.93597397472621,0.07291551347384259,44.18450220364052,18.197443040250526,38.66961082469131,1735409694539.0
0.4162112228881307,-1052.1313500763147,111.02671877270691,-395.7034160926907,0.06327780230810216,37.69605531902595,9.7195394795815,-27.973341511797585,1735409694569.0
1.0122667584982272,-63.36489612632249,-797.7107526426944,-1099.4338631683001,0.04777969014403553,-2.0759988992725766,-18.223649291887376,-25.301344704505222,1735409694599.0
1.3789884511480512,-1196.7756470310119,26.74747618767202,-827.597490213821,0.05207390578824757,57.578024845407555,-15.541012803502127,-51.682317812032565,1735409694628.0
0.33404800136111823,-371.0372951499895,-474.3035928543462,183.0922343468369,0.04665591108384887,0.11875890427647562,5.957229799055607,-26.190150944298416,1735409694658.0
1.590261520812281,-2102.59402362982,304.9401793078716,809.6858397073338,0.03224313794538805,48.09271415043216,-6.29522142322214,-40.32721756234114,1735409694719.0
1.9783881990068353,-1497.2844681646948,-178.44019407018908,-632.0753395538652,0.07136576403600146,58.95130762132961,-8.235949863859299,-41.565385929158616,1735409694748.0
1.393783928630694,-660.1131489389587,633.2794872897189,668.7349386860258,0.03890435170733249,68.25947063995682,3.8838925432928693,-13.29300562734058,1735409694779.0
1.5855086518523298,-934.9984954146944,-22.803097677736474,382.94497176423874,0.05096109755074471,42.99087749493123,-2.357985116742624,-44.326277690375306,1735409694838.0
1.3397578741166845,-1598.0523211290883,-273.5498065085991,848.2850498030112,0.04489204940885381,-55.01513504892938,-4.228151272775815,28.700867877948912,1735409694869.0
0.6257625424919845,-2279.583460051263,-515.2117769562874,-7.921122051483014,0.04072272974276657,-33.11711306984596,2.6845983228568038,-35.71001896707794,1735409694899.0
0.2774541664626447,757.8403662058014,-232.34834174331644,59.14020236015975,0.026326478253960277,-42.419296464507674,1.6909745132561929,38.59997035786955,1735409694928.0
-0.32272705942926655,513.0147530504421,-14.09702061699437,912.4936075785026,0.08844360154982894,-85.41882587548378,10.723416516190566,52.33138312421716,1735409694958.0
0.7205010239210881,190.31103669560295,77.1073196500916,-928.4569322994797,0.057324821501004944,-10.221277715984357,-1.7896666908487382,-25.39103973442359,1735409694988.0
0.6711573593515083,-360.7473431809101,350.4911860088832,-1494.1389838699642,0.02189940564109304,46.027729994982046,6.4346402742779425,-23.89099572865381,1735409695019.0
-0.19027751335593718,-791.5155388938814,260.05767220497967,525.8088367855956,0.028895452943107275,-49.571125678625634,-4.354810837157579,15.167205633461426,1735409695048.0
0.7610078264198687,229.64777338347614,-133.8119877917104,882.1477718935291,0.04485235879101181,-44.18167455340652,-8.133631211968815,-63.11637172210682,1735409695079.0
0.5151480437227763,912.5453215924308,-665.9496950063,-442.8419456623825,0.04737399818776962,-103.2890953618737,-13.019568676707157,-21.239645263245706,1735409695108.0
-1.0497848662767317,713.2143969472198,-344.2524937384579,-244.38702703717405,0.045363643288447435,-19.416818928409132,-6.062691404898665,-24.042607083588273,1735409695138.0
0.11471381137262099,80.03849493322866,-408.22393823423187,-641.9757686431224,0.07438931646205003,-62.858820238985956,5.286362070456422,15.071912807207891,1735409695168.0
0.5289285140349722,48.99022481050103,1250.316339695395,-882.8656743495217,0.04135042909955574,-27.04646494546609,13.040749202835837,-7.489887622286037,1735409695198.0
0.9399342504978732,517.0669803030963,-160.46196886066704,418.8689458047474,0.05887927520491493,-19.57462202776922,12.15765531922785,-8.496714467369745,1735409695228.0
0.2672593501749049,-431.85597746295434,-391.6041269214409,503.47410678653785,0.04147073269735407,-70.34718217975416,11.449343243294724,10.30768791519861,1735409695258.0
-0.35277267321855227,72.79741210459551,270.09498133791095,-872.9680213318999,0.030840085213793972,-61.398078610782065,-1.5487514654480288,-42.76602349121997,1735409695288.0
0.30945373102164914,390.9739565333516,-34.180388569607715,-384.41981090240967,0.015554868397323528,-61.966878459489806,6.189625844175377,-44.028879526150305,1735409695318.0
0.39268681102778796,-591.4354485185411,598.7445762775418,415.8943822272165,0.036700424114941406,-14.794739373262097,19.354506135068,-2.155856447511379,1735409695348.0
-0.5208274370110034,143.71846505124256,659.6302079404555,944.7028183123822,0.042548516357048226,-71.1684498828413,22.86784953021511,-10.27356126490617,1735409695408.0
-0.059176257719175195,-104.00381274193546,189.11376846451765,663.7092016757102,0.03792118548671312,-23.366794027631215,14.490745726257765,-39.6904131653183,1735409695409.0
0.008247298064991387,-402.91411783171566,-762.4314973086111,-719.2461060992142,0.029856744900876225,-7.76338758248902,5.492574742091111,15.856114713119279,1735409695439.0
-0.34732479195606897,939.7669004728065,-784.9738207093257,-872.6842395558475,0.01070114111482786,39.18089119769985,16.622946867806064,59.66753707732429,1735409695468.0
0.47804348988442913,-844.6470544311563,-698.5542201065031,118.4034884806472,0.057012138172989724,-60.42603650189813,-5.12431828095491,27.085551782795562,1735409695499.0
1.619399106474095,458.67418049412197,-344.36140390188746,-826.6352430484978,0.021376209590303022,-36.53826595018621,-7.068103369075022,-36.67953496970527,1735409695528.0
0.7408310684957109,1033.875502359346,194.06093301251101,-1778.466239388683,0.05324798647902222,-93.98663512787928,3.477506440852828,-1.5929814937080415,1735409695558.0
1.9331068681476118,565.1386658664957,0.46508152127120184,-423.81734890426674,0.05203966619545223,-49.737350739308546,9.881118796522887,-25.68637890102425,1735409695588.0
0.34715543399298665,187.97714295760574,448.3959855627496,-1518.4409953691215,0.02685025646114689,-54.36667842278012,-8.662630802350014,8.476150557950689,1735409695618.0
0.9546008690211573,1244.3464008530023,-89.77113945478573,-287.0456822202076,0.05388810204633235,-42.55870196745482,-0.3701301554710338,28.038642305297913,1735409695648.0
0.7332186323218218,761.1945621769031,72.27780587411738,5.92230459621419,0.057968233496573734,-30.029357108435622,10.504863066058665,7.836533869632552,1735409695677.0
0.9939687117064473,325.8822701153755,407.0785246083742,-1743.3842452662598,0.03626074142206617,-30.570149380876284,-5.17037486753779,8.747314988237637,1735409695707.0
0.19401734929918413,-579.4898143983703,635.91651932782,1019.1219663023764,0.04711445495158511,-88.30334762240204,-9.48957719671788,-36.625503987537215,1735409695737.0
0.3183850884250644,-89.52314572135873,68.85129535956818,-51.02222982365254,0.0518571020441299,-13.616508752870843,-5.347683321224904,25.179184909058804,1735409695768.0
0.3493458451509909,-555.687211239284,1623.0388442771132,-1747.4447673686732,0.026042315378780313,-53.21094157880006,16.348872641882004,69.09201531459101,1735409695797.0
1.2568536871860432,283.0101120013168,-1094.6147476623962,-2281.666668815945,0.02885615424433988,-36.72737333718609,1.8208121171854987,31.976774663033538,1735409695827.0
1.5913452376071602,337.1535799779907,125.81025031304847,-902.8460685093476,0.06724299285593419,-57.78442527766439,11.989093129035735,-17.577604622663753,1735409695857.0
0.42977961934505704,342.02205885892135,832.0543632929207,-1009.2709021695321,0.06639561667255832,-77.0375036669362,4.0872472292611,54.29714577925168,1735409695887.0
0.23361409883502637,74.21992768830515,345.164308502852,-247.56284949150233,0.03361675636101369,-53.99782871473392,10.46396018004131,52.99154568675539,1735409695948.0
0.39551563190775263,400.69122015526136,-258.21282198703796,-666.1151691911695,0.07671314146909165,-30.473439827722864,3.8945543121326205,24.11840786859593,1735409695949.0
1.5065417045942333,671.5654830696739,719.8376061779711,-1187.8873493493518,0.07122331546612892,-32.59149418288945,-4.346821304635037,-18.704003338668976,1735409695979.0
1.3828053081217315,1248.945906217643,1202.7570690716657,-1975.5517785521129,0.04476090820834218,-40.898845699323104,12.094041495595242,55.56203150722038,1735409696009.0
0.7973031880048698,394.32275280664965,573.8839689394894,-582.5510726172622,0.054430792416445134,-10.8993820950421,16.370140307271377,85.93135853852297,1735409696038.0
0.16891813096559327,-623.6742482728623,755.7679834458721,-1260.5160469769871,0.029933923532039577,-64.91807234501734,3.2024584119136295,8.830385327320137,1735409696068.0
1.4188762491575841,279.2776720402102,231.8206108468658,-1790.1918161847666,0.0456144230658657,-14.19178600277452,17.76673971716155,50.72304599321442,1735409696099.0
0.3362005570849831,-208.2609084396545,510.3861814781379,-1570.5758070456109,0.04448002722558697,-39.16463728973618,-1.513781964345581,24.206153897577877,1735409696129.0
1.0321084620416399,797.8111778736152,973.9431133714255,-158.4662926774423,0.07092689589452078,-61.238638357593445,1.425737674984541,54.17730368692537,1735409696157.0
0.951287882916116,198.9748242322288,1.1768175945091457,-1247.1393897751618,0.06970025705677146,-49.655919051022984,4.108615638282008,31.150076494101107,1735409696189.0
-0.0012152477079585555,79.08353885454463,-312.7769671727584,-63.92294844839489,0.04832132189332662,-23.935186375653586,6.06449748511558,40.09825597858564,1735409696219.0
1.0939894776789858,449.35425383405766,185.79152399508712,-878.2825171098716,0.0617310474942869,-50.47723742885087,24.699365556535653,35.976671027357355,1735409696249.0
1.5375483091920437,417.1425000794661,-275.05877488417195,557.9531877688853,0.057467134097236396,-41.957224899674536,6.095936062083729,62.19791250750387,1735409696277.0
1.7503535362271139,61.72310854613073,-210.15744496238028,-424.3902774910507,0.0665109440565133,-15.47206423271911,30.710947590316906,52.99530932814632,1735409696309.0
0.5522372989533693,649.0422678789869,-204.72961472815547,659.465483310001,0.08326651085849586,-68.87865626418541,13.510050801670301,-30.338509509198165,1735409696340.0
0.6708296324649142,189.3068817444993,-35.165568214888935,391.5370131370187,0.046083063056565565,-44.373041151827806,15.81743741400998,-63.687835451055186,1735409696370.0
1.1107008970349865,283.8757231214981,690.6470457594453,-1432.3409617774532,0.074229049115813,-95.8428765573543,8.012469799090304,-94.47362527589681,1735409696399.0
1.2580388011003063,1032.3803720413307,-834.0858019359666,-291.7071343415687,0.0785463441648677,-19.213211003385897,14.299377394488506,-65.26178629815985,1735409696429.0
0.9966054655452045,-33.972738780967575,113.77667397197885,-548.5224029256451,0.09074249943163665,-11.485285086489732,4.0502941388401545,-18.666015836627256,1735409696459.0
1.0370902312060482,31.7359695969335,744.461365926303,-1449.2322691529685,0.047061665450987694,-88.06709158275004,17.602302451782922,-53.46959814086889,1735409696489.0
1.1155244195347562,146.2209189445033,110.1819723021126,-314.6340622124021,0.09055453125890062,-37.82665283301472,3.1240205655551665,-39.75060969544932,1735409696519.0
0.8329111603339836,122.87799754689465,-750.228359588473,-1056.7259312500244,0.018273266766831914,-43.034897145291616,5.258020325042093,7.049732342247587,1735409696519.0
1.3407506763317723,1324.1019524327028,221.68364533448818,-485.6604011723167,0.017931816957316035,-50.36054053140375,8.970777600610134,-51.77405908099804,1735409696519.0
0.39564825201971354,382.22230183093575,-72.79261356081514,-870.1940116267848,0.06773136933811483,-29.948197606356437,16.38120875689636,-36.005320199400565,1735409696519.0
