Acc_Betrag,Acc_X,Acc_Y,Acc_Z,Ori_Betrag,Ori_X,Ori_Y,Ori_Z,Timestamp
1.2250870797732785,65.2463100380653,-1677.399556284512,467.1260506808558,0.03169130199867416,23.22526209180074,18.17528627553707,3.793977306087518,1735410056677.0
1.3832122706553847,662.5454840187706,-465.38941658329674,-745.3631343866651,0.016403296487114402,41.51813418344082,16.761613833593653,30.432602797201838,1735410056735.0
0.5455706827611171,669.2609532716872,-216.42371767317934,-179.0629855874086,0.04753739607172967,70.47674555709798,12.565611051648741,12.061245211649476,1735410056737.0
1.1842596544802404,1519.5162829894864,-1099.9937528071484,-427.87866577961427,0.01631610343555695,46.28554550290511,-13.66618371117786,-2.555582987101106,1735410056766.0
1.3271472827687008,986.4151107318814,-607.732083660796,426.4094236024085,0.026273133804575875,4.129744406344036,1.615932709148626,4.651908919013696,1735410056796.0
0.10332762556488062,417.4373339928202,-1278.7565024602932,-990.5853509376971,0.03432541906794623,17.369752534362547,9.536391856579993,3.236210732742176,1735410056826.0
1.9232949445885725,399.0568736091153,533.5101617498322,1076.0074699955685,0.030902100487192198,14.949042370254984,24.461408502359056,-78.99797452336203,1735410056856.0
0.6972775864370209,454.6458448140735,-1246.117854126165,410.9016453593814,-0.010511745718982342,-0.22491347397268768,6.5060397651030755,14.63239439214209,1735410056886.0
1.0944818647165933,1091.2791280639804,-1880.4482897073322,215.00106375008244,0.018180552590823094,41.06652209206001,4.937322314795853,12.556706678975914,1735410056916.0
0.3441816918734778,679.2985720772288,-507.04240241948594,1377.8541522907035,0.03410196382310876,23.667566709572007,10.563669245788823,-43.09831922967967,1735410056947.0
0.5945744681503493,845.3534591674636,-1744.3475223282717,-697.1892880335046,0.05278418718728513,16.494913522396768,5.014258796744231,-1.6158375540793166,1735410056976.0
0.9391096635079464,1036.1397891725323,-1069.3436189712963,-763.4675426285593,0.03531838946971608,-4.535446848233109,0.679862152971582,-10.877610221847718,1735410057036.0
1.7264098510031256,1161.6839041985218,71.28934877790482,442.9508590178252,0.029118044092529764,-14.567511605563933,1.4155790246464086,31.84519369770713,1735410057037.0
0.6868969370993598,698.544900625051,-517.7619426009792,146.72590354313022,0.022871764731449994,-34.490871979923085,9.94024581689265,32.48857471021825,1735410057067.0
1.249791526835981,553.7205165840924,-329.5824176697812,1143.8336554229868,0.047981919946118924,38.35508250910513,14.759519756772507,-52.102326213175054,1735410057097.0
2.405838367829609,1068.2254348409979,211.3210460857377,318.16712616262896,0.0569190794077994,3.3146020217379846,25.010648185534095,-66.05396317513197,1735410057127.0
1.44575452106707,1127.3706373632729,-384.62021946461283,503.17743347513795,0.043920215503908344,34.732822203018735,-4.4855484954317575,-34.63596216875692,1735410057157.0
2.617260979709126,1020.3911405934554,-465.40882828899146,-470.753961576512,0.05898721064738715,23.89865720967311,36.33811995477954,15.143239671909079,1735410057186.0
0.3262387832145968,108.18837149943496,-958.5791116923708,52.06252064214368,0.05190993551542349,22.615038231613646,19.707708152948463,1.356381223521998,1735410057217.0
-0.11842711651821153,676.4824838947023,76.08002862588543,-398.7092060804513,0.05621804855976997,25.46165798451308,-0.9106432845042025,-21.655309853034964,1735410057246.0
-0.17948101373970793,704.9558039401129,-777.0547844465246,606.8826810625741,0.02733662291764507,12.53181035172581,-24.877747373829745,32.04135119531287,1735410057276.0
0.24665961445696213,490.65718727676136,-261.54276113834845,134.44859139918154,0.06608488741132934,-13.15285239776586,-1.3439531740893838,18.225117283571098,1735410057337.0
0.7793668295397405,-690.227267394899,-8.19997154679099,1128.948950739132,0.028013428470231697,20.361093094200584,9.804174622630239,31.615175776740966,1735410057337.0
-0.4853072483053711,679.3723992019026,-288.8782973845766,314.3520052300442,0.04770637464618352,-68.31215719830118,-6.492546113521051,-14.807965370749951,1735410057366.0
-0.5083579279115822,-538.8251608491034,230.22969410660787,295.588483510814,0.04682938615173412,-46.88208118321041,-1.9220220972927144,-56.66307609374847,1735410057396.0
2.4659451950126368,-212.974645457777,1983.5059217696312,-2192.7116315307853,0.062360472645833394,-46.54844412074541,-7.527936870737936,87.49859721024143,1735410057426.0
2.092367555922423,75.49822489954522,494.86483551620984,-1416.7619203668767,0.04037251474211427,-29.501608304276857,-19.58816797055223,41.926518543786315,1735410057456.0
2.388124530313899,555.9933859446548,1647.1905367220825,-1981.6038817520873,0.0524649910923101,-64.93355939814141,1.579334657554563,-32.08131405058558,1735410057486.0
0.24445484877758122,-63.75810328276236,-455.79457653927864,121.69386979374235,0.053573904043895074,-28.432823348438305,-12.570597341691602,-25.85476357002922,1735410057516.0
-0.16957528816642964,-557.0870990042828,528.5408046467804,-809.9144704261356,0.0032538943915292363,6.821303672451645,-5.893671634060416,18.260179357567154,1735410057546.0
0.28986971668251305,-427.33804118611823,-473.4547844803676,-554.4135579424747,0.05152876773112935,37.55160779498286,-1.0900710641463487,53.42060243388735,1735410057608.0
1.0085806441882013,-469.4146296868839,-6.800208816816626,339.67855474226087,0.0639534768144523,70.2885445663044,-4.461863177079007,-47.44856732104458,1735410057608.0
0.11992342995000566,223.63905267259585,441.42127564067613,754.7525764414318,0.055458067561546934,-53.88384608690902,-4.284678613574152,46.479744003617654,1735410057637.0
0.557795884300123,315.30489704599205,-395.7062251510819,-1102.3647292283797,0.022471635445307593,16.978739107528845,-11.708482037068684,42.43901381684804,1735410057667.0
0.5501316768781065,-61.28730545504716,-150.8536322290616,-17.15349677904328,0.09026124817076754,-2.237220230847008,-15.184282754388438,-62.429348280980385,1735410057697.0
1.0119435546120221,-116.705863031203,-336.70582704527305,1514.6600893135233,0.06325480671857905,12.069882751845505,-18.56662201507304,-83.33110869509396,1735410057727.0
0.4155570056733965,1.7447296080828707,479.15849981213177,475.8749748435083,0.019440970596230126,26.520827920327974,0.5150385318278303,-0.5915932030473403,1735410057756.0
1.0227017659003677,-599.3549142100417,-714.13976937046,370.67030869480385,0.024894195379975684,-36.36683078179606,12.992388940031956,-39.504569865193304,1735410057786.0
-0.0013251691363700413,812.7930392806325,-363.56757520552435,297.4880705634132,0.0364134794032486,-21.78704118009236,11.722442784310946,-14.42990429982752,1735410057816.0
1.5479468070006908,-836.900475466348,435.0655191247231,1333.541700987032,0.009221435098814068,-13.905144496180014,-9.469160204008453,-50.19699396753785,1735410057847.0
1.4839808400236851,-685.966432674415,276.60678762913363,-46.75234963783157,0.019475024676464236,18.45271623606984,-18.690831702924342,-11.411513392128164,1735410057877.0
1.1544315217625625,675.8873253514147,-521.5656380392135,1767.7339977206523,0.03285509488523056,62.82175577055445,-4.119257689650933,-64.97879043655948,1735410057906.0
1.3753362648195346,410.1512389237416,-663.0464927581731,-798.0925022157526,0.034945388662748066,-21.143090457365272,-15.867747788349748,-84.58022474595283,1735410057936.0
1.607825400209455,-463.24678747728154,40.04041244610181,744.9368306632384,0.0665602538467796,-24.823032578322227,1.0189938942762464,-37.80481456944978,1735410057966.0
1.63185848674972,161.24180452798896,-748.1350434485048,2292.668731528597,0.033458340884474004,41.8425498826914,2.9689994853660258,-54.427647233185944,1735410057996.0
1.054675825448268,446.6558056959608,-194.2378251314958,1284.2233608993406,0.04498482732714729,27.00540122831846,6.09459828578896,94.46170218725273,1735410058026.0
1.0896059654270436,708.3564078748952,359.69223014514705,1921.97199847268,0.05997491432766995,35.90435425505058,5.658012818002874,46.11252858527076,1735410058056.0
0.8979758732996372,-215.26809756504645,-947.1960512345296,1273.9027800104693,0.05162706495769146,-10.146927323650043,-4.123938885150749,18.555878996303775,1735410058086.0
0.9736770412386343,140.14735384203806,751.5985194411578,1036.7155928616262,0.05584315308455704,-36.3895331331348,1.2083915882316187,57.92375821494126,1735410058116.0
-0.18014540283265845,-116.65950991403919,-727.2333535149194,838.1297056850054,0.05452867191111168,21.77409123048003,-6.429118132652429,31.017361861246805,1735410058146.0
1.6146969167798628,-45.245984310764264,-679.9679757166967,1076.48816178662,0.08868022348265828,29.06366785873778,-18.630253871732386,30.020382855101587,1735410058176.0
1.479793555247055,-683.1926928328651,112.12262784596777,1950.3264516988916,0.05665784241983781,14.12441677105111,1.8591010922274926,75.47850708762732,1735410058235.0
1.016617841592528,184.66918629952931,190.46162935087864,2313.822245279882,0.03852048099794084,-21.553056231680202,-18.831844646458272,14.595313277311181,1735410058237.0
0.6883366314116398,103.71921566322166,-517.8824767952715,1266.6140005556504,0.03649722325653918,30.338386516951804,-5.50222314248712,87.38446748394766,1735410058266.0
0.984383302019289,-187.55124243832844,-319.26931000502697,-42.59403629338317,0.05130050246079394,-5.266695285219781,8.867854113671648,23.453669988331832,1735410058296.0
0.5293257428763385,-173.82550015078382,-245.41176602579472,298.73863093215925,0.033194522811332026,48.10971844604699,-11.287295968449149,41.81980714269971,1735410058326.0
1.3265875236702764,-30.55946569964855,-156.95228398515513,862.7279635726007,0.036903494042494815,36.37048473120267,-4.781890544583259,19.58002349735267,1735410058387.0
1.3458306534618283,47.00235483471123,301.2094074539016,1229.5545710713156,0.035776629904470204,8.330799931924725,2.097990042449309,-46.271413242932326,1735410058387.0
1.2809242024017262,105.60435690264424,938.2666368772516,941.3648843284822,0.02092213161291699,35.86574512198988,-8.34974390979595,54.22322400187399,1735410058416.0
0.8602561580922201,466.40362013030665,-732.6268140857476,-111.53700587682431,0.02361243557453762,22.519061704078375,-9.246956646316796,35.94788937928783,1735410058446.0
0.7545928472138432,804.1267119078201,178.86990665831541,1052.962103407622,0.010477797144876008,3.019896997754876,-0.4944748091657756,13.34682839914586,1735410058476.0
1.1821205382697662,95.37441419960304,274.02354907474444,1677.769114138483,0.011905222499521228,5.0858183956128435,-11.346387383101987,32.75749323541861,1735410058535.0
0.7322485464222037,-300.778270893911,-996.5104174389359,-129.56239667387877,0.03502251541059748,9.081845813383069,-3.0961442473105065,39.97382629627852,1735410058537.0
0.5760997269339988,-209.29979075789439,-384.6266264249096,1309.5249566383748,0.041594001650742035,42.44083766427636,0.6147690940503643,84.35449935356837,1735410058566.0
0.31863208719242464,-978.6153515650398,-1157.7231318630388,537.2568640707773,0.020306680335317667,22.797716917707522,-7.199599688233724,28.545313735177473,1735410058596.0
1.2782804046312821,108.88014878648309,455.9628358346838,2437.3270473060893,0.021807902720912185,18.81750289688896,-22.588480384833538,47.002266145782485,1735410058626.0
0.8530031820656634,-31.351748988356775,-702.3533627913293,129.01616090043376,0.009500476131642024,-1.9149664625575453,14.340616354376127,27.71522175285348,1735410058656.0
1.2290959051132904,-329.21715563885834,1114.1439957032699,805.7982435733377,0.028507318741871998,-54.81541544283433,-19.034732447272933,36.861923572932064,1735410058686.0
1.1077356157289282,247.98782312394275,61.25706672439446,85.60512007167506,0.01748830350241223,30.379310582208255,2.370310139863815,7.770344745441975,1735410058717.0
0.9865181318434947,403.68747127889026,-11.275959778586213,974.9524198017385,-0.006924772157288959,9.20037741963726,-13.522036880933236,-4.304069375766446,1735410058717.0
