Acc_Betrag,Acc_X,Acc_Y,Acc_Z,Ori_Betrag,Ori_X,Ori_Y,Ori_Z,Timestamp
0.8522318377668499,1009.9439166661866,397.83046399896347,-1497.0136750771794,0.06830239446939067,75.85589637256226,-25.271119110462266,-2.7483700217183262,1735409797687
1.5008758430010691,320.37560528700857,-1071.0484358892131,-1521.774104760524,0.04307034782268823,49.30992465305618,-27.932125420279927,76.13863186013327,1735409797712
1.1347893382837488,1394.0582115045868,552.4574116426373,654.9965756157108,0.07622507648822421,32.85868046244256,-3.29716909360298,32.33330546085989,1735409797742
0.17932162241070482,236.65135699837606,1349.8013109091337,-1143.0918159789067,0.03013196648807609,-50.47218322567496,-19.104789632601694,-0.39650853877249403,1735409797771
0.7704783868101142,647.9988370053493,1093.4433411540826,-15.608048841948573,0.051499341216173646,-38.69520342815444,-19.56028813700081,90.9616239761722,1735409797802
-0.08967112923583176,686.2329086785815,922.6123238673213,-1489.11136873141,0.035800215718424296,-39.06065446515332,-7.337044408689479,14.612273992870861,1735409797831
1.3494171437424105,146.41028575665712,450.2555470347949,-741.7511374334526,0.033592784447452624,-46.772368392063676,-23.747845927345068,23.825344753895934,1735409797861
0.9710049617014447,-274.08827240414627,839.1400000830705,-242.1972956966472,0.0609945289490275,-51.05493380726771,10.617049772367873,24.04581824910583,1735409797892
1.945011899016747,-722.7537311861631,1095.9967036862713,-1139.5658942949058,0.04780536722538745,46.579461638593166,-4.894386010272193,51.96618222913148,1735409797921
1.6158437672366515,826.0532977384855,982.0093412560411,-2254.25618087613,0.026563004779731298,53.016923801170364,-12.867394594108141,21.149902020537823,1735409797951
1.2728781498190516,-6.722793778954383,15.387521870413877,-1350.3427706106334,0.035396303249691716,30.129472053114014,-13.215676055239431,-61.44330807503846,1735409797981
1.0461404272928034,-147.90222385120444,-32.16419838757298,-188.4480719984757,0.029417015387282287,68.55701586460629,-11.020322005712115,37.045191998934165,1735409798011
1.859487101900715,1202.7388635531784,-721.0721310286285,-836.0964841880283,0.043830977078943324,35.57086739512903,-7.274715483041147,32.32542886504874,1735409798041
0.9155967531290794,-412.9168618948262,-4.0769008852679995,177.9231508762095,0.08589147244872775,39.549072477593896,-7.839278268509714,40.34653292008094,1735409798072
0.35088572260937234,253.43473013287883,473.0072897225349,962.6692507355863,0.034488821942593104,18.55231882467675,-7.621596825265054,-4.325378333134051,1735409798101
0.4963982992718004,71.22885635040178,-582.7072802639925,-901.3736496737064,0.07501120322482642,91.12286145200329,-2.5141814404193497,41.36513094051614,1735409798131
-0.577407443630385,851.1721127831283,242.97677893541498,-906.5594311708213,0.046537556051044725,-11.541013819184961,-11.783783930066372,2.5736301126384173,1735409798160
-1.4004309461717794,134.629553438192,500.51830273679025,460.52486422706295,0.054968407285437657,-10.343036662238909,1.5673580114871246,-3.7510702049741678,1735409798191
0.32291203740641766,407.3563101892613,-722.5078195935414,854.0509248497092,0.06320959305426664,67.2203018252077,-18.08166920920567,-77.40086491403673,1735409798221
0.21778394746317686,312.2489592278092,-71.77126807944651,38.279522907699565,0.05413767169655296,23.204100897485965,-2.0705658346497726,36.000907632683614,1735409798251
0.5083691602973156,-310.38600914629893,1091.9772783403496,704.76131260168,0.023613292313543525,64.68897795208656,-4.925627735670559,45.10509895847108,1735409798281
0.2811215004236084,-365.2058331375886,-656.6202641829543,649.0432007610926,0.04198282515482652,26.358453159378307,-7.094170140512978,54.9898393855745,1735409798311
-0.276517736734128,350.00618758027025,442.144900539895,-5.737704693565902,0.05498559185774279,-49.46201880852196,12.561951426156643,86.01804139588619,1735409798341
3.4513815148955644,1751.5188043506605,2436.2145312993935,1310.4310836807767,0.04134739776003704,49.12687049689658,-16.183448139288224,33.58298679816919,1735409798371
1.8242199314549457,2059.946509992864,1740.6192157372539,735.029684171358,0.048894487423171346,48.589651529959255,1.8555104224058727,-24.720281549811,1735409798402
2.751753442420662,1467.7950911325931,2127.2202094521544,556.4847862539355,0.051694133533211326,11.965933895476578,-6.956323802526277,-3.4783400780202385,1735409798431
0.5595425767488299,933.5417333894883,-173.03255116364318,237.23699349084097,0.036371705019697026,-7.8903576015439825,-0.4273136395864148,101.68013712250877,1735409798461
1.054909386185727,915.3068110766523,422.71682516956025,1565.039102490013,0.014128730144764571,3.6300376136454275,-0.5187759598013586,28.368220783246485,1735409798491
-0.3151771746178106,824.748573832595,383.1497813890047,283.83069837568314,0.037924178580125895,48.97568913821167,-10.0227701938788,49.05769571278006,1735409798521
1.227653375614107,-137.4643905238304,-43.07825740704152,1381.767284358074,0.04168382668144168,62.79723965108392,-5.423013450206274,14.924201989451351,1735409798551
1.9698678045780809,-85.34569113248415,-1548.06201559479,455.1974429931309,0.028179854692513065,-0.0784141051425209,-6.245348489509743,-12.655794925341992,1735409798581
1.4786145348187627,-210.78776917770378,-1072.2477078467475,789.5274473314615,0.036030771986349484,42.927226188143905,10.243752367133375,-15.759567335061384,1735409798611
1.3695267511816582,-114.49065326026121,-496.61404655778165,606.811744574022,0.07387121396959231,9.362634061665918,15.82800058796272,80.40538228744492,1735409798641
0.7746116303087933,-604.315581759831,-793.5154542851967,671.1749136937362,0.023999397160545468,-0.8296926646434919,20.095510666748098,22.592782224469495,1735409798672
0.9303039528831487,-1193.3888253357836,-622.3012519661622,-272.9454252876801,0.07347199579297287,-7.918432727479178,-4.69666774236604,46.445300138859444,1735409798702
1.5726237851488865,-76.18381717373232,444.1214945313759,1709.5335979556446,0.06121707934485551,29.983217335964206,3.9355047045949814,-46.52431596549738,1735409798732
0.4225116341685271,25.451457142816793,-38.902001428601295,1634.554590673821,0.0456816071778926,-24.587373919580862,36.20505655680091,49.131243253155624,1735409798761
1.1984997547922411,-667.6736383417111,-174.49208312723343,542.7621788344482,0.03171397186871971,-7.925137524761931,22.300005105413703,22.488974371771665,1735409798791
1.1377642604483404,254.1308590556065,-494.565903415832,829.4566463127644,0.038455073599310344,48.64514495885618,12.700684430576631,44.97404359730616,1735409798821
0.8282062097012671,-379.42757429035913,-682.3902752671727,1695.5987017907023,0.038870561445790756,-54.787540142960694,11.720298667556788,18.767155348471622,1735409798851
1.9922911619317167,121.41018204015546,212.50631199677457,1099.335556471236,0.062071059121720715,-14.023433426040906,14.309509408212726,9.27637782924758,1735409798880
0.9940609105614496,-177.38969283011014,-516.5907940741276,1715.6340037326477,0.026050859988522856,-22.538561254713713,0.5904919807867812,-11.029691670098444,1735409798911
0.7668668030024761,78.15715568956688,-57.651809689947356,1485.722628357656,0.02697099497241391,-10.639161612297006,4.790176588144871,57.80443028541996,1735409798941
0.9557252636531776,456.51327500147465,-146.4733979613605,1493.1639952082267,0.022745937223138245,-10.791684822511675,-4.272461812275956,42.62161549741277,1735409798971
0.7520915546209711,-662.8351324689154,395.9665220004787,1848.3632540856406,0.03571560781903906,16.882601954969893,-0.7278741148585405,18.932600031402973,1735409799000
0.7351666710237684,362.3064976957607,-519.7944829807371,645.6408185140119,0.009656788765346806,27.11519379614904,1.7634781838154834,50.06540534866341,1735409799031
1.931371830452406,-526.1462554903667,-13.744576736186104,151.22958560562336,0.033330228994702185,-5.030025462927912,8.18869890712797,-8.392461161017174,1735409799061
0.5546974805008436,439.7195539867639,228.6457586623476,1350.2482320042927,0.017523154585042274,-10.539740568190368,3.492360461708892,12.334283000658504,1735409799091
1.223549455370577,-238.71399008972423,-116.78499748793635,-9.720360579018688,0.0153513362630156,34.56961121354866,14.127503756143522,72.94522650113818,1735409799121
0.037796569850440664,248.4047234239166,381.99353211050436,1485.6277427580123,0.01392443858202659,1.0896082602640682,2.17059675743847,-38.68027331437503,1735409799151
1.4484292252395892,-216.4523522404206,-221.04040028405933,-188.6030868163025,0.013701073205777256,8.294250490618138,-1.1494510187485325,16.05553047299536,1735409799181
0.1284651313654298,-18.43124851348881,178.69591861415364,182.4742186132603,-0.0044677114455885965,-29.16680933031944,-16.342892643224282,-17.54810409668598,1735409799211
0.8227778924267961,-115.67960300827137,-400.5045126185121,1110.1071036810074,0.001999389699237474,-3.0500057754507477,-0.9734255632676545,34.95705591901676,1735409799241
0.566473504452378,-851.6259964696253,-437.9054247209531,1742.1913490897468,0.024978903305565202,21.378287692988838,-3.781890677056097,30.558129782556883,1735409799271
1.536417687510073,-618.2153543418862,-193.24029861153377,1443.963460369283,0.01943472237912795,12.91441384267183,2.309226245134446,-5.048210999726098,1735409799301
0.9303205018926131,-214.06595668155816,-20.43054763801868,223.16127554308605,0.037887502375630065,-6.415233326472787,1.849761324898977,-6.346362957613218,1735409799331
0.4674739613271708,-1277.1656729931356,-534.4899441393164,-1432.0387616338053,0.017688109879341714,29.311782464822944,12.0808531832609,-37.8718826931594,1735409799360
0.9771861649421415,-57.71150107038562,439.2597967207098,986.6748943790471,0.010116266008748162,-37.91002897534067,-18.79884001751126,-32.44895967371746,1735409799391
1.2311252887500772,-1024.92301302755,298.47173145860984,1816.8268841141157,0.017656148548866723,-65.20601086808368,-8.768636965463143,-7.9494341969760125,1735409799421
1.2649525748498922,-1024.6841934355432,-803.4474170567369,-535.4345874087558,-0.0010260667028069576,-14.149546077537229,-10.131958639337158,58.69766946108886,1735409799451
0.6770943140045318,678.671251802307,-782.0431407057939,634.4016389159974,0.04438275831352338,-17.461184735421227,-22.760361305753527,43.252559956416526,1735409799481
1.5181698987179884,419.8125832324514,188.133537429802,82.13684142591046,0.02155777897537753,-31.247891508569317,-8.331246470430845,18.982097427857685,1735409799511
-0.059186186753736436,-707.501778332661,-1087.2011258225348,2414.7534451094384,0.016459933146192797,-7.376604684541015,-1.3709653656768745,42.26987644598539,1735409799541
0.914438441754435,204.57166072518515,-592.4084680213883,2054.6058205766026,-0.006526678952684951,27.482290421723736,-4.093469193201707,-31.42057544149435,1735409799571
0.723385876955841,238.09892706640653,-534.6930880724941,1512.6617164873828,0.014846739545810141,5.461492261855444,-11.040524617160003,19.343081810607185,1735409799601
0.5910932958437487,-597.240563900401,216.57255927753204,1076.1352803630934,0.0218275958259918,-6.819395592006168,-21.732047644857403,66.79293213380934,1735409799631
0.4224673622529156,-383.0466191374798,-760.4023892898182,1948.6292161022434,0.011018784207666929,-23.620061037964245,-7.084835177654994,-8.728663490794965,1735409799661
1.0144756978292655,-357.214520453183,342.6857989976361,-338.55154739833597,-0.007659598986944582,-30.362272660372284,-1.4424347585937252,-23.279705103039078,1735409799691
1.5919023010460016,-952.9203765119998,137.77691010878056,-555.8164449844264,0.027594353778353592,41.87939133676691,-36.69131850289281,19.965553447212,1735409799722
1.1863214876353938,-406.47006678148483,61.0354274375681,1507.023454526359,0.014565511077149231,34.79619356828393,1.5281130078770255,25.317059706632563,1735409799751
