Acc_Betrag,Acc_X,Acc_Y,Acc_Z,Ori_Betrag,Ori_X,Ori_Y,Ori_Z,Timestamp
1.5799986275585494,-422.90829226408164,102.48731209946249,822.6385017369032,-0.00922842561099769,-13.510926684813931,31.99167895348706,23.15517682406822,1735404814507.0
1.7988968929022406,-769.6157124864859,-253.91099342864217,1006.7757640716312,0.004670761265500329,39.64247485092024,14.209260610143488,-17.584333631737834,1735404814537.0
0.8063823981995388,-576.0812865824053,262.43237678751973,106.59978817305739,0.037334380833185604,-29.61340655292638,36.81846734313539,2.1905362455843482,1735404814568.0
0.20933340819027413,-542.5623582352723,378.74078494785783,1559.8993889963238,0.0062082404118101436,32.13036681070552,17.877732263538505,6.016412673458173,1735404814597.0
1.126534544486447,-8.518267940774166,277.9452730550772,1554.9952058215144,0.0012496270895289412,-18.89648346467857,15.617526466002204,-1.6982663397349713,1735404814627.0
1.1841408336950705,-342.98460508939,44.793277042094985,806.8068483157813,0.01771231051038902,0.3050678145759802,10.927446662128853,29.66784266605533,1735404814657.0
1.2174032158721408,11.247819045605041,36.71646867510407,295.4868778139397,0.0018251825153002763,-5.736675745502829,20.43013120859808,-42.29565050818459,1735404814687.0
0.8908759852171393,-723.6106326102345,-389.028956051267,512.6633766450988,0.007095641541230325,34.404131305578964,5.322327042197798,-20.163401940971344,1735404814717.0
0.40577779072287157,1151.8435398817326,130.5076606776829,121.89557123354928,0.008416311757285796,15.812379276589406,1.3607658625207595,7.748767083361651,1735404814747.0
1.5331358129106323,-700.8662333484011,71.50283761684221,168.68756875177633,0.0028646050060195834,2.5813368636303937,0.6568924375734717,48.33910134020605,1735404814777.0
0.05200299907596384,-1040.1220050284057,-246.02982965394722,1671.8406066951356,0.0003111784754382431,6.109246058899036,9.892271335188763,23.817428000547245,1735404814807.0
1.2306490090051332,5.73577904295351,442.0554752776013,1112.4186735982328,0.029133405349132956,3.7847176275751457,4.40054093704983,39.0233701216728,1735404814837.0
1.149018431293669,-955.9447690096414,-392.5179728243056,1589.8832558476436,0.023914830223725154,25.78707272585752,6.405344442252728,4.4676663039475395,1735404814867.0
0.4370357844657476,-556.6201421422777,-904.3571973825436,586.8074526061481,-0.02117404244862125,-25.646040142382038,21.420952674080837,-7.29136478715109,1735404814897.0
1.2501119348001903,139.81419602138442,-477.4131587148466,647.5830770566363,0.018607159748374232,6.253350470905666,-4.426119135224187,-37.21803644304376,1735404814927.0
0.8712608106929226,25.7147661351639,-142.78878287560025,1003.1221441402888,0.02968970279180893,22.761451594054503,25.409390066060535,17.951800967275197,1735404814956.0
0.9642440497561371,-850.1905907914603,-947.7544513208467,1183.6810911421703,0.013386024539138428,-4.066553181028485,3.939548717305877,15.968496146545423,1735404814987.0
1.789622874854648,-509.1742735882141,-183.38023221708173,1845.8558936726936,0.0019622291875317846,26.115533091276582,21.37481250452548,-2.612688410714832,1735404815017.0
2.115212763758617,-836.0676707774345,168.07464373092094,1952.383292012876,0.022981544833646003,41.89038110701708,19.501307280355242,46.109169324538385,1735404815047.0
2.2982518554586395,294.20861804072086,387.43421820307657,3083.690539223639,0.05675191905620197,-21.761597631248485,3.6091978041728243,-72.29592873434271,1735404815077.0
0.09341669663856307,-284.55993227823507,-1119.6924773254195,417.95101409565825,0.06038306988688948,-31.033987515998184,2.6858079794533145,-74.05083493248314,1735404815107.0
0.0330554303411624,-501.4525201312696,-142.8401046595347,-135.30053764791828,0.07245372293844496,61.419343752349754,-4.6654436375238735,-76.56944375091663,1735404815137.0
0.19510561504908452,41.51368180855093,-1052.7631621656571,371.2362758864352,0.0430213510001716,77.7742749559672,4.544788637101821,-20.584091961716823,1735404815167.0
-0.39038491317112933,-1081.9269132891418,170.93946604010318,1107.6182191231965,0.05084443746597422,40.05410053394904,19.405774633344215,41.13620177784305,1735404815198.0
0.18939768863301426,504.1479068702569,-906.5815941962278,-533.2939795974271,0.06423675156034832,-20.36207329262384,-16.608695329185604,25.821654622123297,1735404815227.0
0.4401033632842687,80.07373158583918,274.26563086998124,336.479743790136,0.06540369573776383,59.50468637973482,10.85612038436551,-59.56983473128542,1735404815257.0
-0.21521879722883325,-431.4529975012336,674.881710395996,1301.4967203141161,0.03406630027085248,27.9693814111189,-17.406050869056333,14.737556199931891,1735404815287.0
0.9434238389033442,154.58256201613605,603.0792483687444,-805.6013956613989,0.015879155517738084,42.95679979754967,1.215004842475004,-12.250688852291871,1735404815317.0
0.1414590037632712,-123.92100385573896,108.54324317057944,215.6779251014171,0.036667828651530884,46.959103961470696,8.36566482672363,66.49683999506577,1735404815347.0
0.24531949324255475,104.79135894386471,-453.77840846310005,-325.7311075337806,0.05012604435472314,34.926251784384185,-9.288517174220715,-55.36447262347892,1735404815377.0
3.244606982562952,1078.2796325519853,-2119.5142174905545,-95.79863511239262,0.03937843911788491,29.66242404184868,15.114389757627944,-61.070376826906816,1735404815407.0
2.3413808175383677,851.2923731288904,-1514.815507315413,1649.2382130760038,0.043991988661484224,-34.16383174816183,15.035860140084932,-64.98586842713623,1735404815437.0
2.613168641805629,61.08257176427571,-2449.6022204911023,609.8851875843573,0.04640483610018263,0.47425535209907466,28.29597539161948,56.8313837754999,1735404815466.0
2.0084216718453676,851.3653596012939,-1491.3419893061441,1081.3926778162954,0.0667916631935432,-34.70383153302866,9.987321714293795,9.088376494927179,1735404815498.0
1.3176785051166595,-300.9771364388971,1241.554832557736,-1543.3508490758275,0.049032966009086125,-67.50637363016848,1.514630974138689,-45.561059217880626,1735404815527.0
0.6001859491049598,-1126.8489237902813,1123.517730032067,471.81859213354755,0.055891758878525946,-60.09721654773938,12.13532003353533,-69.23633462954595,1735404815558.0
0.38204115218033763,-501.17324148822865,-350.989460635476,409.75539352965893,0.0607730608526358,37.06927970517547,11.56017242155554,-10.733878206585644,1735404815588.0
1.0056953780424929,300.3042767993374,254.79756080136983,812.2781258336499,0.033268915876227,-7.307790020248561,25.933330333292737,-17.18655845160516,1735404815617.0
0.37479093893602533,458.5231534580638,360.15222833755683,1138.3405654399314,0.025404333293393436,-89.19288728334692,22.91699767363216,-45.77974088888119,1735404815647.0
-0.21976335064533636,470.1458705432398,307.86757031871633,593.4348333910618,0.04383769020252207,-28.937182356709734,-9.889495054976745,-7.66547324123686,1735404815677.0
1.5258239033591183,400.3438949762244,1488.6041025879167,793.69105891509,0.07552514884877998,-72.74065320008395,10.53216457402496,3.4826283077941085,1735404815707.0
2.0224811953733477,734.7599402016442,1114.8676976605898,702.0594721349792,0.04970555450839106,-61.98596873731641,-13.135091761270136,68.6796308866251,1735404815737.0
1.2289184648039835,1351.633019637613,1031.7091420289642,-96.81266264907825,0.023151299785879927,-48.264068666353495,-18.368317912353973,11.855383334649286,1735404815767.0
1.2501047480531648,781.0813225813109,909.6992414794084,362.472045871966,0.039899289280647496,-45.321653446873974,2.322515504805893,-11.894528175148569,1735404815797.0
0.19429164789318865,1045.4013126890245,1229.9886149473277,-1422.1033128958118,0.03536201735488499,-32.3701765039569,19.62248903695485,-35.67677742990756,1735404815827.0
0.17438723430662229,-76.4244312850883,362.887762643767,920.5887973246402,0.025287121145302065,-42.924221189818,4.382431819601254,-81.24372950982963,1735404815857.0
0.6413053515544367,219.8160580792176,1653.3103530271956,-58.28088323085049,0.0052837429560929836,-55.964809484248306,-5.252584125553067,-69.19444300374697,1735404815887.0
0.3052889576727398,391.1443864602396,1105.2001331755378,1698.0062215842531,0.05503511811853102,-9.767073902011912,16.600121632030763,-61.398521857302725,1735404815917.0
0.9663733260149053,405.1513536510656,776.3192777994371,-229.274741447267,0.038765731510313005,-26.182295267276302,-1.4291637149744876,-22.937589811738587,1735404815947.0
0.751618854608225,-135.15000879064803,1759.330582284088,-9.400672262731092,0.053913387879914634,1.9788630313363846,7.426869906617341,9.597862487669175,1735404815976.0
1.5609577725380934,-18.114997934603196,880.8993004768022,61.42032095192573,0.029996096920196474,-13.196183714609191,2.328116013275494,-52.035214518406924,1735404816007.0
1.6242625920522462,926.3342635311546,1291.6921613181719,920.2154244452836,0.03125055855083969,12.111877158908563,19.18590778544271,-18.468718406218446,1735404816037.0
1.0898645600197951,183.92888941645103,603.5977700101988,-1121.060408359204,0.0831664347294307,-13.571666850718461,22.272845712542033,-36.336089388829784,1735404816067.0
1.5168175463695968,53.0645811018654,1277.849074935837,-293.0964667827669,0.06357251283508716,-44.23728636109955,33.44816636376571,84.43157780175098,1735404816097.0
1.0677437933037035,1179.952511736998,1646.272962899091,295.1681601475055,0.05123806203113029,-26.967281372231387,35.76665800939856,31.963318991432075,1735404816127.0
1.301191108718882,-409.2965966839456,1784.3614243713878,-851.9684003560785,0.04194847584955503,-54.43911676590079,9.76008525073565,60.91329372530937,1735404816157.0
1.5277086251942562,516.0908462218447,821.1072357740446,-1412.8343150420774,0.05394172819381027,-76.71540424833849,3.1240213675516335,37.55102191823517,1735404816185.0
0.9446899994977319,-1308.8053429037118,1252.6195877398989,454.4351988394869,0.07506082213542281,-30.87285458912782,0.21992431088939668,52.572988183295195,1735404816217.0
1.7961716174450908,287.81413950910405,562.7452668037554,471.1266622070104,0.030914543364238788,-11.577011423243288,4.414745250461389,71.23622834927896,1735404816247.0
0.4616492325016731,-24.854913823516625,526.2572974123789,866.4246929511138,0.012607578479274986,-39.2660647800021,9.978240126641484,6.0704390539867354,1735404816277.0
1.0087840662746161,25.946557106311644,346.32161115835333,300.39978085320524,0.04194515737609571,36.44650377264769,7.026176776837007,44.86911280317585,1735404816307.0
0.2931089092718284,-40.715995291867756,1488.1966985342845,277.8021149363032,0.05057667505903203,-38.39453776375146,20.847246247230146,10.938024801642078,1735404816337.0
0.2523664678950652,162.25011504773778,1007.3154002415669,545.5318978153766,0.04131078295753764,-61.891890821698304,13.79747407090508,21.862601507800687,1735404816368.0
0.7744092296196919,-228.7481652232462,932.7290146354566,976.06252435333,0.04264064134234582,-33.95274408207367,41.249934667214085,65.35690937623484,1735404816397.0
1.0192888681243684,131.83399343548757,1396.9828555439685,1035.9308407078088,0.054611008661688366,-40.71733880430151,-0.8026404757890369,-53.76531485552416,1735404816427.0
1.0840049474843048,852.2488472103054,922.6323990868439,-665.3534477281698,0.05109157573284091,-44.82466117445804,14.889988465016103,84.47658938437527,1735404816457.0
0.7956064179575539,101.46161285661292,586.388435356602,468.6513397153217,0.07879266442448962,-26.818251930592936,19.600486357056123,28.570516737142007,1735404816486.0
0.4071847343607903,-43.773524817832765,406.660698572765,-15.416142231613321,0.040444492159188904,-18.896175099588795,-4.870596742199998,6.3322836313133415,1735404816516.0
1.0018644825571814,1079.2198823933159,722.7542055383494,1147.9616043364144,0.007553324878753924,-3.2054154133704813,8.331137596809231,21.623652241926255,1735404816546.0
1.0242248806873842,395.10263720339265,1011.0131563203762,129.3709230910223,0.009396000259190893,-42.63210701302105,-10.155578579561368,46.04618491378876,1735404816546.0
