Acc_Betrag,Acc_X,Acc_Y,Acc_Z,Ori_Betrag,Ori_X,Ori_Y,Ori_Z,Timestamp
1.3127895432066057,244.7258212236552,1087.444713489708,-545.4911994082443,0.039184211891237226,-59.217702883426426,-4.009177833245914,-14.211270750315993,1735404945104.0
0.5625172507134412,384.8100461634216,787.1772410145857,-1439.1666759332938,0.04482507214111782,-31.421178236845456,-17.288397252444895,-48.88761695629993,1735404945134.0
0.5133557879104456,-164.261246938238,209.19164928584053,99.60268879349425,0.0059106667782648295,-13.239389069711086,1.4865295076449012,-80.71819847432106,1735404945163.0
0.512901152011695,224.55192331889364,1523.6126844981154,507.3629837679738,0.04768511487262888,42.55085802816136,-0.5145839774503362,-27.54960345360956,1735404945193.0
2.231648196689182,516.2786260772189,1133.9560149745878,168.607364199988,0.03926806168488489,-30.872680084684735,2.7141129948313694,-72.88150399981106,1735404945224.0
1.6099075337449884,793.7220774047438,1306.5042318262567,452.6012017946685,0.033950874828882344,-16.63757390981415,0.41025797226490446,-4.5299042148253115,1735404945253.0
0.5052975796861348,521.420991061381,989.0014716866851,1171.472042302345,0.06546916177894253,-43.40944903117476,-2.678367640261017,-34.662160397170794,1735404945283.0
1.8725959990832473,288.72466630788256,121.0959005152921,-226.08597867303774,0.06496656423903036,-6.859582528495444,3.899802156767008,-81.88735272337908,1735404945312.0
0.4252301421942333,49.40639641806908,-296.47362823838125,269.3285505765284,0.05364102098831736,-0.6336878975480253,7.823517060428881,-88.19280142927144,1735404945344.0
1.1763392210362833,-504.28802210291394,1379.3009547581855,215.3488729364207,0.06607869408035164,-4.832978197370082,-3.2409753599091893,8.27161726735163,1735404945373.0
0.8590847551010127,440.03967616304203,1216.4131784545777,1654.4617250276958,0.04068917070447145,-32.419933562911936,1.1148493896980332,-35.1090978559747,1735404945403.0
0.5951634594471431,-153.30861121760137,1022.3240428165568,-386.3519835169054,0.04707665938744304,-47.632002993335455,-10.05142307615749,-51.69208365770901,1735404945433.0
0.04895213856569314,-192.1141276069543,2242.3342322724116,133.39883212556484,0.04489620738747916,20.527187543318764,-0.3472963772775324,-64.06311942329052,1735404945463.0
1.5133569164804819,-99.35152953806175,431.2110049322658,-1431.7877644754005,0.07509515695072429,-5.327226438482754,0.6982199169380892,-46.91132171994552,1735404945493.0
1.6263943501101472,1329.53656004243,770.1836941077044,69.83678002480232,0.05415321261192197,-6.885589042298996,15.03803616675614,25.71079418336035,1735404945525.0
0.49181699194300954,204.43236545755124,903.1741969763947,-90.95796337669724,0.03562720962824834,-36.6093827536984,-9.269732615887543,14.555994343655417,1735404945553.0
1.9360847915875894,-0.17691093362998345,104.11926595154819,-269.08414936731293,0.017366492836325312,-29.6024966996986,3.3326678109576333,70.58496861009797,1735404945583.0
0.4638509374489517,-560.2159728818292,1384.5661212828504,421.42408832382534,0.06243257646556162,10.193487404564156,-21.458629077362414,-16.540647617128016,1735404945613.0
0.7288824828980582,133.1626113172735,1332.8658341581086,-698.6322764182553,0.017494281428329497,12.208848627671879,-18.433468987296568,-77.03264200127228,1735404945644.0
0.6257895979459573,350.26617387183876,76.9328811366438,440.933671032738,0.07654506670216021,29.49376380679155,-18.71305927607578,73.52425256226496,1735404945673.0
0.08219487207203213,827.0627408394531,-124.71320208586005,161.94465353821545,0.030467304848253392,10.10786183734637,-20.01026105623564,4.677904202759564,1735404945703.0
-0.7461985651425728,-825.4897930009158,-102.70704072911835,18.679674211449708,0.017164365944534882,42.906312662420746,-19.217453886662966,-57.26282532110112,1735404945733.0
0.5372205563066392,-404.79859646483084,-732.5738509261196,-383.8156113692084,0.01752430787384748,-13.311839980535709,-24.15501480416671,-60.64107842928082,1735404945763.0
0.5922594256425417,516.5700444209025,688.6170319912502,209.72766428609754,0.02882551039835428,-21.930344387840005,-11.474903093299943,53.60599045732046,1735404945793.0
0.36484434889901657,329.813463530228,969.5589329043229,998.8948913883687,0.031630160228602315,-11.792985351942267,-3.797870259304232,44.043476465970286,1735404945822.0
-0.4260399058754188,578.1170142467889,-485.04366632433755,95.48635145431803,0.056074626154903086,-40.944481639740076,-5.791359258445338,-74.20629068216547,1735404945853.0
-0.4073245904940541,-1132.485184895285,520.6356084241866,293.8512317810926,0.05342417154794018,-15.850944392758532,-16.828794274843148,27.12739047739755,1735404945883.0
-0.22921291580441866,-312.3951203898827,885.9460410255278,-398.9409391443071,0.031807179607850164,-33.66713404041279,-9.557572208084869,-32.06642502221553,1735404945913.0
0.7915110001474107,317.1176461204821,-70.65663988270092,923.0327922272721,0.022094275328808498,13.370277127560813,7.739836288527328,1.7954788277584548,1735404945943.0
-0.4093665978427243,691.065856830399,239.64800698036214,565.3740803499112,0.03989956523652393,-1.3344709835195623,17.965615653613064,14.519667547801644,1735404945973.0
-0.7508514247784016,-392.0134180329843,-83.56629528468636,1263.8904037388886,0.06046602213570991,4.450634683185065,-21.88732420067967,25.012792198992663,1735404946003.0
0.4468406062768599,504.3610165752169,-512.0093574346884,-881.8199918674343,0.06068490279508095,-47.35693105554331,6.057605557663253,-74.61061107676105,1735404946033.0
0.3296433690373652,-231.73639908354443,561.3439356408312,171.28015206093957,0.048413668943624255,19.559691190205363,15.38367165573672,1.2954853471930008,1735404946063.0
0.40288299435969027,-105.81300346496141,296.5635255504579,-40.89754572599976,0.01886036328029915,22.949358761692093,-12.858927915122907,-30.608093866842346,1735404946094.0
0.7982309592948924,-362.4018402666612,831.2333179242706,-434.3833797664828,0.028386259362979234,51.19426940698692,-25.422590856838156,52.75184857667716,1735404946124.0
-0.1498054600591226,-680.0034630562291,291.1896448184969,-477.02310797807365,0.0292745411744708,30.087325484339335,-9.366265111272902,38.15600912660641,1735404946154.0
1.090118039581199,-1398.1996964347336,252.16977475290994,616.617342876854,0.04505832260980229,-19.796797872313523,-2.821658971491291,-39.85879817978533,1735404946183.0
0.4617735126996152,-1473.0227032398632,578.724558383276,-2265.765852453869,0.04486266617068201,8.179474881036327,0.5996350775563402,-55.043139693554956,1735404946213.0
0.21169747897493418,-527.5388164881244,1004.9711605030486,1385.7905190396148,0.02736703578149667,37.803326893134084,5.260090482854261,-53.94327221009051,1735404946274.0
1.0029187240789783,-1280.2716476478997,777.082747039203,120.55008823710659,0.06306981493977383,-23.317027310503377,-26.732180071427223,-3.357984371063921,1735404946274.0
1.3839664729937313,-1417.8456031431765,1281.6171916424928,-473.52218543514755,0.05383220279209091,-65.02823269359715,-0.7200921624927368,-53.652083010134426,1735404946303.0
0.5666332912717121,-1144.6857954078312,84.80838838889113,-730.6976344956165,0.028327336105388838,33.876398096839246,-9.746008667168622,-1.822055559102175,1735404946333.0
0.9502130250837627,-974.8851745386202,-334.4795811024936,-723.2654233986832,0.04710790831987854,33.91776902745238,-7.434896211145911,-69.51677007546951,1735404946363.0
0.23308588396474705,-334.1441171418942,-767.0695637585646,796.2410410415865,0.04668608038250443,10.94785868835097,4.891276730573483,37.35366217143106,1735404946393.0
0.5373724275602447,-1881.30352643027,91.85186120528408,-801.8938812608305,0.04240981401544713,5.199268317943435,-11.705159763666085,-48.06231918172406,1735404946423.0
0.6670062602595017,-1361.767482524396,-426.7629098889025,-522.8471962337464,-0.00033320121524596513,61.35230514635801,3.6546045309072834,-21.17352861217787,1735404946453.0
1.6510504185061894,-1671.7904583110637,-592.9495444455457,-567.8547909017163,0.04573391714085429,33.58145002979306,-11.857650729208139,-65.17652216878734,1735404946483.0
0.9431505221411473,-1205.8393811934973,622.8745573957194,319.7720944948734,0.02857658784112943,40.111609944694536,-1.6540484644738758,-47.944931551426336,1735404946513.0
0.7637431315513081,-1153.040891223114,-204.47822749700492,-20.61936013402334,0.036192243295057304,45.1502804990981,4.150719791919437,-5.923920295197606,1735404946543.0
1.3199324739201834,-811.8867055002034,352.78827603686585,-612.9784520059667,0.027147930598265754,-8.590911226373077,-10.913676214721175,-29.88764000042579,1735404946574.0
0.47545389676550354,-1253.4913698373327,332.28020289311655,1190.4000180863252,0.006077594949218824,20.653355522989457,-11.320923481215972,-3.2273474087926495,1735404946603.0
1.8799216954606277,-962.2711221291804,511.53514293215807,-320.3058075357611,0.031602801052202305,37.398694843443295,-14.550403590680308,-60.75484837658955,1735404946633.0
0.08650570918948608,-1690.3404747598597,-741.1797559302926,15.117735906220389,0.044283774115049974,46.753079401813274,0.14954861539042597,-41.82822143601131,1735404946663.0
1.2290599925579466,-1011.2435840481595,653.5017902808138,-1122.4560605297108,0.03456079467232255,-18.26005378067798,-1.4471525471565432,-0.3557732292664335,1735404946693.0
0.943309411678975,-1172.9703703643313,-856.8071260025297,-307.5584776202438,0.027651231483341882,17.00632624513119,-19.757065529111145,5.70647911607744,1735404946723.0
0.7757536393497468,-486.27200050361284,1054.736856033596,-773.737166952352,0.030180845028658608,66.7801870799266,-4.490275296580208,-1.5780268582426604,1735404946753.0
0.2411966417872694,-836.3303661519527,-285.06488328045117,-1190.298153048505,0.02949598726605536,-21.983133039354485,-41.087466365779534,4.025488021568563,1735404946783.0
0.8082492144836788,-2383.0604500814875,-4.6890702158778765,177.17148564124284,0.03372202221387791,-8.629059905034953,-15.393895118282549,24.398271703504268,1735404946813.0
0.6543330944495316,-1749.0518274651754,-224.44096321495016,11.359575240392047,0.05186696233455558,34.2927302539067,-19.240962870708543,94.02659359384887,1735404946843.0
0.49480615771501407,-326.94770733366636,653.6464686485779,-292.39802877818636,0.04226592507346857,42.19193622099632,-4.6303342402368095,9.558272266819138,1735404946873.0
1.4650060109406846,-1054.1756659861117,782.7686551302708,-1586.574661161767,0.061434504083013555,66.76547466174941,-38.316944079278926,-6.207181547122104,1735404946903.0
1.4145548870455023,253.45886239178867,-332.6619608418569,-174.17152615414403,0.059455166356070566,70.00481054115012,-28.77653193062109,77.38861824725429,1735404946933.0
0.5883775499532219,-478.69379542477435,691.716297507816,-317.88396548210096,0.03953079294349454,58.591345573084325,-19.687795894735686,-66.34027194630457,1735404946963.0
1.217107602102386,-1668.8710716108994,-442.67440048875164,-1245.5580619160419,0.05297130429973391,17.305456146922563,-7.8249531198941895,-30.450637411546303,1735404946992.0
0.3117409708247988,-1544.5226038870096,-550.6116169136225,-71.03636634862772,0.0287961440688112,17.70420785529261,-21.07617768360927,-45.14221481543859,1735404947024.0
0.7641375970040483,-505.96256146036285,564.1439527744682,-410.9833132225939,0.06264650094967264,51.70582572234601,-18.632500186372116,17.718703070767596,1735404947053.0
0.8235506221849206,-1777.3970088895949,642.991395532099,-507.7687926053187,0.0494347620537727,30.63145282286728,-1.009745327599056,-56.62805254131779,1735404947083.0
0.5704568947907316,-1382.5989340569522,673.2991986700507,-484.0465953615675,0.014053562465772076,12.050287959340695,-37.698875296079756,-21.882898943443507,1735404947115.0
1.3961946079304275,-324.5014266951441,36.22030050895697,1006.9087406268764,0.028696030073088973,6.808790721345591,-18.325130117827705,-36.08743967629713,1735404947144.0
1.0563690245114319,-816.5479936130158,-582.1992299079518,-346.02262847947907,0.027197759707365446,63.59865220051428,-3.641263246582188,-44.77236681577088,1735404947144.0
