Acc_Betrag,Acc_X,Acc_Y,Acc_Z,Ori_Betrag,Ori_X,Ori_Y,Ori_Z,Timestamp
0.7334799321019257,-96.96623164295033,-68.78669789452532,1659.3686185191268,-0.0018889837576696981,2.4332020570389252,15.479674243052562,20.25011580335043,1735404996705.0
0.1259831378666909,721.9824761445151,205.1703796285995,834.4364315177627,0.0024297288097562264,-8.45578343158603,-1.5356147257369912,-70.63475651800894,1735404996736.0
1.5686745276322942,-362.94504492546855,886.0039400994726,2579.1190267423135,0.02698603467457639,21.430682273456586,15.075461488757428,-1.6605832611258151,1735404996795.0
1.3197638880410452,477.80050597573984,150.17145423097529,1910.6482513187798,-0.020858648564888643,21.766851218533972,39.8977164162456,54.203803888634276,1735404996796.0
1.3134760074518133,60.35509681863064,-1056.2296213162851,700.9057705253679,0.02290156400728513,4.346560725800024,5.377576977087209,15.603971614127556,1735404996825.0
0.9629326017614471,-439.83942043582005,560.2654136695743,1533.5277655061054,-0.002251379334405161,20.413485447859582,20.290719801798115,-3.676928085989773,1735404996854.0
1.8385900130550352,-453.3576312266779,158.03767034080863,1885.1014596740642,-0.02408368499629504,-5.957954345497546,12.660110137779176,-39.018653647070934,1735404996885.0
0.6210448201037448,-593.6954942239679,228.67636821963973,1935.2108689677875,0.030919277131559602,21.505357646152856,13.609708194367283,25.070743623088003,1735404996915.0
0.6278795071903569,285.19585236954794,1319.7682445083913,-1135.6981892559147,0.005755682164725483,-14.623739912734338,6.087847486536933,39.313059350786894,1735404996945.0
0.9459774205083337,962.655580369988,318.1453577750177,641.9106013595447,0.004228800666754502,-9.159939722555205,9.916504649184741,-12.93650995133959,1735404996975.0
1.1085401419234242,-50.975937774281505,981.491538945225,1244.0638937462936,0.009227977558198281,31.00784387115142,15.654523456874735,16.6698345602342,1735404997005.0
0.9832418941232859,-192.99396514461867,-122.92049603786901,1715.4989320095335,0.02672111993618711,-47.227310148402,13.638199397633619,90.24535725257427,1735404997035.0
1.1862024798367783,-578.9417135004738,994.1889905008065,327.80185848307565,0.02454244568553201,-9.512386579602348,20.72140752146754,-7.958002199996284,1735404997065.0
-0.16052224974687745,-439.9187614276556,4.014161456592149,2442.7961219639565,0.018555426982410056,-22.47988713659741,9.010659669218542,7.147154289696426,1735404997094.0
1.1530341916018603,-601.0792629202431,-76.65709410478465,1271.5016973023548,0.019149625221076494,38.634709631736484,5.3408150778579415,37.493860620019106,1735404997124.0
0.7187033501905122,-951.0075776422271,-274.4397580588061,239.64430076598634,0.01785751797218463,-15.15247573434769,-1.5231253545868597,18.79855869213574,1735404997155.0
-0.3522249781347355,369.88109901271025,83.49364213777199,369.5434406428838,0.05269614757381256,43.87332760428595,26.786470724196793,103.79004521206096,1735404997185.0
-0.4182045033250954,-143.23913647434142,-608.7803055603189,710.7863885779551,0.07612214445207835,-2.31492935178548,1.1618981444958152,59.86091427375803,1735404997214.0
0.1865996198283655,91.09459301364137,461.29792964035187,123.78608746630645,0.04407928977149388,-50.487413919016404,14.584217194775569,109.23555324840501,1735404997245.0
-0.40812356971965147,-90.44252666281255,-77.35150973475078,497.88853390750575,0.04993665985789236,-59.47875347667021,2.3429194795234003,27.68285622751849,1735404997275.0
-0.23014538471328536,-813.7739965279928,-507.45279765176195,-448.1676553408451,0.06355829843173272,31.092391162358958,-8.873400098661321,31.72972020690214,1735404997305.0
-0.12023145802310417,43.066652439200986,845.354601447176,-11.864652216104155,0.048444761796333065,-4.262892125040775,23.333635960816395,40.59095237847734,1735404997334.0
0.5822046168981384,480.5545020083139,-392.4053061430509,-1890.5731175761882,0.07780061113438105,-77.61370175332615,4.621688758721259,28.430246873531708,1735404997364.0
1.4539497567200603,657.1961246923108,-947.5356089756443,-2676.898037556669,0.06498839442669567,-12.097662023384668,0.191821825331278,-58.94200436308455,1735404997394.0
0.803552563435997,304.88050788318543,-40.657191782252795,-1049.2805103404503,0.04983480554332187,-45.968313161689615,32.687983135530054,-33.13756205710805,1735404997424.0
-0.03598413564683388,542.1505433549747,-84.35033905601802,-546.9752932088295,0.051823071030802144,22.137935163604645,11.111913648149923,-21.894546608403488,1735404997455.0
0.3277510065758067,219.17187031843378,587.7126061555937,-820.1921585363267,0.026948791394462483,-46.30230184584693,-2.9511097775987345,-33.06658497825108,1735404997485.0
-0.7163183274673043,-467.95720368770486,-43.6076197928498,-1768.052774909983,0.029008020334792523,-47.93936119227706,-18.770872331011713,18.703695942051446,1735404997515.0
0.11907946339326961,296.71101299517267,-162.76793639361236,1111.5977374168888,0.08473894659281084,44.41190060377933,-17.469887219068934,-20.10830910932552,1735404997545.0
-0.22364398720545187,-691.120635190887,280.580912920537,860.8997159282827,0.028281222216816494,13.595752849550063,4.098496867382914,-37.73422651439064,1735404997574.0
1.3950461326095809,-618.9726392191895,1201.1696050845026,1362.7322363341643,0.04230639365321722,20.57853499840413,-1.1130757973195067,-66.20111646934814,1735404997604.0
-0.028069793365886664,709.6736878909473,587.5888649015307,1185.6880834552396,0.04045209046229189,-24.995227463753196,23.223613822123014,62.31687391501018,1735404997635.0
1.608186045192619,-1194.8139853745927,-595.3249236730671,1326.0881436696786,0.049044793873953836,10.295137680559435,9.520066341562597,4.00797725640145,1735404997666.0
1.1164042703182335,613.898923206211,103.34730771653537,2801.3650520815804,0.03184403257667222,-36.05953634756219,7.743779406449745,22.550359554052736,1735404997696.0
1.717090127254307,430.98923547374227,274.38835826885315,294.0192463762007,0.03740246664593176,-88.8732704747797,3.3965314406265685,73.23387559054622,1735404997724.0
1.2737261355641634,-595.675840239132,611.7529849683804,922.6042098536738,0.05034442407089957,-36.67223234306776,-0.24056566488678666,-10.929026615486357,1735404997756.0
0.6219813231909284,-349.649307131138,-629.2271580273061,864.824328796182,0.03287048598064652,-38.03910315674542,13.491887078988924,16.811124615359002,1735404997785.0
1.513636992616005,-774.43540641117,-243.13509801810184,99.0602066581007,0.013433879324204458,-12.654853251841358,16.517610699633803,43.60782761330739,1735404997815.0
0.697147058675617,-212.95581182221602,-876.334499056802,3722.161337094195,0.00696695969463499,-32.879141954929835,3.556409061068196,28.46041300509433,1735404997843.0
1.2618763622017894,-462.4008341801649,-390.52566102757896,873.2797004005358,0.017439003865618925,-24.999318489645837,29.443464472207403,68.12399548750483,1735404997876.0
1.501497805279767,-775.2674514659313,-279.8229958948098,2157.7027102998422,0.007622663505130529,34.768060855922364,8.976462325526198,4.890130181736714,1735404997906.0
0.7494336360184659,-286.9089598599234,415.3683423550162,530.0400523510567,0.024155612084027122,-29.93322839827299,12.40085662549787,62.835472812987334,1735404997935.0
1.2032406198914494,-368.25945135113864,-819.0863525572611,767.9121858688158,0.013396644912850754,-25.643473586005882,11.585378523506137,5.547959585302406,1735404997965.0
0.17500323008881025,-740.0580557715333,-171.46152689963432,736.8270529954042,0.0444239955982125,-25.907495952997827,-4.797561668140574,11.399365717024104,1735404997996.0
2.0318670211414522,-619.2553836781503,4.284853736242333,687.2270834167238,0.04476768144672222,-24.06464771881574,19.096674642123624,5.747580943201177,1735404998025.0
1.0259173370191337,-350.98183605179275,731.3794042034864,1983.5368278458714,0.040590696858144384,-35.87564099472371,8.680658486987891,47.583604890382745,1735404998053.0
0.6747739170339667,-744.0602910541456,-466.0531238428344,619.6420440915307,0.034660908441139865,-74.66329370637408,8.702602792869925,-27.20694238670601,1735404998085.0
0.7754969614322369,-148.27295944840068,144.27780308160416,533.0387038902937,0.010804331659778975,-32.53835604590843,13.86743280659168,50.717979830693906,1735404998116.0
1.1655601493194798,-188.69692281313013,-275.750238047341,639.4505598648083,0.025621348254861148,-58.48100717940643,3.8223859061823315,-2.802146684807255,1735404998145.0
0.9569070390391446,1076.867713028244,-617.1418073266642,1213.418947392251,0.006471258833852755,36.020615305791594,4.829246116880525,9.70741005181511,1735404998174.0
0.8175147726850158,-320.72855921346434,330.223056118976,1065.4363959866178,0.04805047289820843,21.25489021439439,2.1706876651647997,78.86956692077459,1735404998205.0
1.1941627117298927,574.2951125887128,813.1158034609504,1849.7238888742022,0.02145307771484754,45.045999818899915,-8.083921141912361,54.201833768097416,1735404998235.0
0.8961521562783904,-80.69469946973933,225.10683323963465,351.8210497022145,0.006622276032251181,-21.10044290451685,6.990809715271312,8.578917617985942,1735404998265.0
1.0835266804571468,365.7778327901872,-141.24979991229378,1964.3051701302793,0.018678206120217887,25.265217467080497,12.112152342934891,59.970634579448145,1735404998325.0
1.6967196836258136,-109.47904019885033,193.49165812305824,740.7647450701825,0.016856074224040132,13.375510392142628,23.31440718927704,77.0758596170197,1735404998326.0
0.09765243917300559,-553.8703362094207,-631.2973487559574,1294.842209220746,0.016712895080477345,-3.376043255944677,26.289336992430925,32.67667815815899,1735404998354.0
1.3522919516986054,-998.6846468308107,329.23735046696834,1357.7794566716493,0.01915515120563083,-28.533098075673486,4.0641981279255175,-18.201833854424933,1735404998384.0
0.09687535633880162,-963.8035036890351,506.3656380342809,-483.84076421278473,0.018137926457395773,21.326275401928527,7.961838118986645,40.16808374655457,1735404998414.0
0.8269483398181668,-687.5154753429903,363.32930961835524,886.4004025628535,0.026409761314050966,10.349638366874071,10.22964498834153,71.37602575984701,1735404998444.0
1.3192044032140322,-172.8340485182104,489.6037424486147,1218.9443657883098,0.06095812021906449,17.419875082613146,7.47855926330711,46.60838937937685,1735404998475.0
1.409339703905597,39.73096801690269,35.90079505419806,1999.8195372736245,0.02023615889016941,10.900978919089058,25.793581188940777,7.5473654566854655,1735404998505.0
0.6872703643669203,784.6009743649622,521.3211738789921,-121.38254409519368,0.04610868962575533,43.91518917462098,-1.2283862744443006,-29.169818020633528,1735404998535.0
1.3809857843749351,-653.1910068207208,-92.83055155054791,1019.7098295785876,0.03084637400505334,-36.34715517612177,17.350673202335443,-4.700613613097719,1735404998563.0
1.0562270569871497,-321.8878503522964,675.2195775071841,1467.7417252103214,0.002932029029999162,38.10384930906522,16.321222093869316,10.088585997262621,1735404998596.0
0.9792164354700325,9.677715922408652,-706.7214875660198,963.9581784831797,0.028450431800626275,-22.471998725723186,22.77711959818881,57.46955047177696,1735404998625.0
1.2806488278475323,-173.76908021977607,-339.91397213191345,1136.752097396579,0.04294185226866197,-77.56789218203646,10.869455971409566,45.442021961517064,1735404998654.0
0.6538971454622181,-45.075775821439805,771.4071014711553,405.22126878688414,0.02885510303290253,25.263199037882753,16.90015824740193,11.330672056818262,1735404998684.0
1.3131235504962215,152.20616917003542,-26.207208056945532,532.7803114609809,0.03958924152885145,-22.47179738162803,5.247614292972656,34.76705361915717,1735404998715.0
2.356033305740307,-2.627886076772654,-76.35710327963655,1825.9527840230212,0.025327382203832162,-50.543683297734475,-2.8898557068876247,9.296483444332992,1735404998745.0
0.7266664219751152,-70.13281378476839,542.7750405578324,720.2212036667164,0.05925322184382239,18.725689491623854,-6.077829316451403,92.4485332171217,1735404998745.0
