Acc_Betrag,Acc_X,Acc_Y,Acc_Z,Ori_Betrag,Ori_X,Ori_Y,Ori_Z,Timestamp
0.45073796334007676,-28.425153520555227,-692.4372216777124,-698.9065998816482,0.058970753172345236,-60.48652732044583,25.36932787492315,-79.91045549062639,1735410056677.0
0.365079393085355,656.3661071090054,-949.6290587334917,616.7021297681958,0.004967183891702032,39.010702407280235,9.597033699355643,-27.774290983261487,1735410056735.0
1.132372800151702,-190.33097728170742,-586.0843589236833,-249.3189642772753,0.006760083750897303,-11.3183213415087,2.1977572191918586,-59.531967646455705,1735410056737.0
0.6000050313592462,1772.7236008810746,-2006.6831711638881,674.5421607165803,0.032500508135757916,1.8616556165336986,13.447034448655629,-41.16238842712737,1735410056766.0
0.9906550692469973,-91.45255523142123,-871.7009505985795,697.1565826663364,0.02593288068697494,10.167868597756552,18.73315706591147,-12.443072758140998,1735410056796.0
-0.19817679183654602,884.4610909605251,-859.5472419701695,-386.9751630369507,-0.007792025668810241,4.130434893191902,6.89746706945316,-62.379337895815404,1735410056826.0
2.0755684818629048,964.7532965224304,-802.8504936526291,35.90683832866148,0.023651795313749616,17.511133716985874,19.52950520549748,18.67895647148416,1735410056856.0
0.49456736504232934,1431.3107063137518,-1006.1922908321096,687.6471066123992,0.016212964719326504,32.40647343036086,5.243711139301311,-25.972222158983644,1735410056886.0
1.179591240579203,1023.6458622148677,-654.9986897354293,-262.9510178149506,0.03898574200454283,32.27656498952532,25.300399060214332,-40.29679479277904,1735410056916.0
0.5730766161332972,597.3982364496871,-382.720183787164,731.6862805767029,0.033760115670404246,36.878073688194824,8.983214772035799,-77.21191105951917,1735410056947.0
0.6928602891833842,1384.1305555126442,-1441.5345286395814,-290.3042828585742,0.03376782679842945,-10.548062385547265,10.724735555754085,-7.100109640762959,1735410056976.0
0.9468933767602372,127.54435850973374,-1602.095121952203,774.22357999694,0.05101395688651271,-2.7701140200530117,-5.621264452263517,-30.284129739514363,1735410057036.0
1.0902614240696955,283.73334575930824,-529.6333253376694,-398.00499636987195,0.04479986436049123,45.814460806137156,4.508599705276282,-73.92212555423129,1735410057037.0
1.1271132820864533,448.4247665726125,-1128.9486077579531,591.8583122657444,0.049648043980533456,-13.105997767115014,11.191540230903007,-61.168824776520594,1735410057067.0
0.7791173820930203,212.81588925546305,-221.01044971450148,669.2201133117192,0.05803484838481384,54.37484985509192,15.335926258104582,-83.19749729511976,1735410057097.0
2.1426617772074152,1906.8006970824479,445.0704434978421,272.3030994198764,0.03891267541615506,-6.200253909272997,16.07882299892656,-44.55056523040866,1735410057127.0
1.0581263885510799,1477.3630388335912,-380.7209800975518,856.6783624182257,0.07866376495005767,-6.933375058125691,-2.214121165702757,-49.97543784522859,1735410057157.0
1.3518441266561343,992.3720210142296,677.5284054537382,555.1550113667765,0.06725552904371973,-28.00869895163089,3.8247991924845017,81.4754902674199,1735410057186.0
0.8122919270819082,-90.29164201764175,267.7982654637752,-45.68714513813896,0.041689368991178706,118.3726665946405,12.992349524839687,40.056381876913704,1735410057217.0
-0.6270449137544685,-732.7199936478545,-114.04044737410447,46.38501714588841,0.027039103484756872,56.318645001634536,-1.1263773694611734,43.392031201863965,1735410057246.0
-0.920552582906789,158.5964370038011,-426.6318991361432,463.5653402678314,0.03404459216001785,27.59105293194122,-31.4896119055596,22.829427138868624,1735410057276.0
-0.04711648189017021,197.009430378439,78.42020848874601,121.73926927991374,0.06390541923165627,-52.42424856434399,-19.122096746228106,11.327927899900253,1735410057337.0
-0.9326766247474884,255.5273846077347,-186.26340815016954,666.8581195307147,0.053115740645809977,-13.46742490070422,10.883351058481871,56.75189784750653,1735410057337.0
0.6863789746018468,459.9607745963219,323.2119453724482,-1465.6242021054948,0.029100323114403706,-24.799983305000538,10.06098093334239,5.059801376198552,1735410057366.0
0.6579340661552467,234.0718882568485,0.8120382886210713,905.8181560346349,0.04263542150701627,-91.5029962906226,-18.49188659904522,-12.050478487253958,1735410057396.0
1.821790170434908,91.2807966769808,1090.1624905727417,-2368.7493963121815,0.08517108826020464,-50.47485932122273,2.0811836011195677,92.32069061887914,1735410057426.0
2.299214677479153,1032.1273685143105,1348.913702287865,-2055.699088374595,0.06552820053556753,-69.67174829701501,-5.819003851808423,20.023669927992415,1735410057456.0
1.7381494142548082,440.3400380071265,1560.0874790846544,-586.8801760475951,0.03303066487563204,-48.82927497709938,-7.31730310174955,-27.698280881829305,1735410057486.0
0.4192944031057223,-684.0473400675472,580.0049366875536,-527.2878214594431,0.06009388648123406,-70.04852039586122,-20.151181641835137,-22.722537213148662,1735410057516.0
0.8338905528813998,-530.8819136871406,238.784710260574,-380.84051257280527,-0.0021361116226079786,22.955147259936613,-12.270651197603208,10.44797446780805,1735410057546.0
1.0889060945917977,-335.42604143961165,597.7617515093276,-366.0152193399259,0.039435483437737714,35.87838213080116,7.316875761133931,9.370613175298452,1735410057608.0
0.8953616364427228,813.0581002728766,392.63908502899403,576.9979053320853,0.039533906473596864,37.476885386492484,6.859034310061153,-64.58131270401996,1735410057608.0
0.95884754544323,-126.63072654910522,331.5493373760273,-240.58791819612077,0.018573162321014997,-31.805767894279754,5.196299032339898,-7.110627572158187,1735410057637.0
-0.12052708903687676,586.0120424239038,-262.85583029920656,173.5836366063118,0.04457870312835885,-48.40592354745894,-9.33563282270878,11.832370904517866,1735410057667.0
-0.2871000451455452,349.5753515259508,362.3569215531471,-341.8484515108804,0.07961452563411288,-27.317479386935855,-17.493454727502616,-41.55218296073777,1735410057697.0
0.8827795450371385,-294.08303128989985,247.44395864482684,64.90642021110386,0.0480365111411696,54.68412414264784,-12.264073631497968,-42.67019873690482,1735410057727.0
0.11775774440295345,521.1733213020611,984.5929799834722,680.1476664439817,0.026463830317557502,-8.577069132068123,-18.42551351272036,-42.56291406307328,1735410057756.0
0.7864219525058832,629.5332027463958,-63.76718591978603,920.0831468977149,0.03161121611419497,40.76791695242556,6.26249634319082,-14.017505769617882,1735410057786.0
0.5015356454182494,-154.01297760374695,-7.460884118380562,-371.4731992486802,0.01359087321875105,-34.122912362202534,12.042054309873503,11.160541455133792,1735410057816.0
-0.08267171604481605,-189.86858502706767,-620.4198479444337,2920.893169960328,-0.0010833206988000825,54.109304919361406,-8.876308853332867,21.00822023266381,1735410057847.0
1.410951503175823,7.63975731576727,-218.8676761936251,1017.8683466695998,0.03922792591039581,-22.272732479525317,-12.15084674669572,-80.3824278392286,1735410057877.0
0.530320755423676,132.6315249636187,-481.36182461793595,875.1046365440349,0.034705108941640084,10.960574002430306,-15.47148416130798,-31.267503769073727,1735410057906.0
0.8402498435723633,-677.5083298473912,-390.5999397599162,1001.9331927736745,0.06463394550597552,-8.150293953360325,-8.004037155506381,-43.22625653985857,1735410057936.0
1.035662989118485,927.4710895220122,-1001.2803046320845,1485.4435155349663,0.06262372432777798,-1.5354227379949528,6.884414987958379,-65.12571357430272,1735410057966.0
1.5283216999720446,798.9446603008302,-536.8604371582552,632.9777759846525,0.07160804654221418,-10.937172175416908,3.8756624048461092,-65.7264198843198,1735410057996.0
0.5829406508205441,439.4747288763572,-364.30614899521726,1222.8289830760182,0.047220236305036016,12.206516355281572,6.563669124963943,83.74340528629475,1735410058026.0
1.3109202727198817,-622.5278731625054,-393.29420730671194,207.31524621356516,0.03255324803372391,19.761484788936954,1.8855721001481376,67.31579596575922,1735410058056.0
1.2203277141071176,84.80511097147566,-263.70557088422703,1055.1626670073958,0.052870253872479595,4.877785919462997,-8.48578297647183,77.10940972898197,1735410058086.0
1.1936475110686948,-73.86934281574072,-1388.9353936475743,521.239087744405,0.06108984307867657,17.30385813099243,13.408929825457834,91.96295606083632,1735410058116.0
1.2330636260128427,-515.7038625894329,-363.438978746658,92.32973744095193,0.03011703213276095,-0.9698848231616091,-1.1675424227542532,88.71364287061007,1735410058146.0
1.7181617801075033,278.7768500384456,-795.1085745091051,1237.4825586157324,0.060916723503293746,70.38812628896194,-0.8733516283745328,38.05207106037841,1735410058176.0
1.9824163787203872,-198.81121861197192,298.4871481727887,479.1876376099202,0.033998158327608025,22.376887502097816,-7.393666796948531,36.356207814716726,1735410058235.0
-0.051591876353516586,17.902681787400304,-223.97325985622322,-524.0225574759468,0.06783037454213657,2.9405488732771077,-6.802376500917129,65.51206559009869,1735410058237.0
0.5710752501114977,283.13051307809593,-424.55749559560735,252.70825424608654,0.03544588547452926,38.60731345828092,7.029041072233765,16.21587365808476,1735410058266.0
0.5328306687559985,-382.065210623823,-1099.4768598000903,767.709026197924,0.026178743276522937,-24.49945283363846,17.378227563300005,20.290600563625986,1735410058296.0
1.3016822243283213,278.50653126841763,-438.41203227868493,296.3946146582816,0.03672063628702237,-2.7423709104575646,-8.155137344212438,42.636988657331116,1735410058326.0
1.9443767698918228,584.2774409508206,116.50014610207148,346.93926609916775,0.02519705344510555,-11.365041173759556,-0.3503700060418633,64.84508537979738,1735410058387.0
1.4466381992937336,-154.20460839634325,-852.5423052604315,-251.61713560509838,0.03970504521463576,62.549710792665756,9.38663667252765,-15.61930242662688,1735410058387.0
1.879514122428135,300.05421610397616,-79.6981873261918,216.639936934851,0.03270330318425886,-22.095882757756012,-16.052802101563636,-23.312044374409222,1735410058416.0
0.6613848491735073,160.8197696239355,-389.65011269203404,573.36846719855,0.025219386700528364,-6.247260743202199,11.646885446852739,3.663560994713862,1735410058446.0
1.8448261271942124,-447.9988736955907,-367.4869264571749,1299.4989958143674,0.005981945641510757,-19.745351562652,-2.416349418949094,46.94875674241415,1735410058476.0
0.41088224338093104,-413.78549909243316,-914.2940844585488,2346.8796949215457,0.06154374913884879,28.32821328407812,-20.101035685232716,6.768383177174741,1735410058535.0
1.721589889388805,392.9644928322731,-706.8390583373471,1516.619775709952,0.027331926601330114,-1.6931455320244413,-4.9823937050455225,38.85659237016736,1735410058537.0
0.9438337401420844,143.6566858148618,-925.2763748538126,705.586165702691,0.04206095348386942,64.12133804758142,-1.780340364308508,5.385683097640401,1735410058566.0
0.6682499478250365,-572.0109785361958,-31.125796069985512,840.6064079721923,0.04068265875038042,-1.1956867582369028,-6.1954139196120845,-86.45241308276414,1735410058596.0
0.9368760944597213,-561.9202561518954,567.8485884894301,544.7157562431555,-0.015769124371825424,39.97092192445266,-9.897952045506756,-18.521117525428032,1735410058626.0
1.3921956872362553,-489.83440974348275,213.4173028192683,2385.4813750757567,0.013240052571261238,20.40044791401847,9.129000649793499,11.813448880170265,1735410058656.0
0.3945451282813369,10.725295933436612,497.2189800807578,1639.4914219414532,0.018196678996365765,-41.73138020979025,-1.9664027578105436,7.13132738737457,1735410058686.0
0.04147091906108302,-452.22613328722565,289.7229385067997,1114.3088865369718,0.03519842529250607,-73.63995298629557,-6.351812343772044,57.133422323140216,1735410058717.0
0.9686327486504231,-375.6824859966605,-958.0130689856851,116.85001538612869,0.03150283095165537,-6.794237026840345,3.684096597144444,72.01038751744326,1735410058717.0
