Acc_Betrag,Acc_X,Acc_Y,Acc_Z,Ori_Betrag,Ori_X,Ori_Y,Ori_Z,Timestamp
0.845274076771068,1063.92483485423,908.7645684683895,-2943.605507328973,0.058611446099342705,-54.92010614555473,3.88187939078,67.94496011208831,1735409568806.0
1.0414723052065273,424.82490430226943,318.6164705609933,-1539.330841185967,0.07675572345887065,-27.644017316272326,7.922637769850473,35.678064951455,1735409568836.0
1.6381931625015391,-516.0781504803662,418.2555534921663,-800.3076164762822,0.06212273632392472,-32.74075200223809,2.3097221696126584,31.21766220346795,1735409568896.0
0.7233398927529984,622.3190109265497,-489.1763705379377,-314.68544960338625,0.0872622399946897,-41.130450904432536,-6.419349192266296,42.44241417845427,1735409568896.0
0.9524771378502364,-248.32720747855757,409.68646910111005,-1104.8440588364538,0.06517221556336555,-6.665644256469015,19.92939750603782,65.793802439839,1735409568925.0
1.2981586429626097,883.2593606264495,1505.7531247875945,-336.0373650557367,0.05923745996643445,-10.115496810943192,14.396641776389712,63.05362449725524,1735409568955.0
1.2001789246023777,204.46508461709368,607.3109212835166,-547.4538070538738,0.074901719971751,-21.337207635446763,-12.899580322597956,21.153902365874025,1735409568985.0
1.5982475914522518,-557.1108209438657,1201.3963721818836,-731.258548016405,0.060704269548936624,-47.852596526610064,-4.314732087651359,-65.43716555003721,1735409569015.0
0.6565641561411499,-357.75708479728905,328.05733682770756,-1781.9621560507276,0.07709101959298886,-23.59599995946472,3.7739768263386404,-24.799958475264635,1735409569045.0
1.413827820280611,-198.65696088115448,-226.03036160362842,-917.1017244990614,0.04812250187578968,20.03428740921015,1.2537198285839144,-19.74031035178718,1735409569075.0
0.4169894714746656,25.188911999387905,83.92881290946718,686.7424345120571,0.051837916375385304,-62.448677026642756,-10.635858792063521,-64.35607340610673,1735409569105.0
1.2297633519735967,-126.6053927588575,173.93265194848868,-1230.4172798522018,0.045495455587994386,-88.03893168536848,0.9877470552161567,-23.071543509854234,1735409569135.0
1.5229345263518224,-628.8890068278025,995.5497406779582,-1640.1829807015822,0.04838379354242561,-56.93642866689726,-7.80936354307514,-34.56244996017607,1735409569165.0
0.9352218376202954,-53.24294817237332,-151.29983149977397,-892.8315496991245,0.07646923364818195,-61.58626304273044,-4.572400728427578,-11.839105565633108,1735409569194.0
1.2412520058671836,-325.4506985181891,32.0961602944065,-1147.2680501786733,0.058647365385730905,-64.81254188298696,-1.8174511475106718,-43.720775956312835,1735409569225.0
1.0857820064752242,128.38320881427757,444.32347251045155,-491.61572648751036,0.09431002153798856,-57.023413923249095,6.246769845481003,-21.493455710807822,1735409569255.0
0.17372063602342436,76.78200265152955,563.9524315686682,-144.74717668772382,0.03740298812875259,-67.99393851030499,10.978690658471901,-59.28798587037808,1735409569285.0
1.9230853200695466,-31.230536878308797,422.88957010350794,-312.16201942426324,0.03899201761108958,-38.790826620242086,-18.744221336842788,-26.94183937073408,1735409569315.0
-0.18483819587606767,59.7810438819204,-703.5334856879437,-230.8206702482758,0.05380780995391529,-9.661196053866362,13.623100940224992,-23.29158216135091,1735409569345.0
0.10649337664425178,64.94534027498743,-572.7291192232337,184.27980391134747,0.04420976523274944,-62.29872218073179,5.032401630116776,20.602522111347543,1735409569375.0
-0.4606318327622721,-56.084734714215635,-2.6441351312741928,-78.38969625010236,0.04204283904240354,-88.5226050689931,-0.5708441921488703,6.852494559774524,1735409569405.0
-0.38115101288849407,-78.64956200435552,-119.83875544310682,1335.6525005989438,0.06098722353731946,-57.35301328382381,3.735162459887271,-107.01944577808953,1735409569436.0
0.6193405291682583,979.4433120216069,449.8327240960116,-1018.4906783750824,0.07093002668471132,-17.348589122179202,7.123147605249019,7.532208540566547,1735409569466.0
-0.1124489007255638,260.10743299298053,728.4797331751292,713.7282712300266,0.04472826752765228,-55.89962381082346,7.622908389181396,-23.818854895905552,1735409569496.0
-0.32292095719666253,-834.8498183627274,268.22742937332885,-293.4739893144778,0.005338399459542807,-44.88317442563977,17.547638642259365,-24.501930272415642,1735409569526.0
-0.2431288062120428,-662.4693601941085,93.43522407007944,1011.4379306412641,0.022502393893291967,14.554082636821843,10.249028294240333,-7.741770453905676,1735409569555.0
-0.257369522858913,-539.3992788130495,345.6208021141172,-280.53608971953963,0.009825411516180695,-20.49646528910899,10.036983936055336,-55.02355031049125,1735409569585.0
0.8824651844960842,544.8401270425048,447.3603135896305,520.6861322804547,0.005930375423380391,-39.32362723657718,0.35971372084164344,48.24614552319511,1735409569615.0
0.19325058428705338,-172.34134383434895,-366.1755526298369,443.9181122579482,0.010542956783559883,-19.86119709176136,5.632885036873807,67.60890404822624,1735409569645.0
0.4361488934171378,-281.5975741464149,219.36925058746942,1602.3809246756641,0.006546428677355647,-43.19030700697931,9.311323861151344,1.6842121683907765,1735409569675.0
0.9002749637664706,-210.52912181281613,242.70769203840604,-42.18705370464861,0.028114082789687973,10.996716351737103,-13.541616427426318,-42.762448705811735,1735409569704.0
0.3596317148142752,-480.9169898054596,234.4203161069641,282.9161708867793,0.032926813780857225,-52.67529052089594,17.085394446908182,-46.89807907359487,1735409569735.0
0.36305389286405704,115.7154541231713,1095.730374009332,14.496270813312663,0.061801621906757656,89.42489061749296,4.714268926524379,-53.686312291784915,1735409569766.0
0.3738069734690882,-5.826575790973465,562.095691649464,84.52567564030815,0.024968092829989096,72.23035377456367,-29.890068722615865,34.35950485781781,1735409569797.0
1.1049240610872328,-162.19779603699135,-536.3522492860196,765.246093549955,-0.002467636582957875,-35.78346116794399,-22.05523263219261,-18.84418771809945,1735409569826.0
0.9230625041044965,273.18128081826353,947.4757976717611,-298.04612196486886,0.026148449527818488,-36.0041947225962,-23.84049973306221,-48.98647871075836,1735409569856.0
0.19101324137298253,349.60288668663486,-179.46007297849542,-404.46547514230883,0.02983951927996838,-6.517868091866669,-15.073001240259874,116.2171744604764,1735409569886.0
0.15356196557959717,67.77186708805448,388.00759189863214,-323.2660308218906,0.04808850214824197,15.654587642353796,-7.730780533843562,35.3460161538852,1735409569914.0
0.5718424465398269,206.76622760523844,904.7190527113295,-109.1615555852427,0.017013441203422342,19.064346964301716,-16.108546900964377,-46.411355123032436,1735409569944.0
1.9426363941082654,-126.99049191298467,26.284687709949594,187.18708328512244,0.03899261443053467,-39.51364314377754,-7.40746974965313,-60.415703892649496,1735409569974.0
0.11568981801342682,-656.8066565826764,1152.3146549549986,-62.46659070151901,0.036326637997620814,-1.1167191113038992,-16.160839937131065,-18.761836439516728,1735409570006.0
1.2173850490642293,203.34923956141893,1086.125694094053,-155.11165597222168,0.00764420997031358,-7.156044109183504,-7.782460303593485,-19.679674755372233,1735409570036.0
0.21255999212510734,459.9400198351043,895.35273817812,290.68676797144394,0.07895019151204326,30.859334935355456,-5.749604518742475,-57.124821439954715,1735409570066.0
-0.06392901494334247,757.866461132018,742.1672007309537,1253.940022037571,0.06034102584991409,-81.96280898700965,-15.136141770461307,20.510961200130655,1735409570094.0
0.9310119975536779,913.2134154251928,217.15495464291917,346.755176024609,0.018014445966100377,-47.52435349764782,-6.82761134526701,34.51004039280009,1735409570126.0
-0.510171562428505,43.851375889605,-423.32300660432776,244.83714887370868,0.0354700780994783,-47.59418833525137,-14.139191382637089,-16.32122620715655,1735409570155.0
0.2980003788305806,18.06271835186159,691.9899145573588,-747.5008491148324,0.0634659355003153,9.769547989072326,-3.8959561159206713,-16.732498157694828,1735409570185.0
-1.1063913310154745,-19.257390539888235,-1250.0456099067164,-123.78417447886457,0.039579152303416014,20.248488025937775,0.37286613244889466,5.175345120574427,1735409570215.0
-0.00819172740796148,561.6832994921106,298.9313220238208,1159.4268226085048,0.047416462198234796,-98.33645078641766,3.037526876261855,34.043931144621894,1735409570245.0
-0.05965476253083646,60.7907267530249,-881.1663025861852,879.0683184811157,0.021124000644115654,-72.9311635808327,-3.5180049558782613,0.739049069631978,1735409570275.0
0.5689916592985479,142.00386409659262,143.28285708407805,-82.54909605987393,0.06406817915682514,-20.058089954899092,23.87750407707189,-42.53807653637079,1735409570305.0
0.37285008739988146,-283.05419491502016,-961.3723183247872,301.56514989415143,0.042407245360206035,45.00949113106246,29.516360768490053,-21.600405058912514,1735409570334.0
1.5713496782843772,841.9317693913816,-1621.2372074999103,340.9818378137255,0.04963857989348097,25.32175703605541,9.876459206106459,-55.38776818811171,1735409570364.0
0.6407431249372787,492.81527787770904,-1217.4957855131406,1508.0114444208398,0.043175475650512884,-0.7239274346839828,9.56470791832074,-47.66095353985178,1735409570425.0
1.1893651477292704,-543.0175781939641,-260.6736270873365,1416.3129143605156,0.046640525224028166,24.72233132885445,-4.7739983168443185,-47.49060450085068,1735409570425.0
0.6862160786656707,-189.76241144677854,491.92317439069893,1917.562323160579,0.027541226657581346,-8.043419994526943,-6.414739927929924,-20.117663905241557,1735409570454.0
1.5707443310743099,-434.04580569065956,-115.0019769079289,2129.0043073537763,0.014978875291895798,38.31911654102895,-21.65292319352109,-24.555196412257025,1735409570484.0
1.0211315685629356,-724.3897390658461,-544.6239725177885,-0.14952362736210034,0.01741620686989776,-8.729866152485183,-8.58253903153062,-86.08997508988206,1735409570514.0
0.9103841980317583,124.59455353637128,-564.058812568461,1027.6245225462173,0.023907829363471092,4.254191780668308,13.72792755282258,-51.23340401673018,1735409570546.0
1.4164733509481666,274.60192994941264,-387.2121502611072,1686.7913814796823,0.006065505076417937,-42.4148906410099,-7.199291032642794,-29.957132499120206,1735409570575.0
1.7773537363129877,-1491.5975318980068,-119.92278242446626,1244.6952874728813,0.022667286739984922,32.27052794696356,-19.48192680580848,-46.252921049978966,1735409570606.0
0.67523577035946,-1061.5365245556745,-862.6281184329956,722.1027000683066,-0.014104235824112937,41.47254809248033,-2.612428941934642,-48.98080487410524,1735409570636.0
1.1897934914931492,9.816867680673568,5.9356676148512975,1564.138890643706,0.037480166943470145,11.933899400859865,-26.440461746712526,-53.578957380685495,1735409570665.0
1.4129989605414515,79.8562461535505,-116.40024450062043,1161.0876402150018,0.025315075419094543,-32.48836966631902,-27.791640370259277,-67.0944902590272,1735409570695.0
1.2698815798088325,613.5608066955044,834.3301050625348,1270.0991460404766,0.04249007401224307,-24.914139470994353,9.089867752234216,-31.288768349790594,1735409570725.0
0.4867251942099209,-869.3746918724252,-229.30047298451632,1479.4063606146651,0.030713198260510437,18.094605585494072,-4.426764291790986,-28.67969914395865,1735409570755.0
0.5964003295297339,538.3563651357395,-714.1047650061987,450.52934454747054,0.037163493243099754,-0.9742865031092407,-0.4037948902364503,-49.567783924951264,1735409570784.0
1.4059682457244458,522.1022482428796,-618.271787510929,641.5290758105965,0.015982469902815186,-27.947472778475927,-6.55237730003549,-32.350589283777005,1735409570814.0
1.8832901826435795,-746.9820784247918,630.3688531004651,1667.575242437781,0.05779016612971572,2.1845522248157985,-10.462029288022274,11.825864341575155,1735409570845.0
0.737033656906038,183.69615052825856,322.6374838659124,713.4360587952642,0.0828402398168856,98.0914494334562,11.80064991497742,-85.35528087263451,1735409570845.0
