Acc_Betrag,Acc_X,Acc_Y,Acc_Z,Ori_Betrag,Ori_X,Ori_Y,Ori_Z,Timestamp
1.7283151717505372,-599.3713397872268,110.75245024100752,566.5516236624933,0.029836111618697817,-85.46416289942496,-5.420687106666097,-57.51223007784246,1735404945104.0
1.38524476331357,815.5472024484327,1549.3845136983878,-478.42636918857374,0.041310524023600255,31.807806437402157,-4.294598280813107,-45.191782150428914,1735404945134.0
1.5896747426790532,-132.77449134404912,2162.887047740537,42.32111572513223,0.042476030754078464,-36.42077477321776,8.509001911288786,6.228397896561987,1735404945163.0
0.6914631981037962,523.418149754207,919.7080178809521,-441.54584881835956,0.02788262359502963,-15.742560453212212,9.322631956489143,30.8690854515582,1735404945193.0
1.1075556450994353,-217.58770366822654,1114.9619384782218,592.2959667661673,0.04885386743069326,-7.165987776592402,14.571681298417573,-19.21401206769667,1735404945224.0
1.0282209788645493,187.12776983065675,868.7857696149144,445.776193080656,0.03876947036328652,-26.776781105301364,21.572878950773443,-3.6394998227351145,1735404945253.0
1.0983994937355674,501.05871029369126,477.570755334517,1044.9419336971168,0.025837866590406343,-58.0782942360151,9.918063466366556,-13.817735752433165,1735404945283.0
1.1732830296166061,-583.0246535503984,704.6595611217729,1149.1905266117503,0.0538529420723693,-32.65146186280919,9.947517220969413,-46.912601893671386,1735404945312.0
0.7410575003964934,-202.44338644947248,1050.5330743940506,313.48301187335073,0.04506041821866097,-28.621649650787596,-7.50222071918409,-57.030920544852,1735404945344.0
1.5844298186931023,105.35728737326427,666.2919206242541,946.9465479477318,0.0589756090635242,-32.66594470252713,7.475040656967606,8.039041451209656,1735404945373.0
0.34798962902645303,-283.69657621155,1429.0089818851602,43.17444696462512,0.041940754950934515,-10.637709173690375,-1.352816493625227,5.934551691307,1735404945403.0
0.7583594057865102,545.7067165516155,88.71705744636552,-315.78286759954455,0.05333064073267935,-15.203570923891238,-9.395934940898645,-65.68037778642773,1735404945433.0
1.701393030916759,406.44524723775714,1636.4926116177462,-725.7639535418737,0.03542271544449932,-14.657664256041707,-18.717589498161107,-7.850673284598749,1735404945463.0
0.8773407300990369,652.8314773048148,658.0183405959556,-344.57846575420496,0.06301602681897374,-48.03891087061282,-7.027854216282768,-59.92241697612525,1735404945493.0
1.1144790939674465,387.88778738427294,2036.176295776997,106.11107407610545,0.045309261614441085,-20.391750874554642,12.9467492720493,48.510993686450206,1735404945525.0
1.6377508531434235,219.1421282336414,794.6798272707539,-969.8047953224552,0.06584381548337526,-4.026539132632347,8.244545921077608,66.14378355697843,1735404945553.0
-0.10735293520485778,549.1717905023709,890.7882834659121,-810.1739949391896,0.04579621051083603,17.816710213120533,-8.274354369200726,104.95556376104511,1735404945583.0
0.13361061876195646,-106.77878113158262,810.2489774040872,-1261.4568375020344,0.0572545363399667,41.05193704384478,-22.619331788280338,-14.626528017306725,1735404945613.0
0.4328675649896394,-466.0418413060164,46.15158601866335,-794.7628825969011,-0.0013009461056665006,32.14163806864669,-0.36418643386652594,-33.722554244501836,1735404945644.0
-0.47046789293383195,267.43830153467405,912.1549620346548,594.4876043296625,0.047661027175235585,-14.260237973341672,-4.617601437112052,53.63817682020953,1735404945673.0
-0.26275206506600335,-999.1937527430738,69.18687208899875,-1150.5424740156986,0.02627211019406114,0.7854097510090519,-12.45029755828543,-14.55083089781904,1735404945703.0
-0.12661372516996838,-40.21609415490297,-353.1151913046168,653.9589845221652,0.004971127970129831,-12.213528392996597,-5.049009473360071,-16.55995589693334,1735404945733.0
-0.18997333717096015,-533.0051552991056,880.3983395618562,-441.7548454426159,0.07388933072721857,-10.737217023034539,-25.86700105144037,-30.5418607274468,1735404945763.0
-0.007491456948983982,289.4583416467841,-177.5868249801044,391.9442250997418,0.0381275465734764,19.737449518913408,-11.725417665574227,9.355269617004687,1735404945793.0
0.7344452397207454,-772.7229271715657,1084.103358885031,461.0582180542118,-0.0022556166482678598,69.8741307491246,-6.499298434627613,5.205276595038024,1735404945822.0
0.09106579811221571,-23.67486800433162,142.69717680258063,-168.72528409679032,0.06443890177972206,-20.46418943055299,-16.226632310328515,-36.99649990150425,1735404945853.0
-0.5540093493062218,875.8844403482732,180.414211552247,-223.33456529089503,0.06765084156242133,-11.857671358381053,0.01937322842782052,47.60329085025141,1735404945883.0
0.28804506563665283,716.627767628649,691.9913755004382,194.15484276088674,0.015421293599826125,-27.25478936015486,6.896855042923567,-43.34094518226448,1735404945913.0
0.851748973739672,152.12382626033505,290.21646731978063,144.7896031880404,-0.0025008366911215066,7.392022523646603,9.499439741291457,-21.231822934093607,1735404945943.0
0.27972131602397826,567.1101733989094,-202.9032108333486,393.2679068504968,0.04160752978254589,39.87260149741559,5.424562278942588,18.20564276272502,1735404945973.0
0.18259111371278933,-659.2794206295672,-553.2970410896979,-200.74737984834047,0.060438682819962244,2.718325191528203,-10.410267120641102,35.62276537189542,1735404946003.0
0.2331590313396472,567.0201117785792,-464.83746547714,663.483253384303,0.05809687585024501,-59.447951089833126,-10.155657316781216,-27.77617646136401,1735404946033.0
0.01526271803096303,-828.2348602123834,228.45371407748377,-986.9865025510516,0.040555982039032656,33.775709517305124,8.992155268695175,-60.79539119995953,1735404946063.0
0.038645671208764165,195.51915239364325,-705.8362808344424,-295.5681335599682,0.05497438551746633,48.703995878400804,-4.4084956612208615,20.17450820540185,1735404946094.0
0.9154961247752349,-239.8265421387836,148.9299369749723,-2091.9435909409945,0.03540671101896546,49.971659412724755,-10.222485383999828,52.030920571631256,1735404946124.0
1.0565337851949363,276.25763518451424,-311.8016807604789,1113.7769972845351,0.060279266925565914,18.46687645493971,13.74601697397992,78.76036808532994,1735404946154.0
1.2562596204070107,-920.8853313321093,579.9995346525574,-662.1599653524156,0.019121360110745066,31.121725702760347,-8.690335137063759,-60.603872716014266,1735404946183.0
1.3512926605094149,-537.2243563788559,960.0845819416874,475.86568155952784,0.023407737818092876,-25.284471422071526,-3.492986436758254,-54.737101195183804,1735404946213.0
1.3980324398036676,-1074.3410944500802,632.7702447566837,512.9962745392703,0.048432422916766464,28.19479817240634,0.5180683596825908,-2.480083935890619,1735404946274.0
0.7516374217253069,-1370.2539895679372,581.1309459054889,497.3638626974348,0.07192140239969214,41.72311674397635,-9.511178372960273,-34.442964606044455,1735404946274.0
1.3711789373449292,-2059.290483077203,-134.58133786311626,-89.41548418038946,0.05704460145900221,25.25439322726602,-0.07345840504332735,-55.494967840149236,1735404946303.0
1.5916766922461403,-366.42879191320185,235.97174308982105,-1065.178316353617,0.05686832180695342,26.556625131672483,-20.23253688272786,-41.83292071082634,1735404946333.0
1.202149943617101,-566.2153196602267,-480.5269553496903,147.3257666469334,0.06497920527789071,18.15833153264189,-16.26019853155611,-61.336197566343984,1735404946363.0
0.48493276596456486,16.17735099251763,-261.23977931205843,-293.46501783934394,0.028365759766173244,16.699616870443656,-15.898523616747312,-30.334616693965714,1735404946393.0
0.3867298953563538,-118.9559062208931,735.5082709809651,-252.41687824086506,0.037766633777553425,4.594840023174861,-2.006907042830173,-61.199414154943746,1735404946423.0
0.465023747860445,-1750.0150272086917,282.84475280562265,-1021.0782315587711,0.036171617716961896,24.606770732334866,7.544520653024371,-12.410575417524367,1735404946453.0
0.6578012039118376,-577.9682028658376,151.81131289736422,-767.503832057909,0.036198495009606556,-52.43207093916621,-16.966002638603005,-38.80747127331089,1735404946483.0
1.2823097932851044,-598.5969008305392,-104.89004758152043,75.53776601487567,0.00468928867784936,11.142983335359528,-6.662662142737375,-20.725075389330275,1735404946513.0
1.554708727714765,-682.2876945569033,664.7091443423566,-671.7190683263981,0.02284266919543445,45.51492350663784,-18.51279349916161,-18.022568323444716,1735404946543.0
0.9270297672082338,-1890.6550376034402,639.8438556747183,-73.88537890008422,0.03498097849274194,37.517370895066534,3.7658618008167846,-26.11087830481234,1735404946574.0
1.4653179988282665,-1125.1038836502078,968.2619092366034,-462.86359201950086,0.012768484513613471,54.971732212489044,-7.996788358757629,-33.2530829824783,1735404946603.0
0.4487732261087283,-671.6464196506982,681.0003037331061,94.14609158481272,0.028835913819022646,11.323343699320457,-5.175853332313443,-46.982045721179425,1735404946633.0
0.8492952727808083,-1821.415404717729,-288.5372345668891,-963.7854028149217,0.06146711762644794,5.334702897546311,-10.529853406376683,-52.29622332201595,1735404946663.0
1.2273553590746618,-860.0576390581224,11.09704659472527,177.8236112857502,0.03120704868781277,32.750731383439124,-22.033169036559077,-14.38965033438442,1735404946693.0
0.6117282429902524,-1087.4108243016874,343.75995205334533,270.8425205066011,0.028713833612912174,-7.324555604978698,-8.219270453035039,-4.626495233260796,1735404946723.0
0.6983206600418781,-1140.6096386039567,-99.51357827135439,-493.63893372974485,0.04867561740220477,24.006368197013384,-25.29778344294302,17.51838942401394,1735404946753.0
0.49659558502694,-1558.0461923469102,593.9573497671452,-94.98340336933276,0.06743993452741258,20.083892913552265,-22.238148855031273,11.037085563390061,1735404946783.0
1.3623297414849125,-39.2906872766813,59.687107047297445,58.00325636954784,0.03324419532120252,54.38423575701776,-14.058180863837029,15.690346349316794,1735404946813.0
1.2503366081892209,-817.475642262099,441.50763495034005,199.76982070136677,0.058825143391705643,24.37251956033982,-11.89057542526552,30.924513972165762,1735404946843.0
1.5143611944545157,-1732.341157311174,161.7724709726932,470.6439185258396,0.025552649490845628,22.641515271732125,-26.20288144995363,20.352986338157336,1735404946873.0
0.9169860520877511,-943.5604763743735,704.1591506077344,-76.94851489367068,0.030743485723936308,57.16993738902468,-31.60342792553311,49.56347472454119,1735404946903.0
1.512512344619056,-785.0586141158125,193.23136060279563,-135.69115892737312,0.06149055335721047,-15.686597862754681,-8.074452312520323,70.7290445473948,1735404946933.0
0.8360729639440684,-1739.9515126559386,415.24529046428256,1338.4563498954162,0.06623104625068162,32.14997963625958,-8.698705202450233,-10.810301701346262,1735404946963.0
1.0964869419923615,-98.55481010894232,-263.44524980103444,532.0779989249405,0.039190449186538676,20.38028776179824,-21.819615598720354,-24.333639005419247,1735404946992.0
0.17411332941225555,-1166.8815616324146,887.9004913008143,653.6616985152674,0.03753953185169496,15.106265716457568,-0.8572154841357271,-90.76037943869946,1735404947024.0
0.46770359874284895,-1138.5203505356562,-770.644268954123,169.6265220749189,0.06219421282334672,-5.545439647763686,-8.32993227109152,-42.07672996448173,1735404947053.0
1.948602513332367,-880.522157435907,320.915697828548,1129.7059401215342,0.05177886530508019,10.813129951163724,-21.527340397841012,-30.561336993657243,1735404947083.0
0.08712670906578202,-738.1599817479598,36.28326228760045,-1642.373005505107,0.019152471848681997,6.007253922094147,-12.982087585068712,-41.026073119779724,1735404947115.0
0.6829138857625192,-312.5183504461395,821.3179238880239,-1096.027064338963,0.019324847444017725,6.037434731143097,-10.530225830557809,-23.74909070164606,1735404947144.0
1.4851428119053862,-1254.0988120771437,-388.67764370215104,-71.97758680845402,0.05379663323000376,27.52792845671487,-24.262411370399242,-28.649661761387776,1735404947144.0
