Acc_Betrag,Acc_X,Acc_Y,Acc_Z,Ori_Betrag,Ori_X,Ori_Y,Ori_Z,Timestamp
0.8458775350699279,469.9944657828913,451.8068649323634,144.26132498172433,0.005718359359064704,21.375028070715242,9.86086802411173,45.87991062034251,1735409818712.0
0.8288770101853339,260.4819087076353,116.52652279391444,1337.6933140468684,0.023923367379740546,28.221598598339245,-11.075473290013504,50.73425133624902,1735409818741.0
0.9459209766398393,881.6318835628642,-346.26847928647,578.7726380343358,0.032621659929803516,2.706241103844949,-10.82560707571372,3.75086099922091,1735409818772.0
0.9271978006383649,716.65096062813,388.1875197760337,-174.91365214675886,-0.011867400984029816,12.461571157567027,-1.2917481040015293,25.341226981794257,1735409818802.0
0.9159429585327724,931.5444887195572,207.41667765160435,-51.948031673386595,0.010844301603104518,22.72065353426263,-15.527984282088044,-9.194141803421395,1735409818831.0
1.5422953428889903,1034.9794594869848,17.163121665964923,1074.817017935186,0.01577785885212938,37.625415708652994,-5.081814228801986,5.869703393637348,1735409818861.0
1.0112116163101994,475.72582629741197,744.7613442529159,876.8630784544525,0.0046005994467978265,-12.756944372083694,-15.215434878209791,-36.006901774405065,1735409818891.0
1.058224397274154,675.4813431276208,-322.86328422551173,635.6251436872598,0.009057657642987287,34.329723014737205,-21.624009354373992,16.13751381540355,1735409818921.0
1.5436079208917841,166.4403828668468,-353.2205247227648,-436.9623855180166,0.01231487004238689,-23.03132231855516,-12.444703949935366,-30.10076412703546,1735409818950.0
0.6204463589911773,594.1328017010078,107.46547558926412,871.1977230856015,0.042921277060842165,-57.93290290140948,-9.689640210491985,-13.149998439860692,1735409818982.0
0.5845286339015046,1570.732672863308,212.33645534514324,1309.008890774197,0.03682152061760963,-3.5402183286332614,4.0920231859453775,2.985816970538452,1735409819011.0
0.6488473481339816,375.44513768198044,1642.4684516455034,1131.1512791402356,0.0307840730067652,-84.41244262477969,0.990125941225807,-18.173921263942376,1735409819042.0
1.027394406541316,347.5318482443992,-609.7659280883404,-342.88812020644457,0.014795036554757347,11.899438702740886,-11.296362893747265,-28.070130025112434,1735409819072.0
0.9510388596575566,926.1116578414506,434.6792059359818,744.3791499800923,0.018941262197162287,-31.638382958481593,-1.3474123439306336,-29.83792099402086,1735409819102.0
0.5844343376063043,571.3304365762217,871.9938001503685,1545.1155756897597,0.022468872314739475,-43.02551968355397,-16.638879252890806,-66.80878885139899,1735409819132.0
0.3630776376872649,835.3210424114029,-58.934451801000876,305.2573982284529,0.0013878723185564573,23.64362951529047,6.415671975184885,26.03037670800824,1735409819162.0
0.23763229131449162,300.1051979917733,412.15151494931865,-80.55740183814058,-0.014357350023821562,1.7304909820972951,10.361150460768217,31.16312767342014,1735409819191.0
0.6223502372401266,-265.00942006080203,842.0279036733198,601.3419824577187,0.012394905083316515,-36.197061915242905,2.1947719555853054,-63.38399801049457,1735409819222.0
-0.9851492961762366,114.98534270388487,148.6648028281402,634.9192016552604,0.05917956498551177,-63.89058926339466,0.6614745071719721,19.422464683155276,1735409819252.0
-0.17845422427257174,-220.95627404359044,-62.20465007021312,199.30228219093834,0.041133032387096806,-26.82195841334589,-21.87619105977694,-11.893107896274056,1735409819281.0
0.3096893656698213,-400.55994838305514,378.23935638170366,278.78200535960445,0.011657179176945719,-22.2597496224123,-2.7734532725169405,10.483801399271805,1735409819311.0
-0.19413064283160852,308.8091908266231,96.40815367041242,583.7816310334448,0.037971966348127904,11.037649764616086,-18.020355618394717,54.54028409365873,1735409819342.0
1.2975253105441669,-37.638762156692096,184.39504494770733,-172.18179834758124,0.03168562878182224,-15.306946362125572,-4.68593562937561,-12.1682421731322,1735409819371.0
-0.4527633217900832,115.11233908786598,-351.42284653646095,-100.03712353919272,0.033355835561713704,1.7301615772642105,-14.362143296342278,-2.1807669874214533,1735409819402.0
2.718631810589626,1084.241182941704,34.37770722545838,1488.10261613025,0.017618714211940823,-27.42441500360794,5.558093381986557,43.39984011345983,1735409819430.0
1.4062880191179121,289.8681271442513,1386.9802804586025,2066.6699404622964,0.023789692191976977,-48.185584888462515,-6.184186522504042,52.81730367422537,1735409819461.0
1.6626127645851878,-138.5082528058798,948.7439587668088,1139.0780231128444,0.03672221361063904,-35.93636159925165,6.8230023523414065,-63.93705846273916,1735409819492.0
3.3303442691893665,1490.9887378841995,-1858.0554843153952,1674.3054041373002,0.05480309780679722,-37.10917225599626,6.08007880849897,-46.844466249504286,1735409819522.0
3.9520340172926924,1469.3373932569714,-1553.3385622469655,1595.665806983005,0.06316988376566832,-15.190150301850338,-18.237446671219946,-2.445886428007597,1735409819551.0
2.7286843975812998,2465.711304045276,-1356.1618870248449,1290.3259237076622,0.038736089312445786,-61.88968065786934,-15.515684237893794,8.882152166999685,1735409819581.0
1.2461222257130269,-325.0110666434405,-378.00039825655426,1860.5229264668155,0.03350275621790452,-12.438628260384318,-26.127552666291756,9.721389843218782,1735409819611.0
0.9546086681708582,-203.88888594856573,317.0692611756054,1181.800353582921,0.010461834671189052,-44.640347739256455,10.844980367485963,-38.53482457434989,1735409819641.0
1.5217103647966073,-205.03659042943244,165.2922140022418,-60.79453456744204,0.05507722293791454,-18.824025819107295,-3.2771180844163688,63.732307001442365,1735409819671.0
1.0552728778663707,85.7754372390134,-1602.2861644658983,1311.588011488541,0.0462727089152447,-16.548768019878725,11.47626048553759,-19.675143617683986,1735409819702.0
1.9452351689133993,-474.2043270788586,-1204.4672625319247,1424.399845150041,0.0201617577428435,7.870832192377721,13.523876701509106,-14.09394082540008,1735409819731.0
2.127267863347659,33.7103376351846,-633.0283055670101,845.4666940805839,0.003326541262589678,-13.206320059201069,6.329174114139475,10.518846851363062,1735409819761.0
1.4286910602366079,-204.05730673129966,-1519.0262800619075,2342.0021889275404,0.034345158250519564,1.9930065161252024,12.568973115765251,12.431318554614924,1735409819792.0
1.9254118612604327,614.3428472308964,-28.13929443961956,-531.6521197100606,-0.0025391434458145873,6.805161849776915,-11.336890966674641,46.30290834627805,1735409819822.0
0.024585403636488534,528.1479161460082,-4.91778123477809,1687.558590712597,0.00832030082352703,19.772806449797628,-4.284851372854553,-0.14934180174150846,1735409819852.0
0.5718720613212177,274.188955418888,-525.3746361967052,1043.5866613621606,0.008953745864030301,52.4771791647672,-10.44407928760521,31.438959181578248,1735409819882.0
0.45455411171609483,-258.2258507789467,-703.6881185332866,2135.351537759892,0.011214300408070742,5.264320017904974,9.18247619809843,25.826135912217115,1735409819912.0
0.44952300814901847,-319.3792813559656,-1481.2298853432223,-949.0606018978522,-0.0022019494247940124,28.504099338088,16.27870735409937,-19.67183875782292,1735409819942.0
0.8120524393423068,1056.050981876616,-7.409493352181983,372.23884245786587,-0.013768136690603644,13.151691107015369,5.8926277008871075,-17.64352100386609,1735409819972.0
0.8929809742258171,129.80457053604363,326.8623189838265,444.28869011534107,-0.0009221822823071574,6.9028275203837675,-0.4640393555944864,29.515678106637054,1735409820002.0
0.5888895021025585,-815.8861659623766,424.71467155124367,131.4350994724574,-0.002215945242379314,27.948307034622072,-10.945701355654412,-34.6355971700636,1735409820032.0
0.7650512719646155,438.8495372741744,-130.17150185269992,1825.5041897808285,-0.0202374595171254,61.46020053680813,-2.770963513988197,9.312166852024347,1735409820062.0
1.7571641421299566,101.66337198720575,6.47939212027552,1827.7338627810084,-0.02162187675929726,-18.34410689361369,-2.5696892101364925,-24.13863365589996,1735409820092.0
1.0548842704036416,-665.7086928443093,328.7045212334616,1933.02412185383,-0.0014797053598727683,13.883983307716656,-10.97575157635451,-48.1228339518159,1735409820122.0
0.879576495148793,6.5247857480544695,-448.300111079002,779.4726310538371,-0.0011746124649175751,-32.177542259097905,-10.00616654767016,13.063624004048457,1735409820151.0
2.0445874173384992,-438.84875327366444,-687.8280598835149,358.8280351599326,-0.004973899442145233,4.388655447979393,-9.915633326377804,-62.852485553516225,1735409820180.0
0.830731037243323,-435.6835884112725,-582.2910019883382,1036.1052840745006,0.039208767104564585,-0.8052592590651848,-0.20543144139914293,17.225970951552263,1735409820212.0
0.8742463373425204,201.74719393085934,179.80224450077304,1293.7641210934949,0.02214868042320864,-3.079035158415931,-3.528588089422201,27.51212891523513,1735409820242.0
1.0647071610796077,113.12383697100955,-91.51648104857262,49.93483795772829,0.03646433065874813,-16.741914568370152,-5.5279020472373555,-21.42480267402832,1735409820272.0
0.023742420407942277,-334.7155140447821,222.22006790952537,547.392003315789,0.015153531970824054,2.2658384752311145,-0.49389218125780543,-3.4894157389293756,1735409820301.0
1.5399145493624031,-844.7835819851944,-813.45179605036,1269.396872875163,0.020068427095394397,-2.861064113739291,-15.360031710670015,36.40904797462693,1735409820332.0
2.132458452443549,-157.4379501352169,-24.2061454176403,679.8199129270101,0.023402821585968493,10.008770399214006,-9.243796884684585,-35.02250994197668,1735409820362.0
1.5007173139115237,381.4585174088411,602.5910287557391,611.961355199926,0.031469161880960675,22.220038772358105,16.735834953435862,-31.883602592890174,1735409820392.0
-0.26295736602797015,261.72696969303365,-443.150495600574,1121.417382082562,0.01372562219732742,-24.930921600724414,1.5158658998497287,16.628868761629143,1735409820421.0
1.4572042048509442,1020.3743353655161,-153.07021874839813,2132.5606819238947,-0.012670705883976882,48.08172113588798,-5.473026300074608,-0.40216816385772347,1735409820452.0
0.7166861285320112,-203.8450480810581,-1027.4553047098293,961.8749101816371,0.02377809795300858,32.348973922282916,-1.093889138754728,-37.69292716631723,1735409820482.0
0.9768330826283687,-806.3323057592409,-161.63395974936296,1257.35056340837,0.02872671783431248,8.38527831355433,-4.38965008163338,5.476228794685586,1735409820511.0
0.2127013299523759,-29.950179145182425,-238.63133129666355,1931.5295937684705,0.001541084012537424,46.628127905556646,1.3511704874679236,-8.20706042418034,1735409820542.0
0.8646290804304401,-381.72855902763024,-518.4379220338374,1243.6342602486677,0.007733853224842279,15.24852912605466,-19.78893933918495,-60.707124245097134,1735409820571.0
1.4874044291344148,86.18491966733234,-744.5064217788338,1255.3777430458863,0.04607305159732255,14.338871963800687,13.747319819539129,-3.594241419813013,1735409820602.0
0.4909867174854695,401.5403227330936,-107.52250770381937,1574.7737311228102,0.05544993922288109,-39.4717806870318,-3.240948557285771,-40.84380480110232,1735409820631.0
1.1656526266655232,811.7054017356922,-321.95502697577115,-461.27953567711916,0.005490176279719126,-17.177636152931953,1.9177010790159983,-25.90083692770302,1735409820661.0
1.3747616826104667,445.15547874330036,-838.1316184296185,801.1661210883296,0.032986342561077506,64.94099429092981,-10.76743895771781,-56.14749827850896,1735409820690.0
0.8187307560376912,429.8522800005876,139.1680977820924,1093.4163469597895,0.04535164394759959,8.404610193956886,-23.468154088534188,-47.274967995711044,1735409820722.0
1.617565803766364,38.84610557126544,-1883.8743705462168,1866.4043508557043,0.05500266903108561,28.238722932061574,3.3998860543312226,10.62169723109151,1735409820752.0
1.0892275965871656,355.3919124281608,-334.24197566527636,900.8200630123647,0.03504832304648575,1.276839872725744,-5.7981738964977865,-43.330830092307025,1735409820752.0
