Acc_Betrag,Acc_X,Acc_Y,Acc_Z,Ori_Betrag,Ori_X,Ori_Y,Ori_Z,Timestamp
1.4306670428547135,775.7477280478188,-432.77008416576905,132.49465561469816,0.049510417439449166,-20.850255856945793,16.15691434234767,39.6487599719242,1735409672099.0
0.3968203470153254,495.2160693783022,796.1442937300943,-978.809024042776,0.06662720145380743,2.5328560105495477,12.082755503415415,-40.43388855191716,1735409672128.0
1.1872050240757306,635.1122349197926,-312.03256094507174,686.4433373650677,0.02764064783315903,30.021514018261175,1.7895986677045705,-36.71118238468568,1735409672158.0
0.3783161076413398,939.1586412139663,714.8984007683039,902.472538929592,0.06740891915721108,24.999364088701057,12.892779131656734,-45.08782081211275,1735409672188.0
1.4805473778734708,216.0606022956797,657.5416632437355,-332.2833024240706,0.040516249219687495,38.85092584052906,2.934179573967403,28.931508073077456,1735409672218.0
1.051681094231586,951.5158689992202,645.4330262085554,-208.01749190007573,0.0259482356563228,6.059832347495593,17.930024386626968,15.112006854274565,1735409672248.0
0.7516391693859905,1003.0339325949213,-551.4104892891442,-302.88155187829636,0.06517472992232236,56.88171430310875,10.226912838091804,42.98303690059484,1735409672278.0
1.4960955508146616,1505.9696569680643,652.2162348221628,-683.8332590023848,0.06884050411722864,77.77423812557053,11.65119507078781,104.51649277320065,1735409672309.0
2.3028625725090235,1036.289645456097,449.962880990909,251.42545604709244,0.03987644450235333,75.7169063720836,7.107089793140426,71.39688049745415,1735409672338.0
1.1105551519275911,1607.4106168277906,-70.66601105197958,-1280.0965006642382,0.05255148433086292,97.19908734079675,17.157255454548718,-14.324808145005584,1735409672367.0
0.2454258507171907,1222.6110305168131,108.75307128888244,-757.2549831362467,0.07472969265700702,68.72103073169117,13.706025188729035,29.67046437564937,1735409672397.0
1.7852080120589773,998.7496626870097,372.7187860722686,-818.5744377029339,0.03713574869380664,-36.74813792613813,-27.442155190011313,-42.67672173338288,1735409672427.0
1.837161211748147,44.51510604288035,587.4449047580775,333.74777622589045,0.07060093954993707,-0.05296110076896099,0.8627296737737433,-12.179866522614276,1735409672457.0
1.4996515521526872,1400.7593871139813,-1185.5127685237317,594.8187030729816,0.03019201634216823,-109.87181884193959,0.962929053124344,-27.79291478961204,1735409672487.0
1.0783410207331763,779.5228243641628,-667.9155891116538,2.8885334008534187,0.06450523789963758,-44.89729807231149,14.90521545382908,42.494234133726316,1735409672517.0
0.8357391798748952,1527.8645955361376,-339.3021735228432,-164.083121801848,0.06108630642678385,-33.96936365040044,1.0050620225532338,41.852530052350254,1735409672547.0
1.2694318086465213,863.8154004495156,-1495.8834244990132,975.5580623952819,-0.004695939808351368,-9.445708290996038,14.27475525392683,14.552987817036724,1735409672577.0
1.9494182031203753,1733.062554411039,-1365.3271251234828,-509.0693994802053,0.03722637784068676,-25.239389478248565,-1.6130442562173979,36.353017578709135,1735409672607.0
1.4694124056698916,2262.947714565431,-962.9208792493296,-625.302265599606,0.03725602777634097,-77.78425019264331,26.895929091250828,6.769006048879978,1735409672637.0
0.7569122082805425,688.957980510954,-1595.3586977893374,-448.9924052644801,0.03992379654432073,-32.19024353831574,19.426533366884993,-13.436791004004688,1735409672668.0
0.4014664412535811,681.9490951562562,218.58130956036905,598.3280830819328,0.05684937242732305,-23.128887352900705,11.96535656723151,56.96553439012394,1735409672698.0
0.5497894914150641,1513.249554138684,-321.3105632969067,226.9119426432087,0.047632120892935184,21.583404560733793,37.67076137266487,-35.95038004257276,1735409672728.0
1.3153828380148889,1116.8923403593276,-269.0740698264493,-1404.002071675552,0.06432212980392474,37.0881416553629,27.38391421949307,13.182938041897955,1735409672758.0
1.1787958964616374,989.1594821583903,-86.69836364248306,-40.86477625012424,0.056195003981633886,-13.153363035768722,8.882016291402826,49.233271718044534,1735409672788.0
0.6157233239838891,1159.284824197655,-1151.119795194305,287.895264605856,0.060458766177569706,-8.608352098364914,18.51432595440328,5.595240645151684,1735409672818.0
1.2939172855801044,426.54527393249697,84.6333921089539,-1518.0567220419405,0.023530295844151408,19.923893454430086,9.225284630119573,39.58896073541098,1735409672848.0
1.0589113670539787,-329.5769303344057,-1341.0843798510537,585.8707808547439,0.02980051326570827,88.33505526010516,19.688969475385942,48.17824041799477,1735409672878.0
0.9360940083849597,320.56934372173475,-285.52272614706834,39.616339501806294,0.06826082635903158,49.24898302823507,8.875394368096908,54.71324700745121,1735409672908.0
0.7875385172940409,1373.8767720360925,-69.31635251937519,705.1407372388758,0.0214387668888748,34.02707199582926,-1.4176685124241128,17.981990784081404,1735409672938.0
0.4085988079356345,436.54193039208684,-983.0307860450755,-973.4747025045357,0.027022470535205116,-9.477882882375305,3.3536418409306865,79.29509590082304,1735409672968.0
0.5488784299052752,271.90971585645815,1113.2178550694282,-680.2797812431352,0.06593691619359418,25.895861704421783,15.364837578498328,35.60180483842929,1735409672998.0
0.1286148402505129,297.17147074137927,297.23239894359943,1214.8140107140894,0.08042986002657883,28.43976465912582,22.59338094690945,-51.303232816303634,1735409673027.0
-0.18831704820795128,-334.0787648431763,-458.3074408692356,625.7707898197035,0.025254382575806672,78.38269874575855,-3.6652542844156155,-28.915224001016988,1735409673058.0
0.06590355258904836,-613.8497982397604,1135.4931402436737,67.3573279582505,0.06663633606907221,58.538968918401196,11.558575704768197,-16.926359744385483,1735409673089.0
0.2661482557738829,175.99079509186146,-430.2086751454279,557.4634979689904,0.06596980573508691,-58.690803062985324,6.383239719462704,-45.52961016894916,1735409673119.0
-0.6696189899614766,-165.1923890621499,889.1581233684403,-186.66018655642011,0.08819152492500375,-38.683660274865105,-6.261743882459664,-97.62461981558003,1735409673149.0
2.896483721692541,1147.3704076637741,2209.743579821038,636.2596970454878,0.06785758628192044,-67.57155661586582,-14.964236236683822,9.975786013954156,1735409673178.0
1.942574096773976,2337.152545205307,1688.8418407177599,988.7640196338608,0.04267622581457302,-17.36325363461776,-12.792482017116606,-36.08007650582783,1735409673208.0
2.17594030783233,1678.8509494328703,1468.5018328263873,514.9843466140804,0.05683374701210756,5.960025063830223,4.10760584695395,-33.906454459290096,1735409673238.0
0.6250239388455456,343.4443542981926,896.1154817050406,338.43184473773584,0.08175211141578692,-89.68355417619324,-2.351323573019357,70.42843626375104,1735409673269.0
1.8424897461544436,171.89831978672404,834.285324686879,-234.7301776985982,0.06146591572530884,112.80695971882827,-12.416800315110049,73.88234720497336,1735409673298.0
0.3896801936005262,109.54515049987162,1524.2840428952047,-48.27676838876802,0.05151841686032275,22.221023850405345,-16.956110155572823,-64.91287424523438,1735409673328.0
1.3075590360482745,349.42078354499233,1076.2657586217997,-443.64411421070776,0.0375334358070384,55.11621573572124,-15.351358085634672,-15.88727494117835,1735409673358.0
1.0999349635936468,542.8975882681863,661.5118630728766,-761.4677452808373,0.04801426868849127,2.9689673776691503,-26.20529727739185,-31.017920128624958,1735409673388.0
1.9604443635256763,1126.7530942616052,1210.4402038384255,-315.70244529053844,0.013593747716415083,6.362888088170822,5.8646054495700035,-24.526907237999094,1735409673418.0
1.439862533360511,967.5434950964025,782.3417627885513,-1031.6586905081476,0.010226498084336639,-30.921999152669642,-0.9022317768586632,-20.02083261420814,1735409673447.0
0.1430044011292278,879.418511582247,1197.431577398216,514.002170643336,0.01450286017893101,-18.16641903127567,7.485544123101336,27.914881933066546,1735409673478.0
0.5507321007146864,948.7145257758393,602.7245075994008,-825.9537479703943,0.021390039805123162,-30.21359526899957,14.4619030517674,83.9026644741642,1735409673508.0
-0.2652793491804161,896.7604361422866,-14.624707497412992,-182.36002910855046,0.015728020911749113,-15.280399048023188,24.35174316187215,-24.929965913870692,1735409673537.0
2.9215217761307124,1737.2264844300544,1288.2990484315833,-2215.372512846591,0.02741684366205188,36.67229113063109,-5.763761615124088,16.569035304904652,1735409673569.0
3.1486766286929484,1497.0154153286717,1541.5985226399682,-1614.107338552286,0.0436442417424657,54.070950742918036,14.018357164975006,-47.96234226237155,1735409673598.0
2.829633650468287,1261.0139264675818,861.8799180448414,-430.70347574082234,0.07432194336557443,17.176704591079748,12.533936247783908,0.8803567857374901,1735409673628.0
2.179051556275133,1610.6060554626522,1684.8584271675068,-1800.2146132877251,0.04174484894184824,80.24510630965514,6.876118232620864,-4.524281191650623,1735409673658.0
1.667237210327936,-121.66285325404021,-26.256736447039756,-329.57491791466543,0.04652586861977401,-11.85820453441983,9.607362565534387,38.01010707979535,1735409673688.0
0.39152861138070316,58.66342058481865,204.4967355537546,-679.2259509638433,0.02179543383138699,-14.764780508898475,2.841600036909969,4.404505189255957,1735409673718.0
0.2780647814034136,-783.7272226723084,383.4283302872115,-528.5003985079231,0.059080752284716875,41.42749295292913,17.32571337276392,-10.173106295388372,1735409673747.0
0.08427194627168666,780.9776736605309,138.0029308516462,-1594.0420406094845,0.06354743659758046,10.819517349801043,7.761498722759736,50.11125934957041,1735409673778.0
1.446533648718288,192.52359166091014,-337.146696734589,713.91241232428,0.08467363909497351,20.868208894716705,25.86240988038182,42.751615254239184,1735409673808.0
1.5442320082997087,874.5193991757708,14.223374137524047,-62.315322612518685,0.03939192132157378,38.74888846287941,34.71664813555755,16.651611061534965,1735409673838.0
0.8860010298857673,172.92377399534894,-572.3399510442016,-1685.1317781985945,0.05419047041939241,53.01803625744429,24.682534386143217,60.02158585864172,1735409673868.0
1.325670644804457,-932.7378278734839,544.7700188725742,-464.6929594518565,0.059924557295171474,93.06053656745439,12.46748468315285,8.956577437710799,1735409673898.0
2.017799086633794,-521.3624531603366,1034.5497839010545,-971.8326239614091,0.05582206669528177,61.068632182511024,-5.94306587300939,37.42043679759067,1735409673928.0
0.9655988138746404,379.19504022424655,695.0359727250463,-497.0544013050146,0.07879860899885148,63.10620125729399,4.517742101824901,-39.545161199063,1735409673958.0
0.6756928614142893,398.6844331784148,254.6351885565325,-2263.7760661325437,0.0783401700904101,32.671794731268804,3.516766541353123,10.592929213074491,1735409673988.0
0.49398462241507135,1261.8177808646826,1047.13916305227,-2558.3125371292863,0.05903004476144556,-49.59014225704856,8.786455649883223,-68.32759163877276,1735409674018.0
1.8673726741821044,-717.5468540982513,466.11181375938014,-1550.3594281227267,0.04394805891310903,-52.07874916299051,-14.191256380054309,-56.86876301733725,1735409674048.0
0.8568124014973368,951.3864813866176,-359.21623298370855,-620.1206920862264,0.07992289745599951,11.38407384821582,7.978255162505236,-77.93645069012135,1735409674078.0
1.6899679997287809,391.71143626590737,-97.67343334891953,-1473.1452538774552,0.07977620002522814,-91.7323683388583,12.687352029839316,-37.45981667523997,1735409674109.0
1.6720386501307005,115.49459518547687,-27.0422688421786,-613.3698104039202,0.06297225920637876,-38.399421689671044,-11.412155317393504,-27.500627392399444,1735409674138.0
0.23967399647449783,-465.26220770812404,547.6773966225871,-1936.1355884134396,0.07090900408502396,-46.144954731583816,6.36553596385178,-31.90225668575787,1735409674138.0
