Acc_Betrag,Acc_X,Acc_Y,Acc_Z,Ori_Betrag,Ori_X,Ori_Y,Ori_Z,Timestamp
0.9527517742039492,12.832811323942352,821.3497797826788,-836.7727886755868,0.0651316137619831,-6.988447569872044,-2.8064364208394963,48.837569857188875,1735409568806.0
1.0736336927690107,-1104.2016961480924,516.0539785586452,-213.1793194274087,0.05102672767441423,12.463495848093665,6.444330350672253,83.99097645602725,1735409568836.0
1.5785393247600665,-192.38863482438728,-294.47267363233163,-1282.8759056475158,0.05364955263325599,-73.20724663911837,3.7701273178600365,44.78330091272339,1735409568896.0
1.2143397887422478,937.6230003233156,553.6429488468747,-769.6490122439561,0.07680341161184459,-45.56488733729404,-1.5549676781958595,130.47785309598288,1735409568896.0
1.2546180551549613,933.5153351517848,1183.187311543109,-209.88192636974134,0.08489541535770237,-59.42555815603622,-5.803897946582263,50.653634546812675,1735409568925.0
0.26475095189353925,-170.54717971635807,474.09074715880325,-1418.1552846709646,0.07638749003530444,-60.93559488799545,20.849156803160653,54.271172446540845,1735409568955.0
2.0987881985939265,-567.7887859324754,193.3314929641749,-846.8028962731061,0.05342588205060137,-33.255774633561266,3.9422668658344193,-25.61398259714091,1735409568985.0
1.3365161389486628,468.9721605081345,244.14502954981714,-1234.7765394882924,0.07278446380964317,-52.43827576065241,14.888820570179224,-28.33466316782662,1735409569015.0
1.0993425648349684,308.65343242618735,-89.17364688103589,-810.1096596247228,0.06637057728463204,-33.57854309877123,22.653125109426867,-3.692267198659195,1735409569045.0
1.5747246896332254,256.63334563848497,542.9883690278923,-1528.7453176070633,0.0378512653114851,-41.21806213224365,10.207012401985633,-71.65924463779984,1735409569075.0
1.0885730118646941,-354.5459292782749,343.16724829995854,-2478.8756662808746,0.08075297375398796,-11.235020776971616,-1.694457706802877,-62.6659085814441,1735409569105.0
1.0468265928688325,96.78353488322699,1398.9958878341731,-958.8500703798655,0.018535205788176537,-82.25157482559658,6.197512591447344,-95.67054013410653,1735409569135.0
1.9646449192777151,-496.67023509655485,60.60040842785526,13.58664960804731,0.04919647095504653,32.64201143755452,-0.1759728918734207,-27.790277452741705,1735409569165.0
1.0372516954357696,261.7436381944419,350.87720416817103,-1059.412786993727,0.05969196279189472,-65.03828083217897,-6.402053762704702,-78.6755693819513,1735409569194.0
0.8173534584811268,329.25198646030856,-875.5369467907467,-583.855440791938,0.03572433615562509,-83.5691715802989,15.404479931055063,-60.87588736030878,1735409569225.0
2.290198104963152,300.23123473250484,-336.5830606581742,-1102.7640960394572,0.04533950576239214,-41.78063520805825,-4.193080781640273,-65.03757679740694,1735409569255.0
0.39277452524654943,-469.733812241308,590.1677437361099,-401.50205635255395,0.0324937579077643,-67.31177569329073,11.966997967244172,-49.90541148438358,1735409569285.0
0.04998654550782511,-253.59628382065375,1013.8527929013476,-1396.587415947096,0.0318658692048115,-64.04003238640966,-7.2754118604771625,-56.53879963489558,1735409569315.0
-0.42005458766333764,722.5882039653641,463.03764663584724,-668.2710822020543,0.07707791943967447,-36.1408306596959,21.667212903961083,-52.770302419169525,1735409569345.0
-0.44728380789216604,46.54111344346804,-25.725475995130434,1372.4602858931075,0.0428220046705751,12.191818867732273,15.623118749875022,-60.85912285181044,1735409569375.0
-0.40133909476277874,460.7942429707885,15.76563696312717,782.5951474573121,0.02050970134798297,-64.75846425773281,0.2711547616408305,4.374034552903172,1735409569405.0
0.4500383956515781,96.08647947475382,704.3331654785595,822.6313641716259,0.03585628287861713,-39.655841459726574,8.238374578119629,-72.83741979010944,1735409569436.0
0.23111949951378305,-2.687923095535634,153.95194085156896,345.6461837820426,0.06448534235690954,-6.366142519196664,14.377025042380467,14.870034157404405,1735409569466.0
0.7435017056416912,-300.64503544803244,-86.54360270844337,434.82802529691855,0.031162136844307096,-1.1901424044780597,14.233206428918251,-77.42436854414524,1735409569496.0
-0.13063944354457332,-35.226186236923134,27.351698264234823,-158.07404278551152,0.04668317144018308,-42.62582186972586,-0.512546561805193,-31.718467613898,1735409569526.0
0.08200170031925662,503.35294373289463,-170.52103896318718,729.5362745360245,0.03282106531281955,-82.10592596669623,19.208622015064243,5.703019593483209,1735409569555.0
-0.7729603764341547,-231.74963208378398,551.3974751186493,919.2316848607751,0.037381157556752434,-61.76883910092053,19.44188696480355,13.577253427055382,1735409569585.0
-0.18848180677070603,6.551721999119852,-344.1633406752187,69.46593710463443,0.010261390656914636,-43.86956177823229,7.577892721383877,-37.26067080854202,1735409569615.0
0.3232731718361226,-873.9054681828426,114.79207227670413,-422.4222381090643,0.05221614350404122,-38.631526996060266,8.56384888658534,4.59371948409159,1735409569645.0
-0.15673671841202164,505.0481819673818,-260.8405309563353,-365.2525867336408,0.014784830476011075,-42.681749380833466,10.958530728041394,-6.06835267437345,1735409569675.0
-0.26257778346111915,-342.13181150792957,841.2805130265384,-198.06542389850384,0.03522248833023833,6.055832502325504,1.2138488127976998,13.565318695386727,1735409569704.0
0.9777835375159853,385.42844969510435,749.8682429356174,-1202.9871751081678,0.055667300845227585,-35.76579936243714,39.05152908422833,-9.610970491720822,1735409569735.0
0.8828985335658921,618.8946378676841,-127.41942645784633,47.86798620700395,0.04695959494800621,81.22681477312028,-13.794172991577813,-6.635409447252876,1735409569766.0
0.5384888436323799,315.40563713518884,498.6455258921238,-561.418410893889,0.05013500137741687,37.95031894049605,-19.609649346106018,-27.134734757229673,1735409569797.0
0.7834890423137759,440.8033046116344,-48.854751526136795,263.0590469907909,0.025568860737013855,-32.27134077339148,-19.15346893616298,20.61800279799772,1735409569826.0
0.35103114160487625,-443.72160558623546,147.54871651322281,-912.5958178054851,0.036988649520819546,-61.852421084549725,-10.831767651228477,-10.328590228839055,1735409569856.0
-0.42295034381310337,93.33079805764632,1572.6281387577358,7.961040480236747,0.0472327017525869,-13.575471210140233,-9.581872712251634,47.430275536627256,1735409569886.0
0.11833752712226231,31.742596815228964,350.63575267527847,1567.7930334375767,0.023878686290227415,10.54835918745744,-10.549184079452314,-28.218707712523322,1735409569914.0
0.5613178286545145,-464.132545900987,194.4431306650198,1719.9067853269714,0.023707794270390607,-30.272221175797092,-15.320362427714329,-5.695997407892978,1735409569944.0
1.4169872518644429,-207.91555258782222,1090.2935648145217,365.838391724511,0.03197635741574162,-2.7861705830372774,-6.077360320709985,-34.316429850182956,1735409569974.0
0.7950819248179605,-166.4118428669929,177.2540018927105,-89.10829591672325,0.034922106295782886,-8.81994367989456,2.378168411354846,44.87733358320845,1735409570006.0
1.6675635838656389,-70.42362896245828,817.9866016866958,1288.962542708506,0.017545485232545868,7.607951028226269,-25.968984756864167,-19.452540847231955,1735409570036.0
0.3747904955622593,540.90845393001,200.65747742854808,-3.087211306284644,0.028504094113286867,0.808348656275264,-11.20342461715433,-35.50120615060429,1735409570066.0
0.5244630690843044,462.96107290614486,695.8621481562733,556.9076985553284,0.03664535944783029,-7.614761528900512,-16.205006561551617,31.268341556112123,1735409570094.0
-0.6352963606162383,-226.15684639782785,-191.9751478771244,439.20882143147077,0.006049436357684462,17.891592866476067,-16.193188083973965,3.1736314919214004,1735409570126.0
-0.5707323078114713,1129.5421684394778,77.07872869919618,622.849806263765,0.04060289425329229,19.677638288912515,-8.154762493899257,-87.50004624066297,1735409570155.0
0.4667067774232777,832.4146322989303,151.35453124169274,-616.4147396859781,0.04850947520395401,21.280203913678545,-9.660417321250634,-9.844049742508382,1735409570185.0
0.33000041728071206,-78.08746199205939,613.3348150182678,448.5327398409832,0.043196701497008126,-55.675032289233215,8.864553001739745,14.711235113044138,1735409570215.0
0.9041168067592632,846.7694255691232,-174.76376747178134,776.8337845957059,0.02051992824946835,-32.29149285521418,-10.231520701479006,-17.877676230326472,1735409570245.0
1.1464111983338314,102.35481690150795,340.871585386866,2115.830785257933,-0.002467700835207313,-5.88620233949916,17.061794880107804,28.59033834415147,1735409570275.0
0.9931450728851521,706.8397558101592,-344.0691753681723,2254.5850758817023,0.038126207379637594,-6.154244402500964,16.828752914018477,44.31231851863553,1735409570305.0
1.1212004832764795,-29.79229339850002,-858.7267658919085,1647.8078764047218,0.055585942314801684,65.65971859810652,21.190806985096362,-61.30781638652323,1735409570334.0
0.3225692946914458,1920.112038741712,-358.8961925547059,1241.95349416722,0.06634863420703631,37.41468537676897,21.75611777264399,-46.46568139364345,1735409570364.0
1.1298298392544328,-26.136742274062613,-43.75010416511725,1482.586182942584,0.068499189194834,97.31697363239901,12.335298140322017,-28.177289456052975,1735409570425.0
0.08136592893873107,238.99920033482294,-454.7242035452029,248.61180461849233,0.04161022379060157,7.649766138866244,-5.9149728415238805,-19.92882552263535,1735409570425.0
0.9382532335612497,-132.16860934034386,-519.7319511035677,650.0422032809844,0.04950743969213532,-21.66024283886363,-17.064414871999126,-41.85607833761586,1735409570454.0
0.9812218723368905,271.4166258261043,386.565193247523,-777.4481379060398,0.0432411548956866,-27.36138716686219,-14.213854341693775,10.361449368082386,1735409570484.0
1.1724094613716094,-481.04961810254053,-1034.8271845002319,-281.5716235641305,0.04426349526973537,-17.394601047297456,-17.0603106224348,-40.12244043273313,1735409570514.0
0.6812936538083963,328.1578443781784,169.59916693051332,2399.1902099328554,0.03204134772105587,12.546425798063321,-20.447886501341195,-19.909937102320225,1735409570546.0
1.202660416900228,-1158.8209853601643,18.127174122525275,1119.5056636771953,0.03189501405543023,-9.701629811517295,-7.283233551656348,-21.3870870559533,1735409570575.0
0.7071022136843134,-991.873724566865,-30.901771938612598,432.0736191488379,0.030697816392385932,3.834425642357103,9.89605798812247,-35.34187241664669,1735409570606.0
0.6127508056847407,554.0904006871764,-647.7524671120198,1380.6566168270933,0.05040776406505441,-14.301844983692101,-11.080192709158448,-58.83294732685362,1735409570636.0
-0.15199936407811732,114.68716139290876,143.75327744260585,1812.004433357877,0.019400534890824495,-33.57294355380791,-8.750037083598436,-11.630744859074845,1735409570665.0
0.7692230017869617,-633.8709784390717,469.33288413235107,1561.7627885124982,-0.0008089126855461495,13.410865300716175,-10.178784843197601,-17.59223270841559,1735409570695.0
0.9773044123495569,9.20407614506476,974.0369598933466,1851.8663005791636,0.027500988693821,-19.910987014000547,-3.884666134247094,-40.42884261657008,1735409570725.0
0.7682263207489293,1006.0130678326732,29.437656497042838,-24.55966423501502,0.042369249470415746,45.326230004103245,-8.485125017517252,-15.56179102009445,1735409570755.0
1.5693903395281867,519.6372781389751,-939.5727101352633,257.83768079397294,0.04039925150708899,-66.39209539282456,-7.481040768864428,-15.28065350848511,1735409570784.0
0.7175904490547474,58.606298247359575,-579.9753828750488,1432.640764982995,0.05664512239030016,57.16814382742433,-1.3454606044021795,-47.79736019641608,1735409570814.0
1.0258291757729576,-341.21541204510345,820.8955183171825,2204.6485955445432,0.04085440182805087,-16.37873739451509,5.142731456855221,-33.985839965476394,1735409570845.0
1.336087600683351,-301.98713889731494,-1102.524029119218,1480.8934082150686,0.037078665199405905,-14.202728901296048,-12.279522875850596,-53.15171239721909,1735409570845.0
