Acc_Betrag,Acc_X,Acc_Y,Acc_Z,Ori_Betrag,Ori_X,Ori_Y,Ori_Z,Timestamp
0.8082260550947313,439.38040416377623,1376.1736760130789,134.85778640137124,0.07995221807891241,-73.64408564554685,28.91130884745147,-34.26062434914601,1735409672099.0
1.405152030298637,682.0939413813645,228.24893295960436,-404.8484906707312,0.04969092621274729,58.97568422936834,5.509574222281561,-24.08041935405337,1735409672128.0
0.8455436797320827,1045.7362427623968,97.35721915130375,202.2749529506982,0.03646485725813951,-15.58031691994331,9.909304834613682,-16.054922097592623,1735409672158.0
1.0448781196355124,-125.6158306143443,495.3965310564489,-425.7540893572731,0.04719408321089362,10.12671737928747,29.539404945063733,-126.39257354138653,1735409672188.0
1.4029276152528267,398.47819080856345,466.9158701721239,-446.8277901745938,0.044420706236095696,-13.56287079621002,0.27952795711497813,49.207188335224146,1735409672218.0
1.0070822014332406,-265.4060848035358,102.4144474740495,-1076.3763963181705,0.054772843825466884,13.267863445455305,-6.338305066348418,30.85973143128638,1735409672248.0
0.45133105959662734,1331.5732641191482,1004.1454670220204,453.9045807750125,0.0598422994920418,38.6332929712636,8.160802700544561,2.071644881332997,1735409672278.0
0.8924500073082187,964.0788703102642,373.9813985875455,-288.3692137798623,0.02463085487115561,13.237068779151308,5.078873611636645,72.22217134196171,1735409672309.0
1.1909078901139287,1072.6715517682717,1147.898594361718,336.0234154106435,0.06261103165535956,22.075119103592048,4.645460398156217,27.83461712301747,1735409672338.0
1.9491026873348543,1321.1452591513496,806.1148549456259,-343.24299541051874,0.0791612306117746,80.63082120221598,20.70904079526685,28.88676873151612,1735409672367.0
1.0500940047826657,1376.8750493997222,-332.5928117199961,-1696.975171133529,0.03700555739113969,43.522846436687004,6.927742044570493,7.965015895815054,1735409672397.0
0.49335599581525724,1281.4531427003958,-127.72294998881279,-1222.7658186418585,0.012159541700155208,-47.62260833232415,-19.20623652421774,38.03797602041464,1735409672427.0
1.8997630132912893,3001.7790284535295,-866.6204293729297,-605.4609279295155,0.07139112508507955,-96.20642650681404,-9.439062740989486,-33.5641713558478,1735409672457.0
1.5732119859608154,1003.2307145043081,-402.31366885411916,-240.59774289632068,0.04889980299015342,-63.740219592199395,25.130070784309822,-34.56317839652207,1735409672487.0
1.578378397401318,982.8797767300604,-481.8490741718382,-402.88820247690626,0.06515802943883321,-88.79337804542868,13.528500316139235,-3.5547623736231486,1735409672517.0
0.6096038923690826,998.3916855669056,-15.33947702596862,129.83174910479806,0.03177247501342005,-50.65466952367717,-14.453125460290202,20.092997020253343,1735409672547.0
1.526760625257108,865.6049307575702,-376.9358549651898,-928.6492714912894,0.03330296812737907,-83.06463590299168,5.019707750915369,-10.434554997278658,1735409672577.0
0.7931528278438816,1478.0712075984375,-1238.2855665939278,-282.0990638696408,0.05344402628049736,-22.580068369982385,25.347463809143704,67.00346230261282,1735409672607.0
0.911587086105643,993.927506117538,275.5757846325331,32.77714676497001,0.0473879452560785,-47.1057908612774,18.02343138985246,12.92270647998678,1735409672637.0
1.2348196339533122,1808.280815459043,133.587028523262,-164.7889624246095,0.05111572342965419,-47.95075699833352,17.61055913725015,33.55531774436308,1735409672668.0
0.8033223917200006,753.9277051336508,-268.6833160261146,416.36921283259085,0.04842824625659147,5.52990482922255,39.72168177024861,78.74941318373361,1735409672698.0
1.3197032962301578,1079.0931770283241,-998.4090082249477,330.56781865706625,0.047690496930797896,52.506090553380325,13.507176873827387,-64.26519957240907,1735409672728.0
0.23585755937605846,562.0734979614276,-676.4863104521274,575.0830224192309,0.04341625807960864,16.99818193682373,28.8932511319127,34.14716363456951,1735409672758.0
0.314570119840368,831.4582317775236,-50.31183870851879,-457.76846982549773,0.04403403455279386,-12.476034174519048,25.15496462375372,74.61249686111391,1735409672788.0
0.9317072302698353,-445.73154561666183,-1679.557781190359,445.7030498473267,0.034569880466081525,12.979589607269784,3.3901358395097976,38.72457184912234,1735409672818.0
1.0081032463167556,916.5925740336704,-1288.2551204671881,-914.8134539924928,0.07540287750588417,-14.498676157673442,21.039363267879786,58.437467121862454,1735409672848.0
0.3065027150596322,1185.2921562803594,-124.10188299749666,-1686.4733404372512,0.019368819680422346,-3.0836675645041467,11.792354373998062,10.15575153795066,1735409672878.0
1.8247245416688243,-345.2338983309487,-287.08407488881653,85.48492882287243,0.03409930018849638,18.15837910240002,31.814527691683086,23.704562865242426,1735409672908.0
0.7030331057777481,718.5634942599677,-994.1034345630685,-979.4132917049822,0.05981350565186452,-10.118805654622172,23.94849212914221,-7.409121425591138,1735409672938.0
0.958178298106259,624.3225117528568,-558.2454117817707,-924.9214716598794,0.03977254747630927,77.65822212066705,8.449863168302983,77.52968249786674,1735409672968.0
0.3719973744070876,-223.06925546306223,73.22073949481455,461.9897840205838,0.04192520356482045,-6.139326338562494,24.34210761452237,31.398224975368052,1735409672998.0
-0.293463720005192,551.049368708884,-821.9767529883266,451.0431491059873,0.08186028362349905,5.371629154917244,21.95843181253487,-79.37805338642602,1735409673027.0
-0.5291039807402138,712.256105723153,147.95102425517297,-361.1540523906685,0.05557427751162927,22.778592509263305,4.948793269685637,-38.124668256047215,1735409673058.0
-0.19660446717958807,1249.3944102882917,-610.9035648810111,443.5304354280911,0.09385723892319377,27.245069789152435,-7.805266924551112,-84.09054261742477,1735409673089.0
0.42371551106486627,-404.03376667839905,-915.7899403446191,-7.064932425027912,0.06532572376064061,-51.1829704507255,3.201301495959282,-7.490091643551342,1735409673119.0
0.25787419792899513,-45.3924146752814,77.74128861107475,-421.6891552829056,0.07035399426097795,-20.747997074506277,-0.749031182384611,-3.3362379121825363,1735409673149.0
2.3978397749213585,1290.5608176367984,2664.830756500446,636.0858908361175,0.033792280102804204,-13.50633422930433,-11.965395811268898,-13.11285931289383,1735409673178.0
2.2982638085842266,1946.3688742257732,1047.9901702620646,764.5932121749709,0.04490053529028043,-118.44156594722749,-10.60548396601955,-22.883031581162136,1735409673208.0
2.787206827994895,1857.9732765611968,977.6221756866872,732.8153114512879,0.0659268687099135,-30.00988102830421,-15.099311366294849,36.296355400709594,1735409673238.0
0.39083965995764014,181.31773539646164,1271.0291669268088,687.2897216250194,0.06141493573446007,-1.7141370349458356,-21.734273469444567,7.142875266489135,1735409673269.0
0.3666729530688787,110.8481192860533,183.38698969543663,-932.6291560275547,0.09516644670866274,86.35877096493184,-13.887663746681769,75.67761232881645,1735409673298.0
0.7842618128376868,-85.59014473132493,-174.4985601395275,987.269227643658,0.055188610586206964,22.395801943257396,-4.852462410559147,-39.19480659385232,1735409673328.0
1.0699702834025755,331.0948576502686,1045.7597087133681,-769.9736311851339,0.047483034088793105,83.39257604104728,-17.89004043066824,15.67328969438184,1735409673358.0
1.7749077272083587,1838.9226487184237,1932.5027978345288,372.4356945101656,0.043881415549870614,-3.659484645379693,-32.23322808577651,-55.55620418878719,1735409673388.0
1.6382529150504916,1416.8977905147508,1666.2262118605972,-663.0217512206934,0.022147353826008544,6.607945387128023,11.914757268316404,-19.02172041008807,1735409673418.0
1.974975831105916,797.2249058264774,1688.38339987569,-407.98617216594084,0.02044685809335563,49.96435150477613,-13.934453068082579,14.909012279977606,1735409673447.0
0.43251894008751046,623.342004814493,-128.45550712593752,-1234.2943197237728,0.03547935761734865,18.480218449482983,-11.990185266056715,44.805201018596335,1735409673478.0
0.2403144744814349,-330.261731503006,255.9079988029431,-438.2411493537153,0.016118764924450232,2.6089006417402,-12.44729250678271,-2.6066006334080782,1735409673508.0
0.2907108648376924,-658.785444070992,-111.29119491212926,2472.387301860166,0.0677876130975567,-27.701923752546072,28.605922045461107,0.7046285264726357,1735409673537.0
2.1752463304748484,1309.7468987859647,1100.8792254884347,-2613.15367808553,0.05936503334016525,40.47450218282022,11.378917588529612,0.27911436468032036,1735409673569.0
2.783926242866295,1539.111267115391,1722.1864781263664,-2272.9952684884265,0.07065986654877007,26.897612305504246,17.535167663054363,7.539995958109367,1735409673598.0
2.2736515429017827,1050.9274752962424,996.7075970718205,-1603.9916025425755,0.05069607562471363,-5.1300289797505485,15.291929717113366,92.2270262462367,1735409673628.0
2.9554892678868816,935.4120376507383,1249.6328642587248,-1419.7128598179593,0.03242395134876601,57.84607594006327,11.418791211520173,103.5454645408181,1735409673658.0
1.3654970851433188,83.88032601466605,-174.81129108387023,-1540.299409237321,0.033708467372011164,14.426601367680066,12.68396173312852,20.317031805250956,1735409673688.0
1.1707101458987166,638.3433069021748,1173.3309515985904,-715.6193571148772,0.052915079374812844,40.03128785420422,17.019293675482736,-17.147383673297924,1735409673718.0
2.393922260896563,213.89135911736565,220.23214684765776,-131.261991251273,0.07832696864698015,8.558545487252221,21.280621458154865,19.97471053512686,1735409673747.0
2.005642374253818,307.69064888972326,359.6752346136189,-219.41853708236192,0.08651705198731968,53.81653662110471,10.395349826041391,85.99686349222904,1735409673778.0
0.5134681188655872,208.23043095195317,-127.28206633566464,-284.423110451841,0.05664238000701494,55.63417059309483,11.097746968698477,-20.844944243984237,1735409673808.0
0.8329054977862312,251.36185978061093,171.79521150812784,-1034.3347696190742,0.07792347451243678,14.343005844783612,13.916006863995255,-5.4155209708940575,1735409673838.0
1.0729412397333515,326.31741226721454,75.99618363824649,-691.1472990699993,0.06851548145991068,35.778203892405436,20.957443643313585,38.28582120151947,1735409673868.0
0.8493954820022078,630.520186363048,125.04166879149193,-946.1002511707752,0.055771695510887835,12.878068683474417,7.918612040441445,25.82348418871688,1735409673898.0
0.7878001333540199,631.4429835730684,-611.6718693252332,-1660.3414246390291,0.07341558461401365,63.28050271528626,17.16304165870868,110.8204308651095,1735409673928.0
1.1029910623436703,-97.61002237141628,649.4002459209047,-1936.42498779714,0.08189563341966674,60.340870301258704,25.468134044682696,-70.87640056530185,1735409673958.0
1.1702584474053261,1268.0556861686537,1425.6582240951793,139.75545956518522,0.07403381512316091,73.22526512633851,4.464288431609185,-98.07904271616307,1735409673988.0
0.6391355584321052,-44.10508678147818,316.07606918743795,-1793.1222584160514,0.05272385286944976,-29.441526165470922,9.147161189787866,-73.85735499978617,1735409674018.0
0.9742135963793781,559.297523220862,132.54143727721186,-358.01806733331796,0.06066654597031025,-66.27275281785487,7.852675413034117,-34.539490765401816,1735409674048.0
1.220275762732688,469.9719875301755,72.41925256112457,174.94358575135766,0.07503565155737395,-28.86356331173975,13.576236097341935,14.502208280689914,1735409674078.0
0.8694318324943368,471.6510758671983,370.88354017531213,-134.59240658635906,0.06706236272774843,-33.409804956511834,2.053978923384527,-57.314839518306655,1735409674109.0
1.92908944909282,346.84419831581806,327.2019193469977,-1782.6253351266344,0.05417620910549137,-15.582448096942684,14.037800738462266,-14.213496787912234,1735409674138.0
2.020060955099817,1023.3986640690455,61.9045708298938,-1208.2116979601794,0.07563810618434623,-35.15507750915699,5.478564239696862,-37.61012825246662,1735409674138.0
