Acc_Betrag,Acc_X,Acc_Y,Acc_Z,Ori_Betrag,Ori_X,Ori_Y,Ori_Z,Timestamp
0.5216051533320684,-98.6005997857518,-364.6769840182034,391.6926871220163,0.018753910343517265,10.4256603255089,-7.700808038708879,-13.115793526462877,1735409975914.0
0.56607238675084,-296.72322897549486,-1228.0377069676038,693.6268577331234,0.02536803880535698,37.92162658767603,-3.9054843587211145,-45.94851923417238,1735409975945.0
0.20560221684847535,-425.03004190601763,-1479.2153399139054,331.87302413836363,0.04061155403764038,25.13182414984022,-4.149934985312271,3.6102064975786625,1735409975975.0
0.10035454155240475,-298.9585706744821,-1393.6966615314623,1047.5200939152207,0.004936941400105976,-11.425147602943513,-11.077358171392993,-56.775802470955725,1735409976005.0
0.7977594427075576,111.96036881865189,-570.9991524819677,1172.3689647336016,0.028762329519127418,15.537799138766513,2.2993258901245075,-17.60312078171831,1735409976034.0
0.27011167045431406,-657.5592703600241,-817.9491777492336,50.68812837828199,0.04910002765054698,1.7445425218663804,-2.9920769552519575,71.35352301053501,1735409976065.0
0.8682808928498704,-791.698790432483,-649.0590647429947,-2119.4613973602,0.018435278066529295,29.20617797930379,-17.739186374959157,-37.204980640595025,1735409976095.0
0.9946913738854125,-1615.6186233432409,-1362.5065623576652,-216.708210610114,0.03761540027090452,1.4453260069443008,2.588886108426053,-51.150539481391135,1735409976125.0
1.0187170057683197,-607.0762905972696,-1129.598845011113,-190.14894353824508,0.03970423441986498,-6.538369899464165,-2.564322281328357,-32.29648360460737,1735409976155.0
1.6751248080941392,-983.2890348439789,-196.39527187471867,-1656.9611048086751,0.04471964924777449,-24.854065410275318,-2.6930605811722663,-49.00305389715704,1735409976184.0
2.1434416960985647,-424.4648580517566,-748.3490045074292,-916.8907136161449,0.05771521370718637,64.09229590093221,-1.9792955163295107,-32.686853918979764,1735409976215.0
1.2192120541877063,-1348.0659284753801,-647.4679924901828,355.23329124035945,0.03967001432963602,25.737659909162744,-3.9605405987199127,40.610318013549886,1735409976245.0
1.2660404882335026,-1477.6409228973914,-444.05555806165245,295.477790152942,0.0513439348233901,19.80832688471373,12.599930695976381,25.618326128178403,1735409976276.0
1.5377401037851368,-591.107356209438,-76.23872058729125,-631.9709333419021,0.045105225819125364,14.382492353962284,21.858750295573444,78.415893657878,1735409976305.0
0.14560716169377622,-443.26812332264296,-723.7505036948945,515.735330535716,0.020596756338725167,47.89406344419182,18.008575437455494,59.70696126038955,1735409976335.0
0.07592905506347283,449.62641009379377,127.8416161059172,-300.6020493173845,0.03967137353993085,47.49028027303167,3.653099664427746,-45.02033714922696,1735409976365.0
0.12389948586944849,174.0134498182333,-206.60793649101294,-976.3837603060028,0.05488063325240207,-1.5486574930547619,15.211556446948965,-62.824975864098505,1735409976395.0
-0.058661025825294255,-640.8334379934761,-437.00244059308784,-1037.8327576903744,0.0593928037607037,57.41094410253472,23.341618393273443,55.77591820776445,1735409976425.0
0.8517831959695602,383.7866394942674,-171.65955609739197,75.07455843363766,0.05544001594027222,58.39169579284845,2.8845023560631926,27.882120011641824,1735409976456.0
0.38337137581129566,393.5265207589379,804.4137095107781,-683.7747529771705,0.03412212586983195,36.86382852257103,11.996377227202185,-46.26675257840359,1735409976485.0
3.4806182356711757,1229.9158578572692,1609.7664873806777,2491.986515903416,0.026066979731308473,9.43336505232222,7.739610568003703,19.121624132703197,1735409976515.0
3.8243986098754137,2320.327362553107,2438.3655045006435,2111.3828461437065,0.004829040879068616,15.815363180373504,14.05353903660486,3.966264233396279,1735409976544.0
3.126062895698477,2302.024073639657,2026.4531717132143,2299.199639920107,0.03989533673721386,19.341810216637423,6.833857368431891,-10.71035508965633,1735409976576.0
4.087141487558116,2722.2970224598366,1790.858508090427,1680.0808046993009,0.066903423306393,-30.536652826925398,23.828531065538144,75.02223482971131,1735409976605.0
2.589872566022889,-2460.77843273523,-2532.833959426912,2488.6892209082143,0.06051640797911216,-36.51716323442788,0.5320439616254959,28.88576020897312,1735409976635.0
4.270341328543894,-2736.7262233207416,-1715.7939070642508,1619.0597303170002,0.02461353075574979,37.28108732545972,21.07147461964848,-10.436636449441783,1735409976665.0
3.062092998223307,-2762.1247080189705,-1938.6082351726693,1453.4661099603525,0.0368162967702326,0.9717519991210857,2.1153230649496724,-52.49716116175699,1735409976695.0
1.3111092447324149,-316.40490716435414,366.793790632545,-1207.0597957321897,0.039966070756339685,35.434899750279854,-10.662630151637883,-56.546667963572276,1735409976725.0
0.34859854514836447,483.78067515504574,-77.80151562061087,446.6194588001657,0.016295115660159187,-11.224100321487635,5.7494605071966305,-15.59122496312595,1735409976754.0
-0.4037101373587023,-129.83393382124333,-725.3440218009977,148.69420114483952,0.02755301342889349,27.40225138524376,-5.034993580361213,33.59616805621566,1735409976785.0
0.9603710852984837,-471.9906020274223,-68.80800733525103,535.7993444685412,0.03273937454261361,1.2788931239455046,-3.866811481704578,4.172428574448141,1735409976815.0
1.1781608156734944,-119.41259588585052,-351.4964276603401,882.1563999709281,0.019158793944368115,31.24835686197884,-14.309168800723679,3.9850848876641507,1735409976845.0
1.431766181086151,157.2195172323527,-23.04004503144688,667.2413193681134,0.003717246250118624,-14.003294956129022,17.436163621647662,9.130454243605362,1735409976876.0
0.46982349953029034,-846.3738615825974,-480.0131109717122,1061.6063558612225,0.024681228944717477,10.340810112874227,-11.212566297009168,20.488863659569976,1735409976905.0
1.610688480901101,-367.9782054627352,-99.59423711247692,1004.26889842856,0.027319496934531156,50.4663061623413,2.3602883834717243,90.84277747203951,1735409976935.0
1.468580392407138,234.73249571895497,-462.84153719641466,-816.4883519585424,0.042847939404006156,-13.135970195329733,10.373571149491802,-6.474480409607857,1735409976965.0
1.1652425112012947,1143.4190580145034,-1275.655959853395,1736.6513297159152,0.06284796591685961,-1.7251446089958211,1.156756400502155,-44.96475287940536,1735409976995.0
1.2844719252540278,62.09265895976671,-1397.6210621490989,-188.84931259376026,0.016921289763105946,19.545361130938595,2.863076457281007,-36.780137247706975,1735409977025.0
1.8735253117080084,-476.2362168467922,-448.6339326641507,168.7998894290805,0.01686093252707149,-21.742966334014547,12.657202491597229,-3.689588778449199,1735409977055.0
0.7857762848901182,-456.0962114733682,452.0363797531038,1969.304768080932,0.004519228728472983,30.659026283949785,-5.6513299557564025,-10.790588219116513,1735409977085.0
0.8843032598734256,174.91115680631248,-91.87292377122847,720.8918697383981,-0.02338929508585607,9.361399467734172,5.5294272102112325,18.206577219708066,1735409977115.0
0.9359060267840006,-324.1504863789106,386.88674814371836,2121.8462205081746,0.015537916625111448,1.5813171351326603,-5.260672264363447,30.331129824745716,1735409977146.0
1.2899595080437098,-943.7970550652975,387.91876355272825,1559.9189511941327,0.0047870871616219664,34.912119934713516,-13.720398468318113,-25.721604130535667,1735409977175.0
0.6984638827749069,1062.813118086652,-310.2331526165149,773.1352806041104,0.02175616735069903,-39.169287349807256,-5.418887496885819,-17.238841224187617,1735409977205.0
1.59893586617053,-68.80576348793474,180.35940921765695,1374.6024529830793,-0.011525554387315062,7.580876496343229,-12.879609092166838,13.167053960912375,1735409977235.0
0.5417050751984933,255.67659568033002,-34.51691686786174,-318.7552368099002,0.010732121949132402,46.79823746880004,8.09591886517335,39.253458307148804,1735409977264.0
0.5363056256598752,-660.7326369619707,-1500.250199003702,1025.6778595499804,0.011004202399008203,12.756965957886129,-5.631667271614084,50.14324616547171,1735409977295.0
0.6796711262605726,447.71251466895774,57.52453659302108,392.66509333585975,6.7015344446128e-05,-61.03915707790777,-17.63175427973628,8.666711034870715,1735409977325.0
0.6569367461292834,-403.82297255677076,20.12868098863578,549.6869437480069,0.030952166661042415,44.349530012682756,1.2114746890190364,33.761857946531755,1735409977355.0
2.205953888636366,-44.79768931228017,-420.72365030394803,443.9285439827895,0.016965139939401176,-21.09374279224329,-23.775354621043693,18.368579611805878,1735409977385.0
1.3835393217897487,-107.9425384377531,-1103.965622320929,204.69182280644782,0.0022745390658885593,62.66662084255937,-2.724908736134199,-10.292900069553898,1735409977415.0
0.3296789536070186,-171.87522796296776,-465.57307724228474,1755.3980225410444,0.010423418603729041,7.22685171290327,-9.947982068736799,38.51088806942868,1735409977444.0
0.9667704718132033,-82.76754731230605,-302.68841005390897,703.0388092230845,-0.011404717836769395,9.977084075752948,8.309197551931582,19.239003779216688,1735409977475.0
0.4652315928601599,-681.9838323951078,-689.743861327609,1540.288570056597,0.010984760398689385,-46.063304821258534,-12.744235213489318,0.362255296251476,1735409977505.0
0.27392063128248934,689.4921399758957,-659.4832143804365,262.7579248212436,0.01698037596904433,-15.496387266476887,-3.2895484767590957,7.471588677564557,1735409977535.0
0.809083974036997,-290.19364609745105,-539.6903966503909,1915.7329290191356,0.011438776078056982,-21.93369720519064,8.540181732811305,12.40309643573033,1735409977565.0
0.8363058264886871,-533.9943723082833,-873.7313673965185,7.716068993557315,0.01398797493279692,40.91242985580423,-20.841723765868885,-44.44578096060734,1735409977594.0
0.22477473823481986,226.68040268333039,53.6926752956453,1138.5014154673197,-0.0012239404048793572,57.312444604863664,-10.88702927770022,1.4556696560975464,1735409977625.0
1.7211987018729433,-149.57224684608894,-69.68634096295943,1590.6894601020897,0.009202913723476041,13.462762253751167,-2.6085107492749855,31.482489907868608,1735409977655.0
1.5514427913914872,-324.5286001981033,-843.462576016184,830.294284737561,0.03140488146410585,-15.995845148548963,-10.796167637965846,-11.656586460041542,1735409977685.0
0.8335445634619314,-463.0760284108444,-507.37443593557066,1786.4829111742229,-0.0010713726529896894,26.61764617205118,-7.703324456179954,-18.073979098598294,1735409977715.0
1.597129526503219,781.2660618647345,-674.0560620919539,2157.411983958816,0.017432602926542647,-56.53445603388782,-20.79661270868302,-37.23906378274304,1735409977745.0
1.0387984263179635,-343.06092459652865,-850.599932623423,2040.8498264938066,0.02630069618642944,6.1760214315253545,-12.300025468097623,-73.88229480889522,1735409977774.0
1.268760534142411,703.2000372727998,-828.370957362435,-320.2609536914165,0.004762160621656313,-11.15842089813271,12.933057762171071,25.289086162604626,1735409977805.0
1.1118841033998497,703.1954456315677,-664.8385569974348,78.1523454156171,0.015164416676648583,1.0446741067764451,8.806152763087916,13.008596972240632,1735409977835.0
0.774232612612593,-209.94266683558465,-769.6607925362973,544.2667414820269,0.00523404604300055,20.862864917997857,-4.241688398870194,-14.644985416226573,1735409977868.0
1.2103275202803765,-653.4072584451765,-17.97542527194554,1225.544731694064,0.03892016622940417,41.15879197283124,-14.337481200666591,18.077627268167596,1735409977896.0
1.322413199690747,467.79111880605376,-443.49314318011216,52.86277615302629,0.0470851763896988,-9.68356920546685,-10.300567883980175,37.302016140513814,1735409977954.0
0.941262353600292,654.6559195316606,-537.4667754951822,668.7758081284164,0.02637071564730776,16.27931901282532,-0.5605265409450944,-49.3651197940402,1735409977956.0
0.6010329257021425,-348.89509229538527,-472.86257813790814,582.635505044464,0.018107187441218867,-16.309204362758713,-2.394951300583306,-33.23903454836905,1735409977956.0
