Acc_Betrag,Acc_X,Acc_Y,Acc_Z,Ori_Betrag,Ori_X,Ori_Y,Ori_Z,Timestamp
0.7147800794004908,-493.93671026364154,365.14039382361926,-757.9444617389353,0.04303453201522756,45.440032060908194,-8.7531162074151,-29.792215815910758,1735409770805.0
0.9974984587686054,-1487.2240488281122,206.481912455867,-1075.150191694806,0.040853738124445066,68.48000802861371,-28.50556587870723,-18.350831531792775,1735409770830.0
0.7093598420825109,-1074.0887656726127,858.6825407592037,739.0671387553642,0.03699016389387149,68.57351516067378,7.778589839696595,-26.989332757469377,1735409770891.0
1.5168269678213218,-1011.9046142617091,261.28008425473547,2.406744893589945,0.05023441139434724,63.595937957250214,-13.815949587369436,-13.869332373850455,1735409770920.0
1.0442386001070083,33.52603400732005,-484.93407099012984,276.19624178121677,0.06235596793829258,19.019505181908947,5.241829376550433,52.79029250136304,1735409770950.0
1.195276845528448,-924.7117444226915,46.73292631665919,643.9757454925907,0.03433578487986741,32.261799771265146,-9.494587260054185,21.218073946293625,1735409770980.0
1.0551050633567072,-384.83732776201373,1042.050196537611,-234.0492604195218,0.030268189394574273,68.57550645933978,-12.352361480953611,10.436736115265703,1735409771010.0
0.17832842766348656,-1353.4638998867986,-129.16976423227686,-338.23163885451766,0.027530531484163453,33.32792597775608,1.6505089249081237,-20.072270780713964,1735409771040.0
0.7215153789685669,-708.2207445491608,7.720576761961354,-23.01300917188351,0.04462548660211326,33.587730826368556,-21.223764472067746,0.3544247343832083,1735409771070.0
0.7642056197118927,-2210.890912461088,-324.189491077217,-366.0534869794442,0.029735915561256324,95.57137542477213,-23.624293515863393,-20.054442463406705,1735409771100.0
1.5917084270842188,-1406.5788287558848,452.53415035474836,453.5922213621076,0.05304157139062858,26.941737277167853,-4.344926611084654,33.591074389354354,1735409771129.0
1.2559771939981104,126.69649761405321,116.12464543835728,-1082.8972988643786,0.03710667641817814,54.53329662935469,-4.218678955949796,16.586275593678174,1735409771160.0
1.0326889267759787,-930.0307219827539,-981.1787095901693,-636.130615346217,0.030452678778006118,49.23701297663284,-7.595203716048277,6.442206699501259,1735409771191.0
0.3718257688439732,-1029.1610369533687,-1127.3928736113949,-1476.7449582192723,0.03866519936686263,16.963263960365367,6.60073120313416,75.06394970179846,1735409771220.0
1.4173285520440173,-1132.049170645283,539.7718606016105,-95.57212281099021,0.026335512872743022,14.201000290518422,-20.50876201746389,15.978052192591402,1735409771250.0
0.8289868274625102,-1290.3180297169006,-440.1613077260102,-1108.6200475979113,0.05189323603568742,44.01394682794616,-12.858083237690604,-71.18093727377853,1735409771280.0
1.1871001066243299,-627.5155135046175,-412.637516719902,-1474.3942023520658,0.06622167908417752,26.32074711532948,-4.759923161355369,4.124829490922913,1735409771310.0
0.4795434839948143,-415.51490914224036,-244.24584023029024,-1036.36939391339,0.07135508532499825,-44.4631842133755,8.477956974475894,-35.21167359771965,1735409771340.0
-0.07888547513323448,-54.11929280030262,-564.1034491209023,-46.874938569737026,0.04424654275740847,16.476430951067137,-6.20331962310053,29.937591843228965,1735409771370.0
-0.11245518320440422,-173.05606714606077,342.5223344511583,397.49757845316833,0.031173838225896266,-69.70787897749956,8.038196322481214,-32.00261648310441,1735409771400.0
0.013805114623646864,-381.9466216994607,645.5664171786194,699.4308045161924,0.051602453082930266,-47.232678520649245,-4.86645560836554,-14.728031892392588,1735409771430.0
-0.030072200131947134,165.1357859896903,330.465489999566,-151.87065452480067,0.0828882773828348,-48.994248077996204,-6.699682655915616,-12.146644251580792,1735409771460.0
0.7706043191766162,786.0715807714516,542.79017196223,-534.6127528024888,0.06461975164443834,-82.6815234522416,-6.317351418497476,-48.393146380248176,1735409771489.0
0.3687576747515096,860.9002146007024,417.3076803054482,-418.98268754646534,0.05112099531045029,-37.45286305964537,1.906010865177021,21.403241705972263,1735409771519.0
0.4610069703825349,-41.642220803927714,345.9939084299864,-1288.9221896034244,0.05586081777432133,9.005519030472207,-6.292031086586726,-18.54858902231492,1735409771549.0
-0.6438851827481993,-569.9075309533417,103.90491768651465,-202.1238422298866,0.029405588840505304,45.86840296961491,4.402868167582777,-8.137709142306617,1735409771579.0
-0.40946010440707925,-38.434527559773294,-882.8638207444974,-363.90339724122754,0.03542251809009754,129.73422366658582,-3.3682589226631956,41.334227446216595,1735409771609.0
-0.09497876520314197,-603.8408657442559,948.5373024670821,-691.2604278500013,0.05326942873746212,0.8626067629303833,-6.041935737076772,5.6432812959842416,1735409771639.0
1.5917487018056211,75.55042030662435,1315.65046315376,353.97087054588553,0.016672362414807924,83.45169717924716,-16.523620434768848,43.66058794493243,1735409771669.0
-0.31966001797156174,-634.8010388001148,1190.8142881203974,632.9198134767407,0.05158566743162213,32.12316662455392,-24.066718184136462,-29.68601828656711,1735409771701.0
0.8877027588864312,-116.30980310067741,790.8912853792172,-1476.955865171528,0.0640189101927393,-41.339231099959605,-30.97759820336065,-70.56944689961746,1735409771730.0
1.1205765958088996,150.61233103148214,742.7191616178173,-724.2231888313098,0.025141642257541903,35.140784534383855,4.337964219953411,-88.48361144644201,1735409771761.0
1.080775371334132,-841.2094675457881,1139.3112749574057,-270.7582263712373,0.059101066507068895,38.45769754231999,-1.814149691410713,1.8663121312303197,1735409771792.0
1.312451143756804,-493.55450003471117,311.9404252245754,-53.11742526984037,0.0657229474507102,68.88656969258861,2.5623869260011034,-37.21897648546818,1735409771821.0
0.5042598662543957,-1261.2715555642928,1167.999008794644,668.256178337019,0.0788293821711355,-72.18229379904542,-16.167832014885448,38.40201584512557,1735409771850.0
1.064303194725201,438.40525280311067,853.7019068668915,155.62562548557264,0.0420540889656037,-32.394881566172614,-16.714435229232897,3.2430533849640426,1735409771879.0
1.193922504222518,-247.11709873103433,514.6986956473625,-448.9338098339755,0.03979208583250753,-19.76928689693716,2.8989952394106364,-56.7394094639651,1735409771911.0
1.874088072633337,-1767.1240823626267,417.4275218896274,398.73867491472834,0.03997940853781363,-51.72686048615599,-22.684868930564612,-6.168845632505679,1735409771940.0
1.6096822637982906,-930.4221626343922,1206.7937988155813,-830.9643065843841,0.048474634427768976,57.18389983818648,-5.098598041336896,-2.083448547866464,1735409771969.0
0.4215879876251805,-252.6641060316286,1461.0026387182666,908.4630233891587,0.04262405456523143,48.0422544375358,-20.44610569431136,-9.394989519665529,1735409771999.0
0.876102830528514,-1732.9163820275032,1392.727088976444,-134.9407263590368,0.05282691758867172,37.4951392807794,-8.43947930956799,21.03895295198444,1735409772029.0
0.032245297714076804,165.2119545322389,1405.1112965877821,-252.5596067554645,0.025812880305580654,49.83465287367656,-17.674243332280863,45.0161113912459,1735409772059.0
0.3854497927380016,-849.4314312212739,835.8809603576165,-291.70400092258404,0.06752476915743164,-44.7931833848036,-16.537824195277683,-41.78102152973473,1735409772089.0
1.1533167230436678,-979.9111439468362,1043.3245764911157,-722.5277238337678,0.0833259262067503,-66.05780576282976,-16.450708614766885,-7.32308641488183,1735409772120.0
1.3777085810665153,180.22296237462797,1871.0808320639053,71.67088921129448,0.030826670239830687,-13.261835130912914,-17.094084693787103,-2.5171032205691013,1735409772149.0
1.6246551043983386,-514.5617147136134,405.5215327485198,16.826431858306535,0.040191306330476136,-52.008175809327454,-12.36046179360506,-39.29422950101052,1735409772181.0
1.3523602155089025,-919.6176841964043,1025.139165592399,-618.5013630234762,0.0758221882658917,3.930901800874892,2.2119287110868173,17.133044504852148,1735409772211.0
0.857035469345563,-938.2615303006229,929.5863950668297,242.22562067075881,0.011411207006429995,-81.8344777606819,-10.44652377264122,-24.122282697085613,1735409772240.0
0.9122695209140589,-1140.2111349667446,714.8124777796064,122.29186151057979,0.06385949835139437,-65.58572395538906,-17.675634583209487,-11.838464736713556,1735409772270.0
1.5417102010435717,-2041.3768056962106,279.85855650167264,-2.0982477297740445,0.05004268724521681,-25.76205126107103,-28.812023478153105,-20.77420346166423,1735409772300.0
1.0671126727326758,-609.1086143838113,962.6239860920514,-492.1442442299682,0.023123834123375125,5.838995945947978,-38.64328472054646,2.0140566170938285,1735409772331.0
1.456074670202737,-206.8753678555667,506.8213269191809,-61.09535524276997,0.06683734931665447,60.03281086911873,-16.18166993024913,72.77905388841118,1735409772360.0
0.4058409127363647,-1155.2556364228278,549.855067479261,293.5917767281946,0.027980295404418005,-9.328243989856029,-35.96040192118087,27.958865671493825,1735409772390.0
1.2377487424868598,120.04029459940205,1381.6470131170413,31.092228760695434,0.042876230247314906,-20.651082007938154,-25.185608234973934,58.821687700723245,1735409772420.0
0.1376081375146424,-698.3016673417703,1311.1598868570095,-951.8242947684151,0.04107853029774165,96.19028234615658,-8.23538286784382,40.96694641076303,1735409772450.0
1.3586872488374488,-50.997578062258526,717.1946066663077,1149.0099053838583,0.06511093075496051,-64.28178873207513,-24.677065785324494,13.516939004450743,1735409772480.0
0.9510104453710791,-1157.0251234733282,2261.087977781425,-53.22105499417873,0.05151458769934641,-74.32471129187417,-15.453413110367956,-20.171815659303864,1735409772510.0
1.3171504412629313,-218.15681422490258,881.5626166177515,97.06851394403807,0.025705702668135252,-27.59637944156236,-14.76587680158787,-37.669726617777556,1735409772540.0
0.8967289501857623,-1006.7436822690802,849.999447422462,-731.6902453085538,0.05301250699195856,-60.212225848460776,-14.857761251668064,13.401406154767312,1735409772570.0
0.8864543374459667,453.98623497939616,1024.0946317086455,-66.53745535559644,0.027804635335955792,-47.29255847005804,-17.960771860880854,1.684410736311568,1735409772600.0
0.7154718841393144,-1341.536563795435,875.7461398918718,578.8826479714286,0.06460759885185009,-27.274258001752788,-16.99425851392741,-0.10897348258218553,1735409772630.0
0.8567461940874711,-1071.7609775497667,-116.8192382298829,634.0375226047536,0.052011518069658674,-80.03831220835986,-15.615497062534692,-7.5636686361305365,1735409772661.0
0.3948953499225428,-1037.657576541034,572.6618164047661,-944.015123721071,0.044354095721777335,-81.1606877861382,-24.517804988510896,12.167054070896395,1735409772690.0
0.4245301088344252,-553.6933848917274,805.6439338973167,106.65498988235291,0.047064502313774834,42.73625515755594,-11.938168454172803,-36.99691274538518,1735409772720.0
0.4740786893507618,687.8821347813489,1089.7266002179103,1558.0893808372293,0.10549066979723226,33.36770740924106,-6.349949557162747,4.155652254127169,1735409772750.0
1.1430868832860148,-54.03103905792307,310.1303922582361,683.2038412214905,0.07352469953038564,-21.48110023172088,-20.954459505603936,72.41208015901458,1735409772781.0
0.37861531310867236,-1435.3787130166006,1716.4882750540748,616.8309675172095,0.05179043743294139,-107.994042459979,5.444801919019582,41.91668733547024,1735409772810.0
0.26069239871780137,-968.0806591853261,931.0406997714981,599.6904015515529,0.04984517649134532,-51.122558899897896,-22.65179558114684,8.793472438815504,1735409772841.0
0.14895967073145966,-267.5869068519111,849.3044813375024,25.496653725708,0.06285035430960878,55.92328882491291,-12.60224769379415,12.51797422072247,1735409772869.0
0.7851848817024443,-381.8549336331757,1756.8329665400793,-915.2489473832165,0.07130659856290206,52.877890734028846,-14.141155610071166,14.1398602285958,1735409772869.0
