Acc_Betrag,Acc_X,Acc_Y,Acc_Z,Ori_Betrag,Ori_X,Ori_Y,Ori_Z,Timestamp
1.11078581761118,591.5812149668752,-164.13230645525005,966.8199448293702,0.025393804933529513,27.88854977858504,-8.319589778834212,33.74619971162198,1735409818712.0
0.8695253620104809,1184.75311673213,-288.32063152595686,1781.693714603645,0.017607737295385957,-52.14549041831533,-1.22706284958044,64.74699196054931,1735409818741.0
0.4081140761851292,852.6250860004563,126.4859998616362,585.3292961354532,0.000521507785944746,-7.038455078953406,-9.15550402444125,48.98802661895193,1735409818772.0
1.302130176826259,411.9175717140292,722.7537960611603,172.99479156392806,0.02806684177554642,-0.868918337386333,-8.646525879509179,29.923857614560234,1735409818802.0
1.2515974100396017,86.58739897963949,802.8525888446669,1168.0199678885106,-0.014324198950795753,5.8214630284637945,6.232555485308783,55.83208715144162,1735409818831.0
0.7245903869400208,-284.01731264508635,887.7244740935255,1064.8229630345415,0.013737729952476671,-1.9579068644152002,-7.09633355311556,1.9070881849533974,1735409818861.0
0.9977059999520014,794.1488276503094,911.212739189131,864.9049728041,0.01401593093533564,-1.563149849107658,7.240512737204044,1.2118726758324985,1735409818891.0
0.860038917493547,730.342631494804,476.57454116815586,835.2963309702865,-0.023842597279111748,12.344200443736769,-20.853289153024647,-15.537336546715252,1735409818921.0
1.0223784435373,352.4051523463644,1250.9739242698424,282.0101998963916,0.022922915420117006,-31.206076328735644,-3.665864722627021,-3.9672486908505373,1735409818950.0
0.477844157373559,778.4484172263537,-106.39670239138331,908.6407241412635,0.044716720863696394,7.284186953902312,-0.4280553074856681,16.147366168442662,1735409818982.0
0.03506013379099504,537.223721051402,162.6238419048861,1851.3483377619514,0.0229777238755855,-16.661279771972247,-0.23453596570973656,11.524050733804465,1735409819011.0
2.0528804673541132,1379.6341010281758,776.3268672435797,864.9783047345738,0.0023627668204130228,-58.7079733906657,-5.684037347190918,-52.54759451162445,1735409819042.0
0.6185967341915947,-377.326910417499,573.5536522452729,996.1010441885124,-0.0038855092213459057,38.29985576411012,-28.542337986133173,-22.735262200055782,1735409819072.0
0.53602617146338,907.8082759886106,681.0672245452877,925.775395051822,0.006360370021451123,31.95423600227131,-14.964152126234154,8.34532508189691,1735409819102.0
1.326994948340663,689.3207512018096,1428.1479607178508,117.38906868066852,0.07426168018361347,28.16286422433184,2.1795581537072373,-73.80287658735713,1735409819132.0
-0.1671608170050387,-331.18579966163026,491.23168566786813,295.35356465339595,0.02541964674124988,30.404183266498883,-17.35233857512656,-26.606311173637437,1735409819162.0
0.10896120700027251,-41.7070836300839,-174.06196639328437,1858.1876464260013,0.03480527217307318,13.511589389843252,-17.076301106255595,35.12488136223984,1735409819191.0
0.07575060428165198,41.27022441152123,-201.2572961521568,957.8607840358604,0.027400337329327985,10.234437878943728,-2.916490659174329,-50.84408464468819,1735409819222.0
0.7669273146493816,-99.9179322962384,45.25858960699842,339.8499283239059,0.06462820407349684,-4.143939079079699,-9.25520015666588,37.6249804696628,1735409819252.0
-0.01082696400683876,676.5381461526358,-408.1475511203575,-844.3290555709442,0.024152357207937073,-8.349452162114318,-12.866438260904841,-36.393127401998846,1735409819281.0
0.18191952416213303,39.18045274664925,-196.9164907342735,547.3690661930738,0.02717610344992549,-28.38821993985755,-3.2776143519783094,-47.50540222449344,1735409819311.0
-0.14134653845229495,-184.84024289859445,-142.99987031869495,859.9438300025092,0.02515166882627055,-20.342072961692736,1.5954428509163172,-21.48146061889377,1735409819342.0
-0.019832187780978935,1096.1545525228782,188.96223864346652,31.122776858247256,0.008731660524054396,-30.69136996410264,-17.712948795566895,-32.42387189488943,1735409819371.0
0.6146195098889098,254.9283871562179,37.016435926310685,84.19284302739958,0.019464362711304042,-18.71627998726271,-21.44661114098055,-35.367397259047166,1735409819402.0
0.9966795202619758,1018.5850340881015,995.5375244003495,1412.5935916197764,0.04753127042547174,-44.18683164233631,-14.812804158553117,10.022630220400401,1735409819430.0
1.5558748804400884,454.2964482723058,666.7201930580848,2096.185019693056,0.010172757528745838,70.41500898460764,3.1180902156664807,-9.806842544228793,1735409819461.0
1.599877341544849,7.917090506048794,907.480868668921,1533.6755950383672,0.014103298752236803,-7.783926198906008,-9.29081125876839,-29.007406188800317,1735409819492.0
3.45920519731703,870.4908868093182,-2651.9738472019367,2168.7834041487163,0.06886381544062714,8.011161277908204,-19.96440122244791,-12.07008663791827,1735409819522.0
3.586319410517216,2046.7937864743487,-2244.873563992989,2564.646582250819,0.05571074932275784,-11.848904695163075,-6.203014104823497,47.84807395905487,1735409819551.0
3.503858776318478,2395.821628900164,-1948.9462532914872,1500.972855519323,0.010342699179229106,4.743600540939225,-4.171418149434564,-7.419783793171896,1735409819581.0
1.9744371451189338,-645.0903673834711,66.44759352496646,1456.2501302055146,-0.004650177397958703,-45.570709667273164,-12.151546480098968,0.7061451713789455,1735409819611.0
1.4007370012139515,-615.3398288941911,-964.072932266563,1157.0442210057836,0.009240414886857201,-5.999603479522236,1.2523511563010965,53.75620876040807,1735409819641.0
0.14846277713231038,-668.7209353291896,375.35244092021946,182.4354507956068,0.0497478001026943,4.594249858056063,-4.814570830300015,52.03652138377031,1735409819671.0
2.253163040315525,-465.8746619711646,-1730.294557023687,1935.3768661195268,0.026137216190735852,-10.698108968327993,5.25985671379599,-21.1740787390256,1735409819702.0
1.3871778993375592,-932.9397234597998,-831.7827180176982,1454.6115439643856,0.0010983197573757458,15.732623519891936,21.2766777420838,-24.69954298072627,1735409819731.0
1.3859813138806567,68.23121785935501,-1307.2957417950151,1351.883003784555,0.04042344283484176,41.69056082459822,27.77772088240809,29.686182529006075,1735409819761.0
1.6663131179226798,-833.2431615128363,-1003.6695827257829,1203.8358548862764,0.01992243640081632,6.640399200377598,-9.74843123693361,-4.097892902599997,1735409819792.0
0.9825542855926525,-106.21630032520974,-133.17418316073847,1132.30896489339,0.03130848930309804,20.094853605390966,7.84921715968221,26.122925808805,1735409819822.0
0.26306144836540846,-576.1322360485758,-541.7191248566206,1646.8343248702836,0.028197942021986836,17.345982063558267,-1.261207642884695,26.14770475874366,1735409819852.0
0.974644599737472,133.4244419136684,-24.338500050227765,807.3804284526337,0.02438229072221336,-30.697175220442077,-6.810469261868,-4.065094568916816,1735409819882.0
1.0317430039057076,93.26138220858907,175.05049414662955,740.793693500658,0.00914352436418057,28.671596000023406,-1.49203699738016,-24.73467065612235,1735409819912.0
0.1441188396566082,524.98802364696,-73.15636252278563,1247.1096660266278,-0.011626053464819628,23.600801689010723,5.091812921459199,-31.305661422800544,1735409819942.0
1.2463306534774983,-318.8054212932351,-334.5510700779086,918.6847092731978,-0.0118730532079,28.450822774790346,-6.4310068717329925,33.47364436991791,1735409819972.0
0.7241172998428627,-591.5735412943957,-27.39693811772389,469.8948984810712,0.023758470345357288,-56.59163885830309,2.159039939960205,18.482140993129832,1735409820002.0
1.1321762428445659,208.71544031472473,-645.6455156177495,736.7063018199899,0.008090063788956397,17.688000798061395,10.976384146485621,-22.541557234824047,1735409820032.0
0.7287904834959505,-569.5155869633934,-1146.259790607402,1450.5887676079467,-0.011126542905671253,28.692868332659206,-19.52019467648926,4.673680528637151,1735409820062.0
0.6448475941564533,-415.38069292954816,-45.11864213993505,992.4599949324418,-0.01890986732536083,-4.108721684234094,-6.432739484634267,-19.979291625947237,1735409820092.0
1.282929310980697,179.75175152396696,-1227.508696393581,940.1766705789107,0.014873061869721054,7.158034501993829,-3.6447530543052356,-19.538186451677298,1735409820122.0
1.6563032133117463,-1429.7200827075312,-389.16451654643976,697.023177259004,-0.015390292700102871,16.359305944137752,4.166639335734125,2.7275709151963783,1735409820151.0
0.7235182895683694,102.91858995442217,-561.7423134167307,1729.0948121479796,0.02005956960814771,-4.750105989443827,4.715559676145006,35.89253255034719,1735409820180.0
0.5837069430927082,682.8012542696525,-215.92017434765336,-779.1142111047523,0.0023575376585659264,14.235604602106664,-14.844034103844056,-3.819128317916538,1735409820212.0
0.9362059932279283,-130.35894973997117,-430.56663635444846,461.08186109527537,0.013808705069439188,23.954911543064636,1.2387122216602147,-10.260866361526423,1735409820242.0
1.437519101511742,94.52701295317729,-673.4991213829412,2363.2546389115732,-0.015049253009721477,62.760114647811434,-5.371030415538888,10.068827456941065,1735409820272.0
-0.07116506339799444,614.4317408291209,-259.913179219073,-445.65425662379107,-0.0046278018001639065,22.7176190345916,-1.4275616193854215,8.125713745951066,1735409820301.0
0.8821838694094697,368.0744556322005,-882.9370086771966,1648.5332570750243,0.03968832524226449,-33.75897241515289,0.2850783054782666,-20.773015905572883,1735409820332.0
1.583064016095579,-42.975622557343726,348.372968487094,891.5389720405982,0.012815886019861753,8.222726605103137,-0.9549443609152819,4.853884659805386,1735409820362.0
0.6473356248081035,-776.6053436894246,-728.0811647932278,1969.1486083357959,0.027817339143521757,0.7159437232914376,-9.219105613307583,16.936857309119542,1735409820392.0
1.3024638066628964,166.60957963290642,-1114.3475020458086,-301.759695125156,0.022297267841163173,29.594728725611606,-23.562202474182868,-13.119471977084611,1735409820421.0
0.6291284849628584,-67.03425222072829,-123.45114078305818,2076.51205868508,0.02286802092616267,-12.162377364589725,6.49562271956101,-26.09831619411481,1735409820452.0
1.5765587316810221,-115.6633034952064,716.5135613689828,-198.03593927320298,0.005617018979427374,-1.1767988967667646,-11.364998933209575,-18.58419591050712,1735409820482.0
0.9843490398822409,165.2389847777393,-145.8167753935981,468.0359897456133,0.020404726142658956,3.4758440973438085,17.65662816371976,-81.01809715978756,1735409820511.0
0.8950920247939783,903.5959244824365,-18.387704634700356,669.2476587014331,0.010116905477267709,-34.53109373732516,-2.983056146869548,-37.33412958184985,1735409820542.0
0.6336689913089417,382.9480749636306,37.03033235364302,1923.7986635309821,0.027884470089303143,-32.59538886346019,-0.44940076693438824,-12.859362478697246,1735409820571.0
1.2747560999768992,-433.17796909009775,-92.92696692299856,41.61476518746042,0.020189156421243346,-17.55351660129177,1.7920088497614826,19.88642235090422,1735409820602.0
0.766911263990583,-367.9260016052841,286.85797484552904,823.2148169855827,0.01641310208823056,11.540773236701213,-6.808182424333778,-98.39329287207903,1735409820631.0
0.3784883654108586,-309.8821339462776,12.57723037437836,111.06950532527867,0.04453720634389724,-8.899384978138267,-11.458839807342603,-48.58161089441836,1735409820661.0
1.1736959805832872,-94.27126680040531,354.8189462432846,1484.8933403136843,0.06045206946009297,21.75228055378351,3.6986101106123783,18.542747901807402,1735409820690.0
1.1305161160339927,232.9936389712663,65.9897648109415,1781.0667919369575,0.026862653142598614,-39.2221754732967,4.973542624312641,-30.47402644609157,1735409820722.0
0.11082534569498226,-677.3529489504787,-584.4810513404043,933.5514772926537,0.031001394752774407,-1.7801111515761021,3.5679046791190965,-19.829279712404027,1735409820752.0
1.1656966606358286,-77.34829122741269,-946.8199599526203,754.7129004968992,0.060070986856215716,19.642323588890836,-13.313609433081517,-15.622554149984591,1735409820752.0
