Acc_Betrag,Acc_X,Acc_Y,Acc_Z,Ori_Betrag,Ori_X,Ori_Y,Ori_Z,Timestamp
1.091127499419824,-496.12952810708856,916.7106728461204,35.998638377016874,0.04981817864138745,0.3837063149422919,9.81545779744203,-10.946348219374794,1735409480332.0
1.3326313955023077,-367.8152361278583,495.02087846700687,343.2424077447813,0.05079045081664083,58.46808692302819,-3.1162707509745147,-15.740231369786756,1735409480362.0
0.30608675526240814,-505.87477330141184,1381.7119802665209,666.6570990507447,0.05373734394021423,-5.630216310857724,-17.4961423990043,-4.410300918423374,1735409480392.0
0.18543932628855386,-1510.6091395209041,981.1172221761152,670.4209155505049,0.04147614392459638,-18.27588708749199,-3.239827541664404,-66.92196780880658,1735409480422.0
1.0856347054250342,-596.7447130437874,729.1477245055926,-681.7603858708197,0.04350736324434689,14.647078706713767,-25.653127342212734,-36.279358448692264,1735409480452.0
1.03329957279088,-1576.7664585734217,1256.4001420603267,115.97755846034728,0.0394918204364907,9.607731403106436,-18.24481460532986,-61.50410151021596,1735409480482.0
1.3659984133107568,-82.6506357338942,706.7612063629975,-1352.6264557170348,0.046157815953994014,22.450766147214196,-14.967415384671016,-44.45173524384233,1735409480513.0
0.13794793078527534,-1014.4706037150061,564.4673298135506,-336.01787870692016,0.03309883008307089,-24.365748647236785,-0.8426121370177952,-17.854979357657378,1735409480543.0
2.166690256107251,-1178.886140529203,38.57444972441738,-926.8874386288577,0.06324028295016322,-1.8342551018349664,-17.983386685459937,-50.0073363380631,1735409480573.0
0.9839203990359282,-1209.0585372488176,-103.07024233576738,260.0600499851736,0.053191188332238154,10.47234102173758,-24.554286674713317,-13.24152015031342,1735409480603.0
0.8013557226063894,-651.1635919451672,1574.8490828767492,-24.446365003217338,0.049875731601859576,-34.20701401986302,-2.0900903807079008,58.20463215446246,1735409480633.0
1.1516989994222089,-1148.9073155055871,469.4208210598591,647.4820979226034,0.030271724678781753,-10.6683147373307,-17.485278097870335,13.929987587588215,1735409480663.0
0.5416208773972894,-80.63720955922633,120.51715398875979,-315.0075410953077,0.046217563115557005,-23.666315117962462,-18.444921375872653,64.62081597352808,1735409480693.0
0.10172829136649841,-552.6929234623243,494.93313180205047,-271.5122685632312,0.015132131369185443,20.179035769359306,-16.625903230788147,38.567250973733806,1735409480722.0
0.12309438706644271,-946.0600387092272,-17.4889118605048,-210.44570989690772,0.02824438228683658,20.188906172539536,-16.747066138460433,7.358469701038892,1735409480753.0
0.49804314099946617,-717.8173125802805,858.1636384118798,-1854.461114415133,0.053430140863164804,17.09465965716341,-8.942894447994842,64.04893153597479,1735409480783.0
0.2390998320823121,-1815.5943708631216,1691.0679781133867,144.80236397632174,0.02194012765850019,-22.586338426646808,-1.8795652493075323,59.131466951054975,1735409480813.0
1.1138331382542768,-731.563576718384,229.76522093148276,-257.1311485504865,0.013498748996864714,-11.179688791997917,-6.4002662564421495,24.52654075927118,1735409480843.0
1.585507516633577,-387.1399522735454,848.978559626948,-526.1923768909157,0.023049322076649715,4.218475682998438,-29.07988442718284,-7.652791588321248,1735409480873.0
-0.35201949854342673,-126.69886490988961,830.4942844434657,-111.9576681417371,0.0399730940464468,-10.242686774222975,-30.028837208919814,-21.5227361342359,1735409480903.0
0.11539193820953031,-914.128899610565,808.4861048221173,-489.6145339040111,0.04994367490557132,109.30262398754324,-26.65347010889904,-38.479964741631875,1735409480933.0
0.09131139640721453,-1197.8980862220744,731.5876214368456,-243.506492898102,0.04441703763102314,71.39861711971817,-19.769751652295657,-34.57582626398652,1735409480963.0
0.8531754280547494,-1176.6719783029832,1852.7208771208427,-342.740290831614,0.0728753976625395,27.211605521904612,10.995054866737927,-55.70328490040485,1735409480993.0
0.26099074299472214,-781.8489073053198,849.8498219528216,-441.42241022460047,0.03734790388733024,33.9280692366845,-7.981709205829816,-67.3751896821112,1735409481023.0
0.4253318412035499,-598.8619259652893,251.67337598723984,-872.0239115148989,0.02815529095072754,34.63834713077092,-28.571824843156953,-105.18298849029628,1735409481053.0
-0.1998160873003722,-1366.5115697058523,658.6582262702202,-1126.3123337547936,0.04849206823991246,37.068062923788204,18.940944238519712,-37.492199140695426,1735409481083.0
0.9299584330074722,-865.0326967656425,979.6602044278098,351.0930165325789,0.07791708320174692,72.04663403326634,18.01925096592085,15.09756419580351,1735409481113.0
0.6016482274387509,1045.3714510682876,76.8961934374608,-569.2671396965977,0.0414258004135821,-14.238586232605204,3.380667171772348,47.38463254837188,1735409481143.0
0.3224621685601608,535.4524054686271,-108.07002971228806,-139.4382444816867,0.012025620737795081,7.232470669811775,-17.41361980078149,-16.929302359316083,1735409481173.0
0.4959679745984505,117.27417698512359,-747.6885904721255,116.01742859103877,0.04009077536820803,17.539021070020283,-2.313290316799921,-14.535248670875173,1735409481203.0
-0.6330897062088766,-1236.6301252054445,-380.9762202113088,-418.74012512922576,0.060255756843374884,-0.627807951117866,-8.368387412994082,88.32849407469946,1735409481232.0
-0.02693605575965939,75.76362377052655,-90.6875320603582,-577.5549801496169,0.034847320095866406,-7.072583579817138,6.355881570470297,22.43973621556426,1735409481263.0
-0.6513818317029736,-141.82940248372998,874.2769989254176,-160.4774565135036,0.02761874029204353,58.57009955855987,-17.99844293254266,-31.907565896005483,1735409481293.0
0.3854848734300456,1117.5330437663,-1297.7264816883003,1001.3329144064321,0.047841002148107006,14.539710637163987,4.835523391830136,-19.436000450826192,1735409481322.0
-0.35288630628108913,705.2341484468446,120.43255400865141,286.84423120806224,0.035085102164608334,22.330292359017747,-10.077856473116947,-41.499271113298946,1735409481353.0
-0.7618161264034913,743.2238583542435,382.10515891649123,-1153.8284157955493,0.035706281502228814,19.69254367945136,-10.900802872424332,-32.57572593838249,1735409481383.0
-0.01452646009278584,190.44966397466806,323.90277688883924,781.9091310578793,0.01813161458185257,29.479891351689602,-23.9953826941742,-21.76251863693157,1735409481413.0
-0.7402381291412325,-294.6153379674491,-4.291394977947444,309.8363627709067,0.05430677027672913,-16.999065702011883,-10.085542395392292,45.43350406979187,1735409481443.0
1.6871966586997122,459.9410173629417,-16.62240100661333,-23.37573506606151,0.05417411765055905,-3.3064059497897187,-18.28992035876282,0.3215379255512616,1735409481473.0
1.3973944792283444,547.8441035090262,334.24095468269786,573.54421841472,0.0184535160800426,15.999800621861583,-7.434552257599004,-6.710753416789581,1735409481502.0
0.5084305863328153,1077.8325488206365,664.5371060184547,133.6034011010311,0.029143660855815295,20.604480009020612,-7.003788187083526,32.435578147739825,1735409481533.0
1.664965957756693,-1305.6862966993697,-186.23824864347415,-315.4494553139747,0.038142054217599225,56.95759420043575,2.383105118527534,-0.8533863377649311,1735409481563.0
0.18084576475252379,-2035.1226821571559,-615.1817294457185,597.1080785332096,0.056841720672529586,-5.271776162501823,10.698795942819169,106.26140948512034,1735409481593.0
0.8992753258426598,-2304.3107879065733,-41.39297309826986,-217.37103036938998,0.046484737707795265,12.673481477677328,-9.664586521272751,-45.2207951163722,1735409481623.0
0.32973877065506874,-697.0255709178458,-1590.4964238092562,-1585.4221483509052,0.049304350041324725,-42.807523148903854,6.701447978242382,-58.7968605450905,1735409481653.0
0.7837999902911548,-836.36013399079,-666.570655850903,-395.8652050018411,0.06332988794124213,-42.17065487846213,-17.677561231539585,-2.6045264433781554,1735409481683.0
0.040666343351586365,-142.4229737296427,-1419.9451031314638,-725.1587864306528,0.04992085153939813,32.913971870344724,-8.635580762121625,-34.23451243924021,1735409481713.0
0.9243953303407169,-1189.984780856627,-652.918002931229,-904.7091794677608,0.06184832105242211,-47.16846566426613,-18.11201743627774,18.450760194085362,1735409481773.0
1.0039990433877495,-448.15766464546965,-151.3661492355102,84.72479043643699,0.03193385933312097,47.00913216937715,-5.4793040757139995,20.044031863190945,1735409481803.0
0.8398917998212241,-940.2399625846233,-942.2058530127988,1410.787259726118,0.06546781614971661,25.22094060321671,-3.895116927721147,-54.01303648873473,1735409481833.0
1.1595214558563658,-712.1715008792697,369.1060302522112,-187.48072877879676,0.03331575371139289,36.84237133703337,-15.139543256282963,-47.209262649158916,1735409481862.0
0.47718970992128473,-1713.4321612496722,-1115.5917504401202,354.7019411125002,0.03505069902904469,26.556833614307507,-17.641610116396897,-21.66788307873218,1735409481892.0
0.36616912234955046,-774.6340586390663,47.03845108621272,291.98471212911784,0.027493279703959504,10.562010987909268,-0.9265507975616067,-10.099115849242061,1735409481924.0
0.839980036551946,-938.4240354989886,-938.5392853218863,-426.5615833601895,0.03136267862300519,40.17984433395111,-12.762362829694194,14.43306717428425,1735409481953.0
0.6060958491406345,-527.8323175545655,-1145.2093477128296,-1517.1256365073493,0.07094456658926152,0.15810265485834663,-0.09727928718552636,-64.58269821223936,1735409481983.0
0.7358734505567885,-1014.1512787205879,-635.8716466724114,-921.750096288359,0.010260580460060276,37.88262882810863,-4.449490870549709,16.164499204029216,1735409482013.0
1.8781713914043046,-1028.977062661783,-1259.6846880147293,764.655298591585,0.04745746522485742,64.55703405791404,-2.842790910942559,-8.449112996584642,1735409482044.0
0.6956139618861554,-1175.662185053354,-1024.1737624087145,-1667.4109770935959,0.05526785222009838,89.31972611379504,-11.881789961099944,-18.928004748663795,1735409482073.0
1.6451136795859553,-1254.9300194577027,-289.1114313930636,-1715.1353544030783,0.0005700324988726288,63.36328643696231,-1.9747141874356433,-28.951622420683165,1735409482103.0
1.5771574684069618,-1034.9405770949552,-555.1248514584979,-472.46993461576983,0.028761674066861212,58.45523061047159,-1.5002077738127415,-5.872315917282867,1735409482134.0
0.6099587425161743,-335.7367523751603,-602.5906532661216,-611.0396799054787,0.0376774569412688,19.595777388221315,12.599792042900406,-5.9935292707116945,1735409482163.0
2.444094255419717,-480.021282871798,-1268.805752938184,1084.1011048310363,0.04860634720555133,27.093066132426333,-1.6743207231765171,-3.2640136228858028,1735409482193.0
1.5202840577410628,668.1763702255669,-1395.9532468117109,-1113.251805096934,0.04063423823455135,16.16011047777422,-3.985161912226578,-20.07462037920466,1735409482223.0
1.516678875402038,-1104.0101534392998,-364.29572352932234,-1098.1264009747692,0.04239392793702731,52.99461342729665,-12.645470985983952,8.59073913596173,1735409482253.0
0.826024581905747,-501.85430672728853,-97.38165279917564,31.326461893287387,0.051382190688742155,36.37979796883631,1.3741422493808333,-22.77787340625806,1735409482284.0
0.8206372198991848,-1007.3213990967951,-474.6167181789922,-908.1702324779803,0.06923270144282971,17.29351541567262,-1.7247249237460092,-9.073480695966492,1735409482314.0
1.4663460747793855,-836.3661004462668,-1526.6188787033975,-1154.5242886800906,0.037245172636760505,45.35788113147895,-2.84969808378021,-19.960067209681913,1735409482344.0
1.0666587863173764,-462.88623298348097,-1213.2349205385374,-502.7956865008364,0.0503308330643036,15.476072697205176,-3.7534021051778232,33.56483968184917,1735409482374.0
1.717208647828516,-891.4097482588679,-538.9674602435792,377.8462361894725,0.043050711718946,28.715772415177778,14.983906185240432,15.23320704748173,1735409482374.0
0.2537260162899089,-1055.759449012494,182.39111608542748,-1361.9789937160385,0.020723794980379677,37.2442506758682,-4.676628820613388,-21.34702804319545,1735409482374.0
