Acc_Betrag,Acc_X,Acc_Y,Acc_Z,Ori_Betrag,Ori_X,Ori_Y,Ori_Z,Timestamp
1.3499347961592616,674.0906515684467,408.06909795842273,615.0957296336692,0.02201693771050242,8.093634665223746,-6.582247452038254,46.83843237217798,1735409818712.0
0.9914941190313622,572.9873441218065,41.918092357340385,707.932022454035,0.0015364137147012742,-5.829277834869388,-9.980399651548193,30.10562856719225,1735409818741.0
0.9720077212508061,960.5899456626931,859.2086477893544,1677.4513154877422,-0.003826665120694274,-24.04447293050512,-2.9193358721910196,77.39341546394617,1735409818772.0
0.5688570376005142,290.38370352194846,624.5116510361771,1332.3514845073264,0.019072241869086595,-72.41024177242042,-16.610353723574956,22.928001185324078,1735409818802.0
0.9203522818837004,757.3960945979168,1064.9780387779094,301.7927387923196,0.012536162649528036,-28.73619764003456,5.282594942454628,7.144201008892943,1735409818831.0
1.5571979969568168,410.80478278572815,459.0595781545195,144.1441820554296,0.006175537524699697,-1.007953393703847,-7.583366187467082,48.97083552620622,1735409818861.0
1.6212676069143683,828.060016464554,-117.08061189521146,1247.4035049178467,0.009849385075762487,9.709732076385118,3.3772383690836763,10.566268334668584,1735409818891.0
0.533929389159987,34.231521180119785,535.5812695608416,1658.4817347301077,0.008412844643558173,-30.332610442985455,-5.200569085442608,-17.09908295805087,1735409818921.0
1.1410645975961007,608.898822227764,1521.8727271237167,-96.61188493220322,0.037655753443225026,-25.01350928634506,-5.074134268938094,-18.500049171154842,1735409818950.0
1.4539342568249431,1487.0960172698528,303.82085926283906,564.0324824790519,-0.00544771295829127,14.364698024275159,-6.687851203243548,-44.060217681906856,1735409818982.0
1.3874467172761782,545.2929567068653,612.3033505528201,1295.6833311463124,0.0610247815462077,-36.83661055295577,2.386752602038898,-10.216293818427154,1735409819011.0
0.020267799411765708,-379.011798467242,175.8446392259565,868.6175062949478,0.026570299630528614,-16.33526625975323,3.092915924472426,7.591585012766753,1735409819042.0
1.2808503373988034,1079.7987624138439,928.7158095987027,524.807971704364,0.023848482627785453,-19.484802106187967,9.31918410932296,-23.30068323802173,1735409819072.0
0.7710763761139097,126.43984685219266,-136.7966194617183,1552.5795688326011,0.030815547102567908,6.9192397177878515,-14.944797638947286,-39.16794026720855,1735409819102.0
0.043517325600586854,413.55169282901215,347.8272027582385,54.48005191707894,0.035803599107953825,-32.138639351741226,-6.80366508726546,-28.970874079715067,1735409819132.0
-0.7051920425682807,321.83340390074915,233.43013848078627,161.06789233859885,0.03521689201105246,22.451527444540222,-6.912430393396599,20.689610981594544,1735409819162.0
-0.23397039669945396,257.61986283462807,783.904479299246,-870.7274265486637,0.012735454730684,-24.248909259741637,-5.061063108321825,-21.449783360440033,1735409819191.0
0.07169879919297356,-642.7725753564318,52.782445948967705,-418.79905979406294,0.05720499332479459,-42.68329570638643,-10.983321464845911,-57.79381438613712,1735409819222.0
1.2893091778731869,476.26555003167005,707.1199867497342,-875.8384556973928,0.03464905527860368,-27.79826439733575,2.8640665252313298,95.31520220509637,1735409819252.0
-0.47151678930203983,-63.80033402434033,61.10822485610414,65.20449576721701,-0.01452448302424955,-35.03586425336372,-5.565034096642151,9.92802488093798,1735409819281.0
0.32000385605628057,384.92088392734667,968.7361314914685,-1083.8046109898723,0.03214355241043137,-5.3969229465082105,-4.5673112853589215,-15.397015069018533,1735409819311.0
-0.0911059938634384,191.96608372061723,732.9705435121991,409.9207226626068,0.03821443587759466,14.321332426735625,-8.768963896998901,31.36586824974659,1735409819342.0
-0.5365528159894084,340.25608126384793,584.1484404230564,-612.9418511985333,0.02363929040197658,-36.49713526199159,-9.841971777102948,36.720495846451996,1735409819371.0
-0.2204914039558088,565.2924734776618,1395.1416361598574,-36.12941159660204,0.028450617017305693,11.385708568130077,-20.98707065019781,-93.25517170734528,1735409819402.0
0.8969827137605161,262.43717466269834,723.9444443476231,2484.8038992985576,0.01655771672593839,-12.873225424169451,-12.017512287463774,64.04048497863137,1735409819430.0
1.1940736796535945,113.2642998665342,1375.9837666481244,949.2612042236988,0.007061911952264879,42.246431758082736,10.458262331017558,18.663632384394333,1735409819461.0
1.873310786121754,1281.7965801453615,82.36790003272836,1516.2882951702024,0.008103025537654898,-20.326864141632786,5.4268267468860625,11.006157050745117,1735409819492.0
3.3457280141101884,1740.6223002509857,-2875.7280711756857,1385.916319688863,0.04374857145679782,-37.60525003749369,-8.556774629817358,-29.86721238629037,1735409819522.0
3.0532242358136745,1990.200742943065,-1385.6687853243927,2371.7234747341668,0.05599384181472336,-32.27108862324079,-18.70590187825707,22.844409777177553,1735409819551.0
3.661391974082627,1381.7454971660673,-1326.3339656969083,1537.8413578486989,0.010284261931672879,-29.83266931735639,-5.447686111003784,32.10011899459062,1735409819581.0
1.4226651664871084,-956.1735852824776,932.5168122768875,1553.945545764748,0.03835973168146446,-15.852387832481645,-5.0314416369063775,28.864486265000085,1735409819611.0
1.8643418668808973,-521.5461292261843,-345.14199356994857,1952.464186907994,0.056890157353504486,-41.833345382293174,16.033969502232672,22.77516131126452,1735409819641.0
1.3186400828490255,38.402242336909296,30.33196273679465,1703.8431563866086,0.04279842167976815,-28.795197042340874,9.662167062965823,7.407289382111905,1735409819671.0
2.607915212517872,1070.0699828985146,-929.2029489639058,779.7896050123468,0.03960322565548447,14.808373762857284,7.0182110995263525,-56.7852466743981,1735409819702.0
1.5730762227356638,-541.3536956758599,-1447.6346246365672,831.8170363660352,0.004106906782529583,36.713215766806066,4.6863972882713245,-45.00346389504065,1735409819731.0
1.1431793464229236,-309.4528768000179,-1022.0935200770847,483.7105327056638,0.013172196377678896,28.016716312485745,4.739149228898546,-15.512593199598015,1735409819761.0
1.7350431598143745,-553.8549817711685,-1005.3453618242822,1034.545018943996,0.009533125488956186,60.38081504743569,9.295911899223857,24.308293030590807,1735409819792.0
0.470581866804753,-724.8145577307557,12.79779697509315,889.9588004071213,0.03464692023715637,-13.634327248817215,-12.356959689006143,10.912032029872146,1735409819822.0
1.3573928569296503,67.74808336997926,-364.43736925788835,72.77216656495159,0.0053377520283640935,9.995906762097258,-0.47384386282538427,-3.954773459005164,1735409819852.0
0.8305450576166118,-646.4670150126555,-559.3423601272227,1467.8221644200128,0.008720215965094029,-2.6943269424316654,4.686014666658727,-6.597728591329814,1735409819882.0
0.7448956385660463,-491.88043873829326,35.55302547971172,-173.5172114368538,0.018882817518058093,53.56780925117154,1.719488789817337,44.61311907511464,1735409819912.0
0.6118592018359631,-667.0218236344989,-476.2071272593603,27.456085473192275,0.008642053087431231,-31.79974678368146,13.928327287548807,4.168597499353338,1735409819942.0
1.159039420841669,311.3292957684691,-760.521524340268,1609.2282371473143,-0.00435244045296744,1.6443477736325658,16.39920633460706,-13.449712153090562,1735409819972.0
0.7698591523637961,-29.08405058578586,-538.0981251015646,1280.8213208044563,0.0038104467499842924,18.92049070318728,-1.7464197530402226,-0.6308914863816453,1735409820002.0
0.4274849555007929,35.0571983969016,708.719360662069,1035.2898642044536,0.016571043703841073,48.04399919523944,-4.651800743001769,-19.944430397887725,1735409820032.0
1.4164870541505166,490.03406543510175,760.6291549042546,571.1494313324224,-0.0008686989765538276,-10.781534617481327,-4.504245841553926,7.9147109103506095,1735409820062.0
2.2549315355422497,325.0721662917077,392.6198174952842,729.3000155792029,-0.004022488770481906,85.28144042804088,-16.852252109225716,-3.7940441149720794,1735409820092.0
1.3367758378561079,8.777723106713438,-131.24028308153203,1564.1814783904856,0.014957479432204377,17.157433859214677,-10.884821966821283,20.582465985168305,1735409820122.0
0.6229619729039534,353.55646641912904,-359.55601439967916,1007.977664305393,0.015022549617274618,34.79889793969598,-14.064304689648171,-73.1391128963964,1735409820151.0
0.7222435030350478,-785.5874533974263,288.647606259492,1464.4646389345532,0.013650925538573788,56.32839168135505,-19.6162777216514,-52.44353400925984,1735409820180.0
1.5295175177149432,15.357925084738682,708.8740488995708,844.1719588416481,-0.001491367219950076,46.470304347106435,-17.968795887717526,-3.767455663816325,1735409820212.0
1.17491518935776,-154.8138116606081,-801.2581475392743,1360.68656849862,0.023403648145805124,9.669278403804233,-8.371780282915005,12.097469668814924,1735409820242.0
0.7012844577110019,232.10032834100844,-81.15831898262672,2041.1782148213347,0.018075086264292467,8.55519407290946,0.6183216793734512,-20.013682073331182,1735409820272.0
1.1732625675928827,679.5784562296041,-220.684732614982,808.5182531917496,0.014767465913502757,38.355404000848786,11.658501913706235,26.05661740376408,1735409820301.0
2.0765038756996352,219.33111071881183,934.6212539206972,-80.24014469494364,-0.0007193831176642573,42.51680505326543,-9.331344888621445,-0.4188569112474081,1735409820332.0
1.500860264881962,-237.97567545670267,290.93436056297173,236.2241138498074,0.008489396536509583,-66.62956233856431,11.961120170605188,-31.705454016537338,1735409820362.0
-0.01742242068386346,241.31340439813613,-411.9290183272547,2014.8444935717826,0.026574496632773677,-24.91227004214221,-9.069427782365986,-37.91976096694638,1735409820392.0
0.2096873724602739,-310.3067220753313,-1260.6011423048683,1323.5795371522358,0.010577807427803135,-2.88246223178199,2.7870563410342593,-36.00024556719606,1735409820421.0
0.4555538977424526,297.6012414070028,-486.07644913694475,1438.2684186436343,0.013825006053330362,20.044569490907257,5.1620535075603895,-101.13472656000835,1735409820452.0
1.1966168210155625,500.2846592531225,-434.7043503017063,830.1288835761031,0.03154338896832819,31.655904640761825,-6.231997001416273,-4.137093476969486,1735409820482.0
0.7695016619817985,-152.39897174729992,-636.9727452061651,1952.1182977189196,0.015218244539224228,-3.9803633733924695,-7.647392918931795,-10.851643159593895,1735409820511.0
1.7234755862031088,749.2705991445619,-968.7248416361742,415.2859922556979,0.04742182421081968,-7.245107999385075,-14.273929632043423,-33.7875085450993,1735409820542.0
0.9446977911760742,-1138.8579079940657,628.6121742661294,1315.4717536342384,0.006311052742584578,-1.1626193398629079,-8.800302820156356,-72.52196878990034,1735409820571.0
1.6718497120580267,45.34302347381889,131.31384423893383,1558.228073261448,0.03572991914781876,2.8808812097650836,-6.399564008980886,3.4457135287948155,1735409820602.0
0.24953012870573366,-1020.9047899841772,-596.2710507081989,1102.108316109421,0.02834855007191676,19.301326022210294,-22.130385538568337,-32.56618673970211,1735409820631.0
0.735475883813216,265.1887064914805,-474.69056040594893,728.6822334281264,0.03524030272277281,33.214870116787296,-1.421568471879119,-48.115053190289174,1735409820661.0
1.0127575273619855,-1005.17754250981,-511.85569763473256,1536.656860090193,0.05870382120827525,-9.499491436833363,3.7409216250359663,-21.565432113250402,1735409820690.0
1.2806704124704131,-89.75953754083699,86.73294151538573,-73.80240896598377,0.03766148643954026,12.451948857174752,2.4703589226445493,-51.168513986091625,1735409820722.0
0.7678756691354075,598.1382939136063,115.41874942413205,676.6720445747376,0.021139594311621566,14.766371960178857,-17.57370852794944,-43.383165399101316,1735409820752.0
0.3764528230149662,39.92567989673,-281.7307842231347,628.4906204956162,0.026237210652314265,-31.058115756173116,-4.032072977543738,-51.752809467626626,1735409820752.0
