Acc_Betrag,Acc_X,Acc_Y,Acc_Z,Ori_Betrag,Ori_X,Ori_Y,Ori_Z,Timestamp
0.38805835860072313,788.7804541826365,-1200.234308790513,-993.8524977303869,0.0013989997329880936,-31.53881002802455,-1.8312740562871195,-4.136195369332023,1735410056677.0
1.4486954454964027,550.5589382108367,-1628.2247679636102,811.3030057633752,0.006377045946217418,-70.44460384980395,-3.0424138498445945,-17.72354272965434,1735410056735.0
2.054623892689144,449.21948297071594,-383.233414200327,-1459.1341328538078,0.006753066068516864,2.535211541202834,11.561779041885169,-44.400434435713024,1735410056737.0
1.4061545940642908,880.4982815627336,-1508.9940585709135,-376.0710064800506,0.00519149074527327,20.41039306397772,-2.388511379664358,-10.857094463199648,1735410056766.0
1.5191307167270909,359.7420697730867,-1470.4808918705344,-710.1140694806523,0.0205731605468941,27.687308840499853,12.636927477807276,-49.50439717663327,1735410056796.0
1.3141853510484365,599.8217119108075,-1119.0453549366937,175.9131996786158,0.031057115416769497,-3.863430395494615,4.345499517444977,-33.3344933492904,1735410056826.0
0.9135090437866353,1051.0525243377942,-1154.0222329628045,431.81160817941344,0.01499617419269083,54.05178352959908,26.18689106156874,-2.7166876593621296,1735410056856.0
1.1841684577198204,1231.3166198968079,-833.8684522756081,-278.0723430172898,0.04279862812737473,-12.27933943175734,-12.115897777972688,0.4089916828095532,1735410056886.0
1.6598969573991225,606.0409443810979,-1125.7728140791967,-636.7216213002802,0.053211467415658215,-18.507302070003078,5.703619347277888,-29.038946743878874,1735410056916.0
0.21583610031063638,682.5684394076945,-94.92561645627302,432.83292342349534,0.025085244370872558,9.515457322475081,9.637846852157628,-68.84633300134874,1735410056947.0
0.6512679089727829,14.499800675757797,-251.4584355129556,-1386.3823574003748,0.029703030509561024,-12.743656688415587,-6.813316848171548,-25.829204804880604,1735410056976.0
1.0111180668127042,391.0075927809087,-67.68390636559798,105.21272456038378,0.019780447600102256,-26.544375022493114,-10.99828146731995,-33.745646453650274,1735410057036.0
0.518743335741998,561.4731590232268,28.130099566387912,1166.9334548541938,0.037835263532453,8.968838934423333,13.761678219783839,10.295819358872528,1735410057037.0
1.2611877753901406,744.5455654998899,-683.6812496964818,807.0238339227899,0.05460265521627647,-7.666581214691751,-1.4589094341603612,-37.39033276257468,1735410057067.0
0.6996231433663251,1040.8884453056965,-813.2313937741454,184.79188784520545,0.03550641066308677,-54.25484141962431,18.26101816191419,-87.73731001963667,1735410057097.0
0.8070262299554183,2064.917827938247,825.668760523477,1723.731185215469,0.09318309803128469,-12.738025316342112,10.31958565084367,-79.24098992615109,1735410057127.0
2.0527582820072046,1233.7424932407048,-485.3453006329213,201.65175148734988,0.050525715658307845,-26.39289267239417,27.0163457914674,-71.54718828293872,1735410057157.0
2.088415221612993,1378.0036844302833,-521.8054047151289,1254.4845472678235,0.05753042348931553,-34.287533401878726,4.834827533310023,60.71336218440747,1735410057186.0
-0.48711344910432947,196.03024577935946,215.59628179371265,-412.24083890112036,0.039318597573857195,1.266622127872985,21.79849147768229,5.016849807411175,1735410057217.0
-1.4433024586793188,120.11358995347382,-885.0898057460574,-1023.2646640210602,0.060821149423717594,40.92229049816314,-16.652642850188464,27.354808456124715,1735410057246.0
-0.22480769162038708,-1196.6183959856148,-500.21691196400343,-524.2138429838752,0.04464072659570414,3.379319942646206,5.072360826359066,21.717148028900766,1735410057276.0
-0.22538656198910131,-554.7185954103727,-174.77553190401042,736.7448659442038,0.014823296749502876,-39.70337202659543,-12.329137707920934,40.81484608250049,1735410057337.0
-0.5994083483891203,159.89360219000451,652.1006279755874,18.50120340080383,0.05162937226780768,-58.651577085713214,15.190411163955877,6.323980150698674,1735410057337.0
-0.09355667307075517,829.137966126483,-345.4078770388296,-68.16261636248215,0.058632745180755064,-19.96017279720972,-9.919217468686726,56.019283756435804,1735410057366.0
0.048466040135032466,240.42078142002325,669.7136374309356,-444.07924496967286,0.032372537629672765,-36.73673555727129,11.575528363174982,-0.8153180132382616,1735410057396.0
2.6981101975373756,696.2394618536437,791.3405773577676,-1800.282390791012,0.06441456870753608,-75.79411395163315,4.709604382520753,79.51206010696121,1735410057426.0
1.2436670581387672,408.58275176911457,916.2437264557582,-2382.231948245903,0.04797712711705251,-21.71918560545632,-15.901948223959653,33.36365125404572,1735410057456.0
2.4682440025517676,-228.10947259303748,309.10031304804943,-2054.4684069314535,0.04389181316502492,-28.162054660337,8.220961485701583,32.72847078436897,1735410057486.0
0.978032769564297,302.65283347514116,574.5169222836023,-765.0168205878219,0.029793171920166023,-8.1930875925806,-26.176660070067364,-63.123972123501,1735410057516.0
0.2460415134305442,686.2134839055318,-188.67063233038562,-592.4019944917703,0.04477063166165368,-46.126944854124,2.1461040964482088,7.167580277681315,1735410057546.0
-0.15993135986385887,461.16501668880045,504.81738226471634,-241.56122955692877,0.05870953486030307,18.50076494170558,9.77218415981053,1.6241052057519099,1735410057608.0
1.0967169539863015,776.2318175155501,-562.3231817281996,-840.9621628263887,0.07329310700791535,87.75416436655787,-10.653220437350114,4.624039095592217,1735410057608.0
0.8002926761803943,-999.4703457972957,746.5729592567226,840.82106102147,0.04774841313082186,-27.064542584213772,-2.320288151156194,-22.96044183546605,1735410057637.0
0.14391136688992368,628.2462680306148,242.61613883145492,727.1227966449787,0.035816205231567144,-51.06081785751763,-8.432641619251143,4.981081160627493,1735410057667.0
0.5640104492446715,537.4642868201099,120.94952811818465,-74.28908924134561,0.08197305077148923,-8.57743994842727,-0.33159185521391166,-64.30061769581886,1735410057697.0
0.548727482347176,-281.46821697919404,1322.0137661250376,-465.16570833344826,0.05013510244464821,45.548410741153354,-13.786687295919556,0.8128101448275977,1735410057727.0
0.6437449148227901,45.758897972961904,-101.3799777003669,-139.42003276214632,0.026420305191247235,11.508647270660866,-12.367308130831308,-8.539397330421764,1735410057756.0
0.33791801352355844,720.2208634033203,-397.5442680271799,873.6515724857368,0.01843232795701894,33.32950289515948,-0.3414495186067326,-13.9903736452609,1735410057786.0
1.5173200379903953,-441.0897999058044,-902.299238065288,2014.4036463798452,0.00370383875505614,42.89010997354703,-5.61444793545461,-40.88350274427084,1735410057816.0
1.8144320554158804,-39.85714109111723,-522.4663232781636,829.7896797173839,0.027187074586990444,47.72971128691107,15.580986987694398,-13.613724046658383,1735410057847.0
1.5328387622397788,-266.7763368197652,-744.1285292476985,890.1386681835246,0.01059525227393368,16.963871133501105,3.487719216512793,-33.08364765791396,1735410057877.0
1.190478148557081,140.55610880282777,436.0388310392601,3286.3241439777203,0.04701749250177079,-10.341774069013844,-12.023511077268772,-23.1059769997022,1735410057906.0
1.076753413145222,350.73561181740024,-285.8224565766486,-202.97979812586118,0.0457641913440343,41.734188540297765,-5.322636575734778,-31.27248643234747,1735410057936.0
1.5628681622730571,-189.31877449852917,540.3158308479724,931.7593615956939,0.07176892647846098,6.6091211122909055,8.103473375390907,-6.920716236857068,1735410057966.0
1.9368726681388293,1156.7064100176224,-119.3410724989181,255.2917911912641,0.048998031035721513,-31.443654239601695,-9.281417274422076,-11.649187542144112,1735410057996.0
0.6304364606152555,-320.34048108369626,-677.18386472221,1668.84572344556,0.038139050697293175,-26.17747140036727,-6.071802699773607,33.10131780777463,1735410058026.0
0.7305147570527797,299.06268947233724,-388.217011617126,1655.9270592327807,0.035866268465035114,27.367530930344458,5.967019229467191,47.98174003017719,1735410058056.0
0.798586474409659,-816.0664744768524,-1006.6709333440247,1477.713388122601,0.047986214645576945,43.299626167833104,-8.763801266424185,67.22008111300329,1735410058086.0
1.2435044420203276,-1115.122143189527,-185.275319781636,1037.1386497526419,0.026452993437264486,18.004201076524865,-6.155739201990549,77.96489649128529,1735410058116.0
0.4600989591553109,-1133.7183476180307,450.5144779481453,681.392268632621,0.050057013983375996,18.560454490702245,4.22570936616997,25.86783819674159,1735410058146.0
0.4876478158785166,-200.96670389308383,-1021.1406233422533,1385.9398926216377,0.05853423828971649,-6.4436507073384774,-8.792437635625568,40.099809107814536,1735410058176.0
0.8411614388607929,-714.7996907798677,26.86373189891873,241.00877216197307,0.049660636448213835,5.231752188845407,-3.8822742184590404,82.90121809938381,1735410058235.0
0.9968157568893117,479.5936392911826,104.74554962017072,1196.8068840826734,0.03263750309180516,30.116658400143223,3.082229812895816,41.29923322866547,1735410058237.0
0.8136033278132185,-1140.5883624951034,376.2952427778848,293.4896400259346,0.04060286647802375,-11.119349232177909,1.6530553859209007,44.00472134030253,1735410058266.0
1.0059665342309558,127.22276784597636,-214.40698044602473,1327.3377119028953,0.051903038953650754,-33.736438232403586,2.6203784988372236,34.847862883016774,1735410058296.0
0.560163932341085,737.7268386079073,-708.5151707990343,1528.9079210957186,0.019920826919576466,19.643229551204577,13.548989110826836,0.024783026792611906,1735410058326.0
0.8989165312793534,301.21846571927165,450.6679730568295,870.6429253150278,0.026634934359535394,61.04357730899832,-18.898180481249657,27.312913562543322,1735410058387.0
1.0020450739311735,-229.087943535902,117.20795897222507,1173.8543134728334,0.04328317438738656,22.705939266868334,13.937837878012164,53.255435200585396,1735410058387.0
1.4077021894837092,-239.17084379183632,210.60353988660574,183.96628724708705,0.00908784068114189,-35.56663714272197,-4.589366497849083,23.5436601729239,1735410058416.0
0.5547689888314427,22.869788969366127,-32.06873861896116,505.84970562251635,0.03140137916592919,-17.19322929772379,-12.933729934670591,-6.598515854112247,1735410058446.0
1.1496855194884101,-88.12229231323956,-1269.6413304615485,2358.5578138979154,0.023748064305697415,-5.956035834951344,1.589301851789152,25.88934654432907,1735410058476.0
1.0286977904040429,462.0194204201535,50.63632153072467,500.05277427785586,0.046573162459482766,29.367072117902072,4.952196169281505,33.083614608094706,1735410058535.0
0.7105882076087205,1225.1347772936888,-110.50572019082256,1306.7122636379445,0.02800197640201016,20.180790348463706,-14.960361050744805,22.07649282938775,1735410058537.0
0.534368853192964,-182.77673634974377,-185.9895225656956,1091.5323989501032,0.03802545065668621,-5.783118561767894,-1.1647897464155919,11.557155191070374,1735410058566.0
1.1007416914802737,526.5973994672124,-193.39427868857905,254.305851506007,0.03163208740352953,-18.86197947261151,-1.8744514449717535,22.34554738308448,1735410058596.0
0.7817667250096888,-131.71117058542478,-362.08199803333747,1114.8954185471564,0.02486799035814697,25.347779014415043,-2.2239738092424415,18.828262913373717,1735410058626.0
1.667376745652596,503.25021800069294,761.9680916399758,1319.743585989875,0.015104418705244224,-0.8089594339748736,0.6345772260417921,-8.458184530732648,1735410058656.0
1.1278473519620436,815.3156171303393,-265.46503584602044,549.4454318414377,-0.0032994378008175586,23.33301665470117,-8.465810876702621,29.41448949525197,1735410058686.0
0.25466513630143883,127.32822155081806,-530.5958232042946,788.169583540473,-0.004062458253908208,-17.58635152038115,-36.75898838582109,68.7905074414568,1735410058717.0
1.3943649898864945,-815.6855619980468,-104.97023643426535,2379.3681865320423,0.007581855315346534,38.32562526274485,-20.594936170322832,57.412895953632,1735410058717.0
