Acc_Betrag,Acc_X,Acc_Y,Acc_Z,Ori_Betrag,Ori_X,Ori_Y,Ori_Z,Timestamp
0.8887698166252986,-281.32909123320695,1044.871912885767,409.01768919803396,0.00833169490678029,-13.72008815232877,-0.38559632404086486,-1.379176223119078,1735404972643.0
1.8896536606044196,-208.35012521635355,919.2508001433965,174.22729918430053,0.05028652558420698,-48.96317586670576,-15.235144280893465,10.373256095021961,1735404972673.0
1.4736869098478647,551.8039882232546,1182.187810243835,-555.6521935085316,0.0017601921997546788,9.118550388212618,-1.176933408942336,5.293612518929541,1735404972703.0
1.4224774002432365,-199.522918656396,1523.9048227779294,507.9355352603685,0.03496329165508828,6.274010445169228,5.085735896337011,74.35158662921458,1735404972733.0
1.447701260350815,-784.920471342325,546.124262866613,-210.02992028379182,0.02656347406587728,-19.15025251797271,-33.267184327701536,27.201551557889182,1735404972763.0
1.202640919822084,598.0519727967211,980.512004247285,366.2040152891815,0.045281131613471214,-35.10606449954457,-25.37940947912321,-20.43213846072593,1735404972795.0
0.5679001505907384,-299.6869305277234,1324.8730191321533,-567.9710773550557,0.021820692074385518,-45.65424886772156,-23.119280467946936,7.5189125510968005,1735404972824.0
1.6775064670308033,588.1331268451772,25.429938688913126,-704.7913761960675,0.05199427584986718,8.087656442895042,1.2541262298167482,71.25683621434052,1735404972854.0
0.6151364060357882,-10.051164550870201,1210.9107587789458,-985.2260255116066,0.03063502509101686,-26.402308049356083,-20.832965731528013,-14.174980099573583,1735404972884.0
1.6768689403612835,-343.3156403274638,1344.6377854708028,-355.4812298182577,0.0344709883852064,8.459991627745158,-20.257217592255287,-33.096316669944756,1735404972914.0
1.8841594268956867,-227.77409873811814,966.3983158670823,862.4813524396574,0.040260209638334474,2.280981372000241,-7.0920615691365665,-7.502233381681167,1735404972944.0
0.20932484499745163,389.4511987222812,1211.027490026606,-341.5292174605847,0.007183257678399446,-16.87742357820647,-15.416237465644327,-17.515931155085287,1735404972973.0
1.17647449810469,-360.6945786028592,655.8975410242847,-139.21730983654533,0.023237949487622027,-17.343618174016882,-14.610398816916438,-19.314584862436647,1735404973003.0
1.1197721287027012,-16.201442930256164,1589.2787453293267,1474.8333212558869,0.010638107086046565,26.270645502542525,-19.073829737407856,13.471305070571674,1735404973033.0
2.067634862667094,-612.3427699156,1231.3743319128803,1457.8383922199305,0.0299623335274029,-59.244661509996135,-14.165874633856276,-9.29465810032174,1735404973093.0
1.5777133363153673,160.12486968447251,1129.5841390590958,830.4151200946854,0.0530861200321189,-70.05433018111106,-15.739280206693278,-1.8466504733780584,1735404973094.0
0.6059881107454056,-425.73823403984744,655.3326347338821,67.29531059644628,0.03279822526567922,-14.268447251939548,-9.600205977604235,15.38025952431147,1735404973123.0
0.0202499593691641,265.8161466266696,21.64832140037467,-1401.91540953893,0.07093350632828828,-94.0202184062706,-26.515114339090985,76.10801086874645,1735404973153.0
-0.09075255938531084,-460.09449083593853,1111.0803476278513,641.2058989283754,0.053362119205477336,-19.79126677321606,-13.050773636185685,-19.888867398881466,1735404973184.0
-1.0412211080652947,-433.95998538906196,9.029186692016484,-963.2971802358921,0.05615531118441015,-18.251273458377938,-8.007119017465884,-26.105566252613528,1735404973215.0
1.0368726608784422,-432.3808960280831,-0.893375718569656,-215.52686968540567,0.021291656981476836,-53.5536976092889,-11.630853999510084,9.762167765347161,1735404973244.0
-0.14984210285025412,-604.9589525913644,-20.541557180398105,-404.0733306911809,0.05962163528465891,-61.0582079851168,-25.00285098525999,-39.148079269158124,1735404973274.0
-0.12643307756505495,260.94858225219014,-443.852231304382,370.2959315526525,0.013424120168763171,-2.376606922506518,-3.0117731028852637,-53.427510299807786,1735404973304.0
0.8264178873076266,727.9085069525338,-410.55447211525166,756.9205676851183,0.03732092189053705,-47.21744786989926,-0.5414355575229113,30.961151025090118,1735404973334.0
0.26902196916331417,103.73494401816288,-685.3273261453921,-911.0105264960928,0.08927438659960112,-15.765890005585305,10.375492216164135,-69.01503071548326,1735404973364.0
0.7368977455017839,-484.4995736294493,591.2723850074727,-441.346847197811,0.02852929907129965,-59.95807498495896,1.9951901220453205,-26.887816054205366,1735404973395.0
1.2012548403734944,-293.96708513636645,-435.18869250465616,1626.2104517221148,0.00022105863396185144,-38.58174439092104,-22.7217123772039,-46.119166405056696,1735404973424.0
-0.33064161526621094,-481.8270669973812,193.78887924433218,1372.9108601913927,0.060795368310614335,0.33496023905181005,-7.288453633037888,1.8375278497637453,1735404973453.0
1.1649542076170474,-616.555040876019,-127.27226788450321,693.5073018165364,0.05252748228785339,-24.254051702877838,-30.31888782732945,-59.393013418385706,1735404973482.0
2.2840801614671586,-626.7196862128139,278.2840424470196,2415.973390375911,0.04809112300390835,-59.92362669032773,-32.98098862283578,-30.911679946788837,1735404973514.0
2.3998704582610015,-367.19217999229375,-929.0458127737872,1425.4717548774665,0.04385812001830619,-27.594059164917528,-23.18776683046731,10.033010718095355,1735404973544.0
2.102339892867517,-129.727284819952,-347.80464161586366,2254.5991397995595,0.01822762320508482,32.682213773685966,-9.11322249544589,5.9512492656060445,1735404973573.0
1.872319458173364,823.337427253108,-582.4477381112605,1759.907125120509,0.057767723310099814,-14.274038076828257,-37.58227618273999,18.306491503262542,1735404973604.0
0.5394665746593177,644.6458106202181,-287.4925283266562,-362.188835395487,0.04352158286057903,-57.44563102196426,-8.890534167159181,6.9376704763265815,1735404973634.0
0.8911850722391232,-371.73510537883027,-265.8378793495484,-1004.1954862246586,0.03378969940151132,-3.4770408139945275,-23.73444252457254,-9.49725467488771,1735404973664.0
-0.2187451155698516,-681.0380454790314,-847.1585128721058,-640.9819936116958,0.021950017023156663,-40.87305014721604,-19.43666232769668,-29.771367900630096,1735404973694.0
1.1537508419838625,-87.06605873155189,-290.2363091427552,655.1915644615513,0.031229162507428784,-7.878324792753965,-3.756575343804892,1.8747986537814159,1735404973724.0
0.7467865677612351,396.05322567733344,8.028793097908988,2178.4452902983367,0.05759004001558866,27.380127303874595,1.0888688774768802,-4.285544187843644,1735404973754.0
0.6527579381233046,-213.2976889654895,-727.6380855021192,632.8928794028193,0.021569408296030896,-24.09628289479563,-7.291387106506178,31.242040929337005,1735404973784.0
1.205274610153399,-405.15643725355915,-96.42055015848973,2388.2234540186,0.020432125087119557,-32.74708290335842,9.286355185221534,23.503918962662787,1735404973814.0
0.005841332886031836,372.62975112193317,-862.0526314598421,-701.8264497024334,0.014117147338142538,-11.01184115590587,-9.507436900048084,36.110436350716085,1735404973844.0
1.5507840556732533,-397.8334942861595,327.6101897205833,1964.9144894518877,0.02352769327237727,-7.5201647382966605,-1.2603182910382695,34.51634111770029,1735404973874.0
1.7913510715243062,-76.31742287274811,360.3082624542828,2832.2514619966164,0.004692330697935655,-4.040305874180126,-14.598757762212639,-25.816072429900785,1735404973904.0
0.9453588450990533,541.2577907695181,-79.72073202656365,134.80520981945097,0.014003230201987134,-45.76016859928051,10.012444670994354,13.684333357037728,1735404973934.0
0.7510846234966146,573.7426343160998,-278.80040330852086,544.9362606049319,-0.0012315395761592438,2.607919900719595,-6.816856402319168,4.181815106699834,1735404973995.0
1.7250282347761412,-1245.1728826000976,-793.4772432578737,417.95645864595485,0.03640000519888857,10.066207284534059,9.438956304805803,15.818568228376696,1735404973996.0
0.8488775930796958,-648.8957661384464,-679.1937042706238,796.9772761651976,0.009585206324851573,-29.27122050486602,14.789517596178689,-33.34885799348869,1735404974024.0
0.28183259373955616,-157.95116050392502,-699.7992178421699,1134.4412402100381,-0.005746802515108335,-13.09774077551807,-4.704746870892262,-27.129051442070633,1735404974054.0
1.293008862347856,-68.03386664842137,250.21920943042295,410.7822054630176,0.008710466227647866,-30.918738584146865,15.026294507109082,-52.203546620921145,1735404974084.0
1.2906563763037844,-474.67770956986203,467.9068882848342,1073.0761091997315,-0.005191738978724639,-40.44366845995411,10.861919255717247,5.605654591438753,1735404974114.0
1.7581897413078487,-611.8471791205491,-17.13598514815965,558.1440733889935,0.01899769896169323,-34.663400450867684,16.091039258507827,-12.992347888013525,1735404974144.0
0.8660452238432316,-21.047057626510423,244.0280276333679,1643.3139794925887,0.021189757572915018,-6.9932295110485265,25.94575377500938,6.760521080531188,1735404974174.0
0.6149576600562039,-1074.3697483423643,230.29384160598417,629.923528025686,0.01130459497333891,2.3135132362948845,-6.704883842249307,-35.900557935001274,1735404974204.0
0.7498813110932444,368.0573083985504,72.71956512911737,2567.5554855260943,0.0172236864091332,-63.77969148983766,12.867906032854307,-6.3005818251304655,1735404974233.0
1.385137143140056,-719.8691644411172,-454.62633001399905,-319.02853656382854,0.031226601618991386,51.03638271926258,12.160252696804207,-18.48413346481898,1735404974264.0
0.337910288188739,-905.0165711896512,-57.29218646064854,1782.9276516876103,0.031240543572846988,-6.699990817777252,6.514731883033798,-30.44084719056312,1735404974293.0
1.0187333429980694,32.713134680367006,-56.44699557374729,1506.5623236691167,0.011182801316309988,-23.11270048842562,14.86067571473863,37.29724238103019,1735404974324.0
1.39978189608306,-589.1616836992127,-82.46477881812957,-573.4612847591698,0.032778333427067735,38.340852597728166,5.090642788419838,12.895411468048177,1735404974354.0
1.6390706578199032,183.51882228621793,-349.05838350424693,2341.2651338385804,0.020502775686086532,-10.357526381720833,9.711086591681843,-17.444254400186264,1735404974384.0
0.7963494636686229,-2102.4147464490143,366.77453252055955,-100.23068629358477,0.019766216343871303,38.900418251964325,5.86056036960295,-2.505192541279075,1735404974414.0
1.1118168869853235,-574.9905898907853,-100.03217378395892,-143.737501743778,0.009334855156926248,-7.115354511697146,-5.956693950171099,-1.3738271513890847,1735404974444.0
1.387002428095879,-189.82036194987867,-169.12414867171933,1776.5653770112685,0.0024448323609304063,-17.018469806783074,8.17044745364625,-10.551282148775531,1735404974474.0
1.2124201775946237,-267.695285913208,-299.8764413075533,143.4471237804064,0.006449715016578477,-31.82672101436079,11.430171633925292,-0.6877960953389888,1735404974504.0
0.7828464207321624,-187.33845015872527,-139.48806643146165,2463.6106708260304,-0.02629709532235258,-54.14380933429702,16.538817479846387,-17.37723630624361,1735404974534.0
1.88470243282797,-482.3775318694809,-37.376320096431954,1790.6173531279856,0.011004381777704518,36.369507561644035,8.03674275542826,45.607064246157144,1735404974564.0
1.324995286811604,-286.87003896367196,-311.4995680465223,1596.2062772678373,0.022822875206953887,-13.651479231735394,12.476879945969916,37.53570789154492,1735404974594.0
1.4090199513149082,-396.95348400606923,-94.12635984426052,1704.627017507877,0.03370426368281568,14.906689098353407,12.404039167220622,9.392544740091624,1735404974624.0
1.9696703866519853,-517.5892383121821,-642.6209254982159,911.6338299861497,0.028246882009836626,5.422705221852415,8.32123891662155,-9.914828278364848,1735404974655.0
1.1393720332963315,-958.0280412113053,-855.2372340889447,743.3194665955834,0.013047303222171758,4.8932716104588785,8.523907436703775,11.168837996793908,1735404974684.0
0.078716702010597,-301.98699148067465,758.5867526728139,978.1641061189597,0.014648278150778639,-7.137677898314579,17.73557386476371,-36.91264552807765,1735404974684.0
