Acc_Betrag,Acc_X,Acc_Y,Acc_Z,Ori_Betrag,Ori_X,Ori_Y,Ori_Z,Timestamp
0.6825809898326926,298.49575173861354,177.7446870748505,939.972428230322,0.023723508087340413,-49.55517076809749,8.526654960538206,-19.965634293838402,1735409365161.0
1.6223706652278662,851.7347755372233,-300.8967595553744,514.8630747056933,0.01355469940376288,-16.675663794755366,-13.585864509507566,-59.73683100995301,1735409365190.0
0.8731049783591176,285.3782708266956,-32.87233012073409,559.563577498287,0.02902627784313535,25.63594418436718,-2.8481900463770025,-36.85533566135065,1735409365220.0
0.4257349344652571,404.0588497310931,-189.18008425109554,-368.7333821795256,0.041642499986877635,-7.656254360295387,-9.686545895787813,-13.455633338979984,1735409365250.0
0.7455951951059236,792.0458116650273,-923.8491894685621,557.4039120216961,0.08491057148443121,31.742622874535797,-7.703527245931517,-50.55112610942831,1735409365281.0
0.9825682388138852,66.06466586708711,-720.7093905638187,-1139.0045901654742,0.07028514575276155,-65.20749900914747,1.3325934948569174,-46.557415461073845,1735409365310.0
0.3677384365102253,809.5387208489242,-939.9171258588653,-824.6031375019073,0.06357694510617384,-101.21757699698716,4.951929339746288,-21.414194628836366,1735409365338.0
0.14833434816742946,456.47607893578424,-140.65395274286925,-10.477191771153628,0.014178885256443924,4.609120735836928,-0.16775161847308206,26.729736522184567,1735409365370.0
0.12587697590200553,768.4958745202392,-72.184184956651,-479.5898328204568,0.02310620218622255,-4.2417333645163815,9.900024699410551,-40.67776345612522,1735409365400.0
-0.6895974324158267,59.9775125580602,547.4695507974407,324.10813878650936,0.017187266814728763,8.155279903221627,1.0312175703845865,-41.66688808247778,1735409365430.0
0.9075069020524682,956.9098245883768,-999.8532942473205,-1115.837262759757,0.037157321708818254,-21.762182069789276,6.177686977033821,-1.7292529234276657,1735409365460.0
0.7164413868302866,833.5512287753666,125.98424626241876,-913.0783441971635,0.03192557254545721,45.247740607876906,9.25600733582983,7.109412524756493,1735409365490.0
0.5478996779543619,82.37182000520409,234.705505695807,-970.0079463633842,0.05488076804804476,65.03798668855893,13.873209145865207,-38.235408290969175,1735409365518.0
1.0092876298545277,735.8249502215731,-265.9927050131647,-546.9904212500811,0.04652343092422409,-86.12444392647285,26.896840726204076,-21.60610590077448,1735409365550.0
1.929622861515512,1100.841862882105,179.60454331152914,-1248.4952077275962,0.058259499688998295,-91.99001117392737,26.14445160628955,37.37726715642455,1735409365580.0
0.7725150326719576,516.3535142943973,-219.50464805975477,-620.5215604340918,0.021762703296444433,2.437644523113022,4.630743918411743,12.22080977300032,1735409365610.0
0.7405789309695332,-391.34859295328533,-42.769322944313785,-575.2501085021513,0.019070543345929326,-5.975370671512984,-15.314492693264002,-3.682605548923167,1735409365639.0
1.536282478898864,467.0160935603975,27.274878656450653,-1843.3164944342352,0.03293027437443462,-77.05013668583089,-13.484002467560014,11.79348269201872,1735409365670.0
1.449671034787042,671.6148245639968,0.334755146775251,-907.7215010765385,0.042040704420658055,-7.5201971240798535,-17.893296392762053,31.685498780123055,1735409365700.0
1.7684263856940405,505.60617703824903,-201.27007813469513,655.3557516349051,0.08307778285452391,16.1817558517136,-13.119341991984054,10.633748730671918,1735409365730.0
0.9315033880081112,778.1420611129248,349.5179974538737,516.6790179918842,0.07565250232117268,68.3452600268054,-29.228075068351245,-47.93308594139175,1735409365760.0
0.46895577141801426,1358.6939485713037,-200.1299040291578,64.67180893978957,0.04592636944103373,50.907266381276585,-11.41870855994864,-105.57555978161315,1735409365790.0
1.0386212045031273,1289.0271942359682,-329.9053724564642,426.5197166415478,0.03973900381786212,59.192523987012805,-12.938718996989147,-48.592127673520274,1735409365820.0
0.6836258475119399,-279.7008463093663,-265.1995317888409,-1038.038057629194,0.07883203237816214,31.40197980799846,-14.121054659471934,-47.00014897213302,1735409365851.0
1.218530229123513,238.77992588599545,874.0098484272402,-1144.0406832975236,0.05410491593966541,34.944187340144026,-11.998203967662878,-25.637967278534212,1735409365880.0
0.7759803254397637,1151.7294047468959,556.7267090237349,405.7091633234454,0.06343597778149095,-36.26512009864446,-20.204637409650744,5.058763531594973,1735409365910.0
0.8854763282140525,224.7277785003269,55.11556287168719,961.4877450802453,0.04477301940434942,-54.7732557444998,-9.55803778159962,-39.37762289278643,1735409365940.0
1.4736043510714245,436.5908905676206,638.9485586685893,-740.9995438734962,0.04167968290856457,-76.28352610282201,-4.0745239833119875,-10.579893627189016,1735409365970.0
0.3702124741414692,446.5315725104033,734.7629886330013,-1166.9537404934285,0.054168434640809164,-4.789986984952165,-10.707711005421345,4.569387247743338,1735409366000.0
1.210445292800934,773.7456899213776,413.3521833557629,-1735.367170026492,0.038299150344692647,35.65561309361702,6.17578309536967,-23.99318731714446,1735409366029.0
1.683890945141135,1001.6276101311547,856.8992590487651,-600.7120854429701,0.05573022359928037,39.17147625908592,-14.446348019623947,49.843847265123294,1735409366060.0
0.9090823143417959,719.0293589872297,43.525110914974846,-1317.1264644194466,0.06055714818719643,68.96350189776243,-3.429810848724796,58.39034528023154,1735409366090.0
2.1083635775454823,1032.0177433306517,-60.61838766553063,-608.389206614992,0.07005584270504907,71.12389919692347,-4.42689373472105,-19.063498561016534,1735409366119.0
0.4958075524388367,1287.157071188688,819.2615188863033,-408.8291227162027,0.06705741879330909,-63.0369792744612,-7.90677117246171,-57.895350127974254,1735409366151.0
1.6108737706078209,315.5434005494528,360.8648901603275,160.27062027998045,0.023164533821892496,-16.31123356447719,-9.109568540471006,-45.023430430955244,1735409366180.0
2.4288749942793997,494.57221865162774,88.40539631348423,-498.6686567208229,0.05107111099577596,-12.76863599180437,0.09998308564082062,6.719476462902026,1735409366210.0
2.7364725173125333,1663.3209004651635,868.7094371432662,-1537.5614621581049,0.058902056824516345,8.0384473351915,-2.3996140926739002,-20.930194192797746,1735409366238.0
2.3734123286831457,1526.2542548942286,425.9729095171538,-840.6675933044813,0.0428322326609229,7.318911936958788,0.566330860163792,-6.412791350272022,1735409366270.0
1.9667788954548844,1911.1865497099034,877.1307125223951,-1490.4951369253122,-0.009604130207012389,-11.131598231846652,8.102407752483362,0.7511210195922366,1735409366301.0
1.527724488802669,1720.4066773038844,137.5425688066597,-958.7665048024954,0.027598313959746386,-5.794454972406532,-1.8087271482672245,65.14624522926519,1735409366330.0
0.9617320350585525,903.977641788766,2352.9858350303375,-333.1852467248068,0.050067197713408826,-9.784399189142674,-10.819795804158801,21.426810552298267,1735409366360.0
1.6493177031582464,683.7229764546129,723.6143217080365,-682.1488081235575,0.028583566131215928,-50.98273602526928,12.097877889133116,-48.553007796409226,1735409366390.0
1.5105250528819738,549.6341715139421,436.0383348201205,-274.6779721937561,0.050980276993918286,24.10601433995514,3.7635117471324167,-26.883820199826385,1735409366421.0
0.12547823102860423,744.5012294852646,1049.716635406689,48.55561231968128,-0.004016806338796265,-0.8890331645988585,-3.663660464113823,-20.546520608758975,1735409366450.0
0.38243598708238413,121.0439349082927,-502.5889669333276,-898.8126738377554,0.010269496441488678,-60.638682074913746,36.82312484563198,58.68859854621171,1735409366479.0
0.9331986079169308,7.744305210041034,1228.0582908780334,1448.2685384496313,0.021398573474746985,17.727628196325764,-0.521171816572938,8.145520164505466,1735409366510.0
-0.3216940659706914,1183.2037376473813,242.37500889206598,-1191.165814929271,0.04049319752610073,29.07918477031482,5.713831569202204,21.05681160573089,1735409366540.0
0.9999674876140014,927.7669679561793,774.9938338186547,-42.640861308092795,0.040834275470598896,32.10524614137397,19.177202266081846,-38.487747118452646,1735409366570.0
0.4162489149620664,-48.02608408610598,347.7142935694885,260.4440332987373,0.06263523467555458,36.25658981937025,-8.1041142366166,-6.995814332648983,1735409366599.0
-0.2909618320851002,984.6236540015805,609.567185111845,314.17068038002134,0.026392868739223963,10.657435417796112,7.980691215235547,-40.445841455006615,1735409366630.0
1.4721539227350373,93.17962809841933,-942.8093777816398,715.0293229501412,0.003650335736264925,23.968409447476674,-16.16775580610283,19.809992531569137,1735409366660.0
-0.6074637944296399,530.1859199336518,347.87675437150756,705.1425785188912,0.03714541130603598,35.90287590480236,-15.838005823797102,-34.44936598860514,1735409366691.0
0.8874040944139268,-345.6056090400183,325.97592366454353,1612.7549104453378,0.06235372858061065,-15.921041021603129,-6.57614507467437,42.141741092533145,1735409366720.0
-0.5561931191103622,829.1819429089663,-917.9812139625764,818.2481513027519,0.020730790234740906,9.598581681008088,-8.77050544688758,69.14396206582566,1735409366749.0
0.6596642617081224,1309.569730820136,-138.04018722798293,601.820464405253,0.049477300606016426,0.657663996199652,-1.87331812379455,43.41430170158409,1735409366780.0
1.6226467037081584,95.79471192069923,-1075.6881627686244,-585.3575602380787,0.06617519859199518,-16.775906739097536,16.06732038291075,75.20216138428668,1735409366810.0
0.9967331683534553,368.6229325329598,-527.5798863925723,134.57381921497193,0.012726941434908975,9.893672856721679,1.324568862829583,17.724513123607377,1735409366840.0
-0.3824843027338062,243.1624270259948,-360.5172261432046,803.6254957770104,0.03018609466474876,27.975852308682512,0.2707577209477172,-0.5782202346495531,1735409366870.0
0.4848956068780311,1154.6139057618684,-821.6627681557409,-1997.631379256836,-0.009218268882575136,-35.2973470022224,-10.228739721444429,22.371315781085915,1735409366900.0
0.14931697795626708,-724.9229328405847,-375.7769217644385,-149.39803566010522,-0.00025807273809025366,22.233756296194386,-12.611238170789571,-20.81090831818786,1735409366930.0
0.6223476760631618,177.88079706719842,230.24305989560324,920.1454543927919,0.03204232755950454,16.514917446229926,-3.9069697760013176,-4.287993419277722,1735409366960.0
0.09572189135420867,-82.92541673531298,153.66491524425126,-469.563187654051,0.06406566570867331,7.503702299272691,0.4141806616085315,-57.71186413678033,1735409366990.0
-0.024235072018677944,-495.8753689237328,-498.8901284113065,168.26867331145314,0.021729280613861174,41.44834634102231,-5.177861823591101,-9.78406106769977,1735409367020.0
1.1598901619408144,1061.9051811984807,-149.34207724279347,418.29596950132196,0.02123509666974146,14.319378665542319,-10.968754760597795,2.1344408215476802,1735409367050.0
0.809902323770366,419.16504476154324,-577.9341402580951,-510.468497363545,0.0285172206750566,5.661106353564645,-18.744868555657888,-54.612440088821344,1735409367079.0
-0.5768693027428796,357.9194034659993,-105.4605815476909,-578.4655123075369,0.07015394844414338,31.166889229173762,-2.641636962651609,84.94342979706157,1735409367110.0
0.07068449909679747,118.74758291392709,254.31188328516856,-22.97280597456603,0.015839028332548293,31.038189259164323,7.094001149479077,4.724661107949117,1735409367140.0
-0.32229790574011846,-62.7360619225999,-100.83474163407102,-276.19583489973735,-0.0016306246965649487,40.07345140029018,-8.786772572329756,-19.961100294337577,1735409367170.0
1.0717377948138473,52.114335099111344,-437.32506823909574,433.5710732012376,0.05042690773641843,-42.66802848838212,-22.23401447896847,-8.309416284489615,1735409367200.0
0.1262873692318304,216.5126567949549,-128.2218046046812,-23.896226400193598,0.05011445906447383,-16.05774364264035,6.332992368281066,-6.167573940460954,1735409367200.0
