Acc_Betrag,Acc_X,Acc_Y,Acc_Z,Ori_Betrag,Ori_X,Ori_Y,Ori_Z,Timestamp
1.9570306391654015,-1000.2854262750812,34.195679598711195,879.5613260130771,0.030052205333168377,-2.2243695860731343,-1.2450508791749222,-5.7065469813148075,1735404996705.0
1.5804639691392168,-390.9283699795833,-436.6412353413525,785.720418288349,0.021038894508806638,47.860967330455516,17.61094665838317,-1.3187676503387165,1735404996736.0
2.373041592445433,186.6279556768813,-898.2299307574119,1353.1370240564097,0.032125701728851055,-48.73318295169303,10.42130449275958,21.537136665019233,1735404996795.0
1.229901381583641,-645.9018204949834,83.48446232651226,412.8758893645338,0.022404154448197815,21.29164425763034,3.3139493091989785,18.859981291824212,1735404996796.0
0.6384061300695818,-58.91829824667374,755.0385868777554,1267.8111778633497,0.019838462686093065,36.38987783019611,4.343077633277085,-1.4140470211807612,1735404996825.0
0.9843541741834085,-912.9199608092016,248.08572795832623,545.0469730045661,0.013928504888242205,57.67590698195143,27.271456965882408,27.78581390390901,1735404996854.0
0.6435261198611422,232.27507601176427,-735.3043596914157,935.1163635625796,0.023881583423305503,32.91972531478193,20.927775828939097,-53.44623575650648,1735404996885.0
0.7293681177033243,-168.0871424498563,-633.2537400935025,573.7236549526006,0.020636597389263045,-25.003581745491797,11.424803645177423,8.955848966796147,1735404996915.0
1.2061599759116577,-174.90750824269236,488.9841576354253,736.3898318804731,0.011129812183590142,18.22672940606109,32.452880698044034,-0.34616014298311004,1735404996945.0
1.7613570771855698,-863.596592898046,-388.59224627481836,953.1282365362516,0.017902952419162704,0.6955985349953653,8.474331942194226,7.98457104149519,1735404996975.0
-0.3310441179124586,515.0161283122744,712.9434053942737,1413.2672306226498,0.015550964947006514,10.877865936466517,-4.606223676242983,-1.124311120617083,1735404997005.0
0.7876146261227623,577.2561750940542,185.31242682299876,927.4133124427544,-0.005897489604967637,-29.713621391172975,7.1919907452911644,-0.9939396294280431,1735404997035.0
1.1315818043212877,243.17746267855415,-709.9296113718717,1138.2159090832924,-0.0031093156547992284,0.8060249322506874,9.334002681509439,-2.083890024492587,1735404997065.0
0.8374093871703453,-31.557252727980327,869.9546300089211,544.9898131022434,0.004384663973226883,-29.475393010400495,4.320441752542555,33.23621835133147,1735404997094.0
1.6321390176407142,-864.9068657176047,-417.313137275963,1129.5611996487505,0.01373383764611103,-17.4124910619507,29.302869170990313,33.818986826119115,1735404997124.0
-0.10358373890038053,-632.7074543272538,-862.5613691136161,-70.6964257856872,-0.00799858920224632,-19.071785182622182,21.629236736977962,25.683192535752163,1735404997155.0
-0.06773651788358363,288.03107387305965,-1008.2873135235606,-932.7918865419423,0.02630276773433038,36.41231212530376,31.26249496006806,37.084287190066235,1735404997185.0
0.7854432676112814,-346.97146502045314,1058.3571390615887,255.49290423293905,0.05013033528236491,93.41781931371443,19.12091077657456,-18.75598667409514,1735404997214.0
0.9286666067712233,-1207.6398806413795,128.66797648596554,-221.80357972641605,0.052249636945738705,-36.859592886411725,8.004830814902448,53.62989650060785,1735404997245.0
-0.3201949904778745,-736.6302930823831,-84.09635873620942,283.93513518070523,0.06879429778262493,-34.18315283857098,7.292379636816521,28.01252714627679,1735404997275.0
-1.061055340338198,-206.83385353520046,-79.03779756354675,580.8351694136566,0.03405248460189911,-53.011074467288,-0.23904814248915462,54.84797391892407,1735404997305.0
-0.15140508993723722,86.05162216024401,471.254277297443,-638.6931617110095,0.05674531266042225,-91.65755561317177,18.493295686590358,49.62906548969141,1735404997334.0
1.7115875213106109,327.70562909343425,-410.07864812160653,-1336.2608168689007,0.040231749829706974,-35.630665428264635,5.038597176842732,61.360928738582984,1735404997364.0
1.150067292094967,379.72132173956464,-632.3416255425268,-2613.190485532205,0.07420219028640113,-71.40219942429209,14.556319890308204,-10.86842064766644,1735404997394.0
1.4207961138500536,-87.00182346426664,176.9519296003084,-1332.6322354661638,0.04534738383785789,-36.1990980235022,20.9601718825174,-23.71332171820069,1735404997424.0
-0.07889848033210208,-10.497771591727817,-30.37685357579618,-297.0373042046794,0.01056347526181781,-12.780943555813504,18.768678734298962,15.778919792290985,1735404997455.0
0.13075612648358964,-410.13921551637543,-381.6446426336876,479.694363443125,-0.0005015418271656809,-25.363592284633334,5.807151951972839,-28.562121642189364,1735404997485.0
-0.38711409329562946,-25.634476785405056,-468.20032747098264,994.7257264072499,0.0505630265911555,-55.288376735344286,-2.141490678852488,-18.797808956877795,1735404997515.0
0.15323435651674708,-35.04300733938145,-34.73808795677739,-1452.279561785399,0.05852758057286247,67.41655063414171,-11.158146146441986,-56.71199016026732,1735404997545.0
1.3271643147332872,257.4155594674666,776.5345226236245,2584.9301828132675,0.06955728725102857,29.016306429463654,10.89343248188272,-8.238324687799423,1735404997574.0
0.4556369653750846,402.46363977306385,-79.67980765070837,1954.2404550582112,0.0482292680019146,-5.858751624582295,-6.113397041028531,-64.56092991726267,1735404997604.0
0.7836408636584488,-247.57900614720205,235.8221011089098,769.8095614276147,0.04055809378042079,-62.5943498667765,25.33588616124956,25.132396187041778,1735404997635.0
1.0740802954709507,-1856.919909339032,-815.481835753131,927.4189764554552,0.002883750978327222,-17.930617430575797,18.564700285933306,25.8535322133029,1735404997666.0
0.8047137536898685,124.68261931800566,75.21814839928402,773.3813925324364,0.046180817697878906,-8.252080399692115,20.18252616503866,-24.189377669677917,1735404997696.0
0.6942742385616458,-388.85228613207494,401.8971620066351,84.83634696280001,0.03507162884412062,-30.33299411252513,10.791129612033846,54.68528997084546,1735404997724.0
1.021672420894154,-301.4873656353261,1105.892081223077,-430.7029980424886,0.012058264081714806,-23.422554577365094,7.699744334151771,9.516465529525478,1735404997756.0
0.47882792220390846,145.40410539012186,1329.1210942538726,-176.21606957901395,0.014267795973527208,3.3451293179468546,15.706994541208418,19.11996473893457,1735404997785.0
0.7028694851900392,-305.35568419029056,-460.91164414590475,1640.4485258098352,0.031959877000138,-39.210657062462005,8.295532233914992,67.50862551210157,1735404997815.0
0.53328267733244,-389.0253943255395,47.931864133582536,-109.34993689891371,0.006702628437316768,-74.21165014276933,4.158132067325251,-7.512331634545127,1735404997843.0
0.8578220745256093,232.94902242771212,-257.2883367434977,877.7673665591569,0.03967276297619178,-66.85381995007054,-11.412278536930717,-15.896207800957722,1735404997876.0
0.10042851344258996,36.65264335800924,106.0878270765339,-290.23798577640855,0.00775831917035591,-1.392021902881316,12.903550724070033,1.9235400750960387,1735404997906.0
0.27530895126448895,573.1446528758231,-382.4206667277234,1438.7792747116134,0.01569368759783043,22.120956336301802,6.898245767759123,3.693636220913458,1735404997935.0
0.9532223975444225,574.9647781368782,372.97582477945684,1816.6185815474403,0.0327375709100995,35.74585818621563,10.986813149390967,55.86153256987786,1735404997965.0
1.2605364621315804,-175.21346019404933,371.19489861555036,1479.890318428735,0.02436310672401855,31.839737691035584,-1.7824977665846422,35.40275622855627,1735404997996.0
0.34366919190183565,-110.3959076158589,1235.007785194573,1416.1228405302759,0.015888532343161767,6.458795333571318,14.945521750791588,36.097458440486015,1735404998025.0
0.18392095631036498,-1123.565246725463,631.6107064240525,60.31863966028152,0.028132885106296572,-22.853413696027093,13.273972272213985,0.5913673173967418,1735404998053.0
1.642892567075188,-596.695179365582,916.318621442722,697.0981847946607,0.03298532845208496,73.65468508427831,11.680710499650443,-3.6393810069159436,1735404998085.0
-0.39510632949137303,207.10613301310474,-94.66411322070914,1174.9384295637162,0.03468227536942625,-54.46744721025562,14.333185433241237,-22.083145470247207,1735404998116.0
0.9106726133402798,-383.57638798471646,-473.2093726041744,1603.7694987630298,0.022170841212940686,-14.106211031578104,0.5421640969102768,64.18956282052764,1735404998145.0
0.6297921615499389,107.56288343098669,-359.6083221642539,1891.5843171119996,0.025395795335825783,1.231566853349067,9.731230257057376,-2.459845876333816,1735404998174.0
0.7966032437806867,760.6595224734542,473.40103914392625,1353.4920125383828,0.018946433225586364,-31.094446120135007,16.46524674582532,37.19618336231148,1735404998205.0
1.0437841885888466,-699.5143659151256,359.05613069956024,433.7654020306535,0.027774054455373,-2.390544230467456,6.621182145511854,75.76423832582076,1735404998235.0
0.6142354658402309,-463.069790033459,-74.62131475584147,1419.9343829235233,0.01827628639393751,-30.51307197944132,1.270941336970946,27.552563751314143,1735404998265.0
0.1264529529938896,-774.8574036290262,-178.43972900485454,315.2719816124436,0.009505273424860603,47.44936758270394,-6.915389472866073,33.19467825610466,1735404998325.0
1.4958617401101528,274.57332505846625,-512.2611564408792,478.1738019808528,0.04402485029959949,-9.432567965455162,20.937902128191,22.809068803401406,1735404998326.0
1.1337642007151807,-0.42625289695581614,-510.0234046835866,1004.8205361773419,0.026255138191909923,31.266937539468703,24.364328921721587,-9.728932394822898,1735404998354.0
1.2989999564038586,-44.186207585094365,446.2322969995076,-273.23277612424477,0.02448365061323747,-14.122849209258392,9.757001274657298,30.70115524023375,1735404998384.0
1.5749986781929999,511.30519204038615,419.6329651839883,1534.7144805188168,0.017332188130643536,3.766635323027547,-3.003532700900047,17.012993552343367,1735404998414.0
1.4166964928354895,227.28537087606412,395.73815446154344,2062.224715337664,0.0548678576355478,-36.785237405045365,20.383987315561004,17.83343558784684,1735404998444.0
1.6057426431933144,-997.1028244906356,168.55208760565634,250.49657701436934,0.03279882423587956,-26.51065394620667,-4.936636571556127,22.799706889267785,1735404998475.0
1.2691363865190517,-668.159754358713,-473.20020465257693,889.3704388689221,0.014759468000379807,-13.642815528070427,13.256360845502886,28.056217712635807,1735404998505.0
0.32721802647451304,965.0844212878549,6.49376756438814,184.73506860272585,0.025661727738866463,10.241852511995088,11.750576816778693,-1.6515530136019692,1735404998535.0
1.7285433960895877,264.18656282938014,245.7636628581971,1364.5488885889497,0.005284923206991726,22.29489544363464,6.039285832009167,2.8190929586859177,1735404998563.0
0.497324603483126,635.1856752802481,865.8105049051746,2990.0007678361626,0.03257870423607863,12.910516221570973,-1.6878902203107646,15.643699506455393,1735404998596.0
1.0978062990956732,294.20191273120565,226.62556626884475,774.1523471667891,0.043415354336737516,-60.86954247569412,14.435267974142976,97.56998744396941,1735404998625.0
1.3489132169579092,-904.8595117461567,327.25880474908604,-59.11429001639692,0.04387583797327544,-8.857514298230187,23.34319667710506,46.92644953610945,1735404998654.0
0.026899552687723705,-195.30595239595823,-239.53322936952452,1540.9967495835367,0.03597040564769255,7.382898521597119,-0.1594008796625026,51.178512388998506,1735404998684.0
-0.22025390655857113,-197.27786119055605,1553.564311431847,2663.897475842141,0.023381213698589313,12.40916584767764,3.1563419870758356,-12.353456453735966,1735404998715.0
0.3313871955687617,-1215.8809923711374,99.19051745510117,983.9504516793554,0.011050220693973593,-6.016018195269369,19.760848495959692,24.296886129251984,1735404998745.0
0.7846493119971788,-38.61626435628898,391.04356434735246,1288.1889958835861,-0.008115354587919395,3.9891617781779765,29.21081418985108,43.03155958665899,1735404998745.0
