Acc_Betrag,Acc_X,Acc_Y,Acc_Z,Ori_Betrag,Ori_X,Ori_Y,Ori_Z,Timestamp
1.2357035735630735,-652.398206336665,1007.1742667356974,-160.78018127675963,0.04441075374611447,18.82888474382612,-16.931923636424525,34.3773384200085,1735409480332.0
1.2934781115674567,-266.89854354780863,410.46093757426803,664.9085779720316,0.020683691970668716,35.874460543088944,-17.559010435146103,-1.6750224065919888,1735409480362.0
0.2210796811054333,-1324.8401877941856,53.87069087492648,-260.9548111219398,0.025736283006248792,28.453811627784322,-19.72274405329021,-26.979502749532287,1735409480392.0
0.7609815258331296,-762.3610523478843,845.3164838164871,569.8284146122153,0.04565475002441077,1.8259020027896682,-19.749351209323148,-71.14808823094245,1735409480422.0
1.9276805242777715,-1140.7958413780768,792.1586989123047,212.2104710380663,0.029553931693536123,-29.85043664139334,-10.629456110180922,-67.73651065606498,1735409480452.0
1.122480356579529,222.94617894495764,673.0302593626689,454.0802504363984,0.047040549579143054,-44.415252747703605,-24.158156596914324,-7.460677060886255,1735409480482.0
1.2049045236378377,-943.6119165134776,1319.3358874573692,-913.547208907851,0.05759805859561117,21.73708358136296,-26.13638440198024,-55.369147596944075,1735409480513.0
1.7618385950781423,-703.4927095254236,1287.2660916219534,53.63021435643768,0.08475741500772535,6.147010043817916,-12.399447055254338,-66.18114574302834,1735409480543.0
2.238410099012108,-1624.5900300644364,680.9417951188589,-711.8719081674742,0.05732122600857961,9.489582627284818,0.10620044183907851,-18.143861603891224,1735409480573.0
0.7968832642731457,-1113.5949722049481,96.41231345782103,48.446173233532434,0.0254959177264244,-12.27649923578597,-26.09188867293071,-35.319161669330164,1735409480603.0
0.644299055921898,-442.7118870624737,780.5223864795772,930.2271673705213,0.05144022174278173,-7.192582954166902,-23.930983140491108,51.24481377927915,1735409480633.0
0.6682225982575387,-1165.5830850629527,1052.5234888726602,557.889142747758,0.04648750666452929,16.957365399029545,-7.6586066613244945,16.545834932519572,1735409480663.0
1.1200257695489204,-284.22792809805577,956.2852767627161,1212.3275204179936,0.03832852332954728,-27.38658254734807,-20.49988017604663,64.97275500212267,1735409480693.0
0.9791823335677211,307.0868578915539,254.90545005020658,-2024.6352490696472,0.036987230027975104,5.155946376726034,-9.235231566198124,40.52917705825964,1735409480722.0
1.596624156835836,-768.0525224995307,1014.1407371038728,-192.99590846060536,0.05489805583377391,56.22625099560859,-3.3239512432563725,19.49963974530486,1735409480753.0
0.6617712248073107,-685.7893629535794,818.7156616692879,920.3047967297277,0.01898445308790625,28.722273484028904,-20.348746042075195,41.00534245206764,1735409480783.0
1.3132082691085682,-204.15855952353098,268.2844234648666,1213.0283406375377,0.020574688037645842,-52.29306952217262,-5.612003576163673,60.32835384818962,1735409480813.0
1.1292179906827466,-337.234466676702,962.2959923501394,1254.9496837199115,0.01057749828248904,31.377473504104678,-20.579985763483382,59.14163645018404,1735409480843.0
1.2558247790644497,-190.10101556133066,1805.9832513366425,-631.4136190345304,0.039620679350028165,22.50170947755009,-46.2617577493656,9.710865669320233,1735409480873.0
0.9932551549011831,-951.2808697389561,640.9204926217501,-288.7627319867303,0.07430505691765035,32.54622617872495,-20.968665088440996,1.734976661075489,1735409480903.0
0.49918787838211565,-504.7464798232379,888.053612073068,1307.6444067717587,0.060095409498411044,-19.09365268081352,-32.265614397784304,-44.99605040607335,1735409480933.0
-0.20263800587100433,-1031.723482232754,763.4084270842027,-154.51830459909962,0.04924789338804018,-0.17929989973116278,-5.568044817396203,44.88810312461081,1735409480963.0
1.5229280593193684,-1153.9133546802975,815.7910925909584,260.04878830745395,0.048458277742848034,37.68829452209585,-17.063960435616792,-62.212033131991504,1735409480993.0
0.6881966606641585,160.51598877585866,-209.48755827396144,-1093.4783576659192,0.04413246047757452,70.20274221805859,-19.324978374125276,-66.84991024461856,1735409481023.0
-0.20215400524720234,-537.2681335353908,228.91505375505946,22.803567489571975,0.06405227780623357,90.78078413969078,6.225741760754394,-30.605429409706108,1735409481053.0
0.18467709884546435,-227.3165081248922,512.4244386073533,-648.8679772311959,0.01567796059578632,10.116137271748155,10.797264145726103,-32.99778419759466,1735409481083.0
0.7282983222782444,-275.789750794749,450.3935839544101,-440.57756472568155,0.04718057415597764,23.344094183041754,9.231109227142875,1.3586357894766152,1735409481113.0
-0.9472415095753022,491.75836169944137,598.7619385251701,-389.2663378027105,0.046738873088098466,-35.45810488681715,-14.89530637388604,43.41031292014061,1735409481143.0
-0.34739591197116193,464.7084742998168,-233.14729268037829,686.1118024505652,0.04807148710851791,-29.992625983094552,-0.6456373256578409,21.4401513091358,1735409481173.0
0.22034554672622186,-866.9011202284371,676.6961164387344,145.9100425277816,0.028132917064364108,2.837864187273343,-3.261480755961573,-51.5778096971663,1735409481203.0
0.279584304048306,-136.38195034780279,336.81995170026204,-998.2203622658501,0.0360665106690605,58.592802681507564,-1.8318455264023328,25.87943126334171,1735409481232.0
-0.511781210634532,186.1804252140008,182.86443955927967,-1024.5872559159425,0.02490786822461112,8.945210278638125,-20.585563941297206,26.640639093197414,1735409481263.0
-0.23832315646070118,-586.8137244085649,597.5601384607423,-950.9092317294917,0.03041443844313821,13.227745424840656,-0.6445909293640026,11.401109736720997,1735409481293.0
0.1683442036445712,-714.9769394085127,-719.8959490459508,-668.4692974085002,0.05654522393284394,11.073585134686635,-14.068585576350841,-13.28193862782506,1735409481322.0
0.1332705330376591,941.0135492526783,-492.95197159507336,713.1318315444965,0.04426593887225495,14.630406067240713,-21.254699208012653,-29.181494148175112,1735409481353.0
0.5896621972112134,-80.40448706883376,337.5319189959157,64.61305377209621,0.032627091119474386,22.057097831962814,-4.834615662992746,-57.94256029249724,1735409481383.0
0.13297566061280747,676.7077731520824,331.3627793825178,13.208079962458989,0.010986526224449133,59.97650941213657,-9.015871441637145,-20.756278661713676,1735409481413.0
0.4373509466775956,1116.2863561627382,-413.8954116877965,222.05038305889357,0.03014556434535238,39.29164044538507,-24.196206368930206,9.462645792122682,1735409481443.0
1.3646389267418657,364.27012785588687,-1170.9989376487747,-1387.3709676291364,0.03806213746529465,44.67876425918488,-7.6092299624867,-87.92489616162952,1735409481473.0
1.4208367803599227,530.5652283697419,159.44363671982816,-705.4140824142428,0.04124959229966735,44.1661565289343,5.988821189952882,-6.879311621888279,1735409481502.0
0.7720992885497169,108.77737952944136,-63.67641109552571,1143.323278544025,0.03209404125490008,-2.169950602278206,-10.923933434415213,3.259897487378087,1735409481533.0
0.26471022255311527,-1392.9877228952723,524.8599222927852,-741.6094546207348,0.027116586334513505,21.368714020680194,-8.066524501931353,-11.23799520033036,1735409481563.0
0.8715396421597097,-171.73286604365444,-617.570262841699,-208.63288831964957,0.044012619911337106,5.448100857530054,6.692394381724235,23.34944706065193,1735409481593.0
1.3429445268032936,55.660374899928684,-103.06541297639285,-748.1743042707019,0.05542371754687619,81.04578888016613,-2.112832373107259,-32.07485292960482,1735409481623.0
0.37487331899503606,-121.14666271474715,-634.1810308019856,-450.44756933246265,0.1004108886601974,-67.62313397844784,-7.06660288058014,-52.33739252455793,1735409481653.0
1.2229839721544458,-622.8192485655851,-571.7290334465016,491.6151414303848,0.07736121843009389,-35.58982968505198,-11.031387197331657,-18.700971263334157,1735409481683.0
1.18720612044341,-322.76142066576426,-522.7847260491958,580.0299099269712,0.06253960630162969,60.329925078551355,-12.302356865795192,-41.61345982244789,1735409481713.0
0.9630208566150187,-918.4131267253697,-1233.1254494769523,-119.8780206095986,0.04019243743175474,46.857458607600236,-17.84521901033944,12.071181043628023,1735409481773.0
1.1882346485008213,-602.7626335515242,-505.7061906959399,-1703.671197557939,0.05422709416243192,35.29937364986398,10.157199514390426,-13.495472329872634,1735409481803.0
0.9116014169925067,-627.0321170788932,-893.0925246584534,770.1003995169453,0.034359871511715726,48.22801249042843,-3.024557511697913,-26.378499452452928,1735409481833.0
1.4345983076673514,-1045.6449104334924,1009.2959943690562,-5.29858328182803,0.05396510046641816,59.40176496922514,-4.33272183256907,20.131909466234834,1735409481862.0
0.516337144328322,-444.12694040051986,-38.019237756921825,236.33748862883908,0.03610749467254553,79.92059302868705,-12.740363539986937,-19.195043601502,1735409481892.0
1.895587899273183,-1287.016146474527,-785.1397033740482,-129.67463017573058,0.03262898729285974,14.368507019224612,-1.589009293383183,-40.91974318947544,1735409481924.0
1.1753516275224216,-917.865695401003,-1013.8384222704863,-320.1854159074176,0.07689534850702989,26.585527414171715,-19.73644438782477,-26.611306745279084,1735409481953.0
0.8130158465489272,-1110.3783096091352,-1553.0806975952005,-737.50980065626,0.01927558621649338,0.905149434067134,-6.482709607066342,33.57666189673887,1735409481983.0
0.2557595895066237,83.64480593542987,-1071.3968386087377,-1986.1503700643839,0.05960986449495789,5.196516503845679,-10.005438748923194,8.524981680746318,1735409482013.0
1.0963340265416135,-589.5581179384847,-1237.9021794579876,269.8150315271681,0.0584047150251262,21.09244852446337,-2.3628764487909284,-33.878775876964454,1735409482044.0
1.3108206212518063,-901.2156714905759,-758.9614535625351,-549.0745148258956,0.054334554348831214,-0.5737488082073909,-4.580422328363062,-55.54346290525383,1735409482073.0
0.8319249915031619,-1162.1384335007901,-1055.294044387122,-446.4948837500607,0.03803792703233834,87.4665919597305,-20.470484259717544,-41.98255419486575,1735409482103.0
1.1703719589493118,-825.9092503125206,-389.1672356899933,358.811686347571,0.03124027175406611,59.02603649103464,-7.612262177944715,5.203143585748894,1735409482134.0
0.8207329793619955,-955.2182726031057,-1002.4626386381851,81.85092275990161,0.07336755166474983,4.994776915862264,-6.569933484534563,2.431649608038299,1735409482163.0
2.0780217524210327,335.2804611458863,344.0302332551887,-184.04909314293477,0.02558790304110646,14.133509439097033,5.699232744377731,47.50968983450709,1735409482193.0
1.3382828230030872,-313.394118371062,-544.1675652034676,-830.384785079244,0.008928841175516688,48.485656164007,2.8940689290195185,-21.59760796627328,1735409482223.0
0.4285757333893223,-456.4214335418186,-341.67939333392764,-1632.4469694071352,0.0617728932247781,47.74505606999932,7.247325275162624,2.9059253963063507,1735409482253.0
1.271536991265514,-614.5309401912396,-830.2160820630621,-669.6488375800973,0.04745831650114338,33.176572378260936,12.393098082729004,9.837610987294262,1735409482284.0
1.5875685253151333,-902.9924247361305,-869.7474576808836,-1388.817313871137,0.04862155054652404,45.88319012665801,1.3258095864125143,27.24889846330544,1735409482314.0
0.5865513335080785,-473.7719059452046,-1113.491362712436,272.4418661853741,0.032150600542780336,70.65224868398462,-17.414241100732887,16.01525904153779,1735409482344.0
0.6141435708152159,-307.40485568582795,-1544.5171047186068,171.25668234827015,0.031905784830613994,61.91113597733074,5.536502349027549,-13.33221162670469,1735409482374.0
1.5162469684679265,203.94272554765405,-340.7044282766645,-1307.4841981510258,0.044757543527162345,-5.945604959257686,-2.200116765019838,-16.496340341676117,1735409482374.0
1.504627669360315,-929.8383122967691,-667.6054923073435,130.49510429791405,0.05158614740555263,59.27824394441505,-19.152781423740272,-78.01679697118205,1735409482374.0
