Acc_Betrag,Acc_X,Acc_Y,Acc_Z,Ori_Betrag,Ori_X,Ori_Y,Ori_Z,Timestamp
0.483862518794955,655.3176242760716,-1031.9966391692387,-537.0862092092989,0.004805395793452074,17.77851038560999,5.073066092277395,-36.6461416290222,1735410056677.0
1.0608933489286767,-262.5089406242239,-881.4593409458012,591.2630540265999,0.008206800704592865,13.277114944954162,12.00909407033392,22.398227546466018,1735410056735.0
-0.01962666933666979,891.4513982946382,-1290.9973436782261,-1078.8643098548102,0.02873098288432291,-3.7515396350678776,-2.1533598774694056,29.823459937275352,1735410056737.0
1.5632988901688827,185.01673343304014,-906.5528365880629,759.1981653897059,0.017219963145760256,2.5182244026394884,-10.545468473146917,18.217293491607407,1735410056766.0
1.0949685942015746,305.69700713873,-832.3871057265819,-780.1504744386917,0.007607375157240035,63.61531160822389,5.937123139860255,23.924919629470516,1735410056796.0
1.6442610644215474,1487.2191621774218,-851.2738426442783,-695.3244286038807,0.004864147120803634,1.3221829854970601,11.104497292269418,-25.28336887889117,1735410056826.0
1.2530848699605681,600.5015336818738,-626.6133176997785,-771.8844148145151,0.009516491565134589,47.203284014674566,1.568603962161884,-41.41229122059828,1735410056856.0
1.1272842209969696,-26.91327546167838,-907.1209104284164,-277.9582815077688,0.04495527269992993,45.53137314871835,16.65515439870538,-51.406915040368865,1735410056886.0
0.8378550436869985,687.971832360843,-657.6264008988569,-601.055418151008,0.04715673192812756,-21.18061197713013,-8.104188515091382,13.289649782119959,1735410056916.0
1.7359439444052025,1095.043948920611,-1152.4118195636954,-1009.6743064729776,0.03464341337191105,7.524394250592472,21.169098712372033,3.683687050042817,1735410056947.0
1.1027003522962842,1185.9218831760422,-798.9919916935472,220.37661825046098,0.05954328427803554,38.39387111260147,8.729498384096042,-21.871482435001674,1735410056976.0
0.939793985945648,973.0136919628488,-1039.2485273465502,520.4958719073256,0.017087270691347436,3.52427225853957,17.3269189750837,4.037478531372152,1735410057036.0
1.058263969389398,1419.0054029050275,-870.1525998571552,-825.1887509051245,0.022550597327206816,-16.938960737646074,-4.632809524964712,-52.89937348450543,1735410057037.0
0.24141237858629017,1007.8193415529902,127.09785753469544,147.31186718268054,0.029489899319826835,-43.27934538546846,14.124566166965813,-24.0020799312105,1735410057067.0
1.2285623020556768,2060.2017257808857,-358.36081456960784,247.07605536798167,0.058685387889374406,5.597624629811251,5.8807099459538925,-35.60219525143652,1735410057097.0
2.4467074341783577,2636.0952562152393,-29.919543519474047,2547.623658264435,0.048156015543455916,-16.3974222895807,15.606180138695228,-51.48880004652819,1735410057127.0
0.6577834246212871,1320.0983504313508,-433.7283347271218,1184.0528730564042,0.069817745983645,-37.440143757651725,7.443411996632626,-116.23086339485715,1735410057157.0
1.8177264822696897,1472.855171988289,-143.3777150521273,780.1703548973771,0.06851941980711228,-41.64740701044218,19.929670599346988,-29.75356885740137,1735410057186.0
-0.13736396025680842,-515.8448408274131,-722.7192465885146,90.21401253944919,0.04760710252577746,63.26339599724382,16.125084345799998,36.327945832800054,1735410057217.0
-0.3820145602363008,-120.02806815671744,471.87696185074486,-881.657098019953,0.044317656027821964,50.067459958771025,-20.78063792759799,-16.82502151525896,1735410057246.0
-0.47851597960895326,330.19151101132945,658.392372868772,35.88509017257626,0.04795551383390424,-28.131215133435184,-21.010324972832173,44.770550333065316,1735410057276.0
0.07007457240373541,-264.8986768863098,343.55680045785164,-994.6020212557512,0.05280359661703994,-14.339393822524567,-1.2620419555519948,71.04846579773564,1735410057337.0
-0.18445238237475206,-96.06987521110038,500.266862140691,320.10792068470624,0.0466781375996201,-16.22905282897474,5.848218840008083,-10.517645456399311,1735410057337.0
-0.20073892304536037,93.16293581672555,475.1767843460002,186.88019559475387,0.0470184124506876,-43.588633896548885,1.853469310431935,-14.064908737090825,1735410057366.0
0.19975032171394605,-30.3734338994212,694.6356821977245,-874.8160325663279,0.04301420876504686,-42.07561523517821,-2.9054055218598815,-2.6060713458007925,1735410057396.0
2.6148802702407634,98.35789515505417,461.36204045761076,-751.9082671111623,0.07797361784215578,-18.796490389275863,-3.259408779253407,75.0684686344292,1735410057426.0
1.5724742322613534,967.2523342929638,2026.8696544338595,-3408.749751091682,0.027921642968437112,-71.62065382779984,-4.091691554049071,22.42647026706536,1735410057456.0
1.9458437176083674,620.8882085753761,881.5439783047109,-2594.841932030258,0.07281819340767381,-43.27655451475154,20.128319665404128,-2.086151048103499,1735410057486.0
0.7162612879174995,-299.06215395510895,-877.7849863940999,-1478.7345103091825,0.037724327155183576,-14.49030458552171,-27.59715373146879,-56.85496726133914,1735410057516.0
0.48555431143388694,446.0074925747146,-166.58066411082606,-218.93306891512526,0.03732179195952303,5.142957570967203,-19.661787868036782,108.27349003564368,1735410057546.0
0.4777632652177981,-262.8007699487455,-263.63168636255546,136.94862949825972,0.05136195211791743,63.03278558374507,6.3710211002185275,30.249692016355333,1735410057608.0
0.6566649489356949,248.30306059165991,819.3480439915837,-247.6634227726023,0.06642069123191775,40.988663957248406,-4.124354788280809,-70.90596656321196,1735410057608.0
0.5356922914257682,64.85814155916688,-744.175050998572,34.28465613414886,0.036891978711584845,-47.7508660657876,-15.326785662737898,-27.594589253159725,1735410057637.0
0.43350997372962674,691.1418956286857,263.27944512906623,-233.0029737553939,0.02953235003489156,-15.213504187180211,-12.173630361366905,3.894462424365938,1735410057667.0
-0.16520785489218875,48.81002964796371,53.15491838072232,1594.2920149457063,0.08392576398088722,1.479353633509767,-8.114380198645303,-37.46589149345014,1735410057697.0
1.5405807988567288,-450.90887662508766,-20.820851853196416,1128.661820405367,0.07596274882552523,33.89425646767905,-31.292449455194728,-35.35105562359113,1735410057727.0
0.8559597118735868,-227.2301625474182,283.5772251282595,2041.8055467561564,0.041929406028213614,-18.060235389882408,-14.363540620217272,11.571917819359516,1735410057756.0
0.840673790294217,194.40343269879943,538.484779132447,-364.7849961487067,0.015199277603356449,-9.17537217953769,3.1836107198415933,58.057295640701824,1735410057786.0
1.37812494662439,-577.6786887408639,21.57647108327103,98.75639330738841,0.037931242448512384,-0.7016738676053123,-22.66761074522852,-42.49443290692864,1735410057816.0
1.6418251558182617,-459.9119557276148,-50.996142131668506,1993.3477431282113,0.018492020921087017,62.14142768677507,4.774174019821554,-45.38487916727277,1735410057847.0
0.4807240711631334,-822.3298615834042,17.060851694001485,1597.032256853588,0.027772509840615064,16.378450275884827,-10.03314305959894,-16.01087300637634,1735410057877.0
1.6939743158712899,-300.3513317495791,-1281.7601522295142,518.7146966095657,0.025408945305082607,38.381157071984404,-1.2844666496428436,-15.767076776124942,1735410057906.0
-0.1727575216522952,484.53354612436647,-506.894727857455,1231.9024723002522,0.05013039117765188,15.69885165618496,12.48546611032289,-92.16461931458355,1735410057936.0
1.4824370126434476,-301.43368318638255,209.29849188064532,1419.9132744471203,0.034356182421744916,-11.947356100304289,-10.767674552777954,-65.43145055890815,1735410057966.0
1.7189606423587571,-11.357309521337086,-466.86423691894845,-745.9200410017781,0.03558871219380638,15.697028151328887,-14.351383523816006,-86.71776642494397,1735410057996.0
0.8701585101440417,1088.9902171394908,-96.44780020386588,-253.8591391250959,0.03795636375437187,21.239449789480343,-0.8191589325485211,51.47030162408185,1735410058026.0
1.7347766673825233,300.01665556274463,-999.967240726406,1036.0484235688962,0.04876196413814513,11.895688437569087,-1.432428636994452,60.51538174705139,1735410058056.0
1.560156294937834,-309.84528850272386,-72.36618918419683,601.9378748997403,0.046253818179497266,-53.62419310143474,2.776983195773387,29.677061001537464,1735410058086.0
1.052371441232842,-323.78364816298745,457.4219778353025,944.3150836728148,0.02507075279430566,15.393966973658316,-0.32274924655819087,61.20396624862296,1735410058116.0
1.183518048034492,-674.8767925320343,575.3204342234599,1349.2959343713603,0.04294016723271784,34.810787146439914,-14.423736605585443,83.99847800678862,1735410058146.0
1.7140510899975752,-336.4491378692144,-65.44796198376196,392.27804016674565,0.05294651316847551,24.481134427285607,-12.301196806621828,75.14886106311164,1735410058176.0
1.1276525342430763,-315.3794195681753,-13.31846737633245,1539.6046567444769,0.048143900749432464,37.975958355385146,-0.3711405758475985,36.95122089377898,1735410058235.0
-0.001697532088033471,-495.13823116212325,-968.7216046174351,806.6831346057966,0.04019074996611046,11.040300764509052,9.767186231994211,40.11113501070755,1735410058237.0
-0.2509634997969674,408.39000785686017,-783.1316330345813,1404.3378943160951,0.031872696680268965,-18.941248752418606,-3.090840678814134,52.48827252751735,1735410058266.0
0.9309369653189037,-176.4160453227548,-235.51973551145664,244.61759164710588,0.037162639041985635,1.3548594158856053,-12.96027455247256,51.67872154246543,1735410058296.0
0.8029642160382795,-207.30756758159583,551.5345374878139,1409.2534263806472,0.036847770925931736,9.229879745354118,-5.5687121690027155,36.05409985648946,1735410058326.0
1.4721713969406014,538.1759008948075,-4.568083628329731,719.3647499395099,0.04002350162649093,44.01765370424258,0.3091284296742818,59.55711237955155,1735410058387.0
2.438263376355623,-679.9781110633955,-1173.0930559677886,2222.3237168261126,0.020709147597799345,-13.018711128833365,3.7090597458356394,21.9802843950919,1735410058387.0
0.7703363070280763,368.28837170579754,240.6114971699218,447.2981143704622,0.04665656508151719,27.024696111151375,-6.834104230964348,2.830300143113977,1735410058416.0
1.1100306819015988,-377.33713290388414,360.22271422172605,1190.638991170321,0.04442941384657599,2.140067246036836,-14.390902474263498,-26.82566222787538,1735410058446.0
1.981379441419202,-228.0312224023639,-732.163828362806,1523.8493361182382,0.028006572071331177,-15.778093821399677,7.168416680300911,42.27969777209276,1735410058476.0
1.0308284054804726,-1.9021075917102763,-83.42910504184832,503.816996917148,0.03978849881348885,-35.87974595642626,-10.286843065180022,-5.920063862752368,1735410058535.0
1.421158570179945,196.19798064124473,-676.6157110809818,1961.5636179953804,0.01799928536088479,-23.99421174483497,3.094165701661858,22.374873273863656,1735410058537.0
0.04226174154849638,-219.99498824370053,477.168107528611,-290.51257719585396,0.0319416351225231,46.4906144187132,-2.3772324855618807,18.185980945785296,1735410058566.0
1.1933015501692046,-320.1613986728932,-307.06526634587493,1769.4022066524026,0.013680354815437525,8.13604524413838,4.663671272562311,18.31311589797435,1735410058596.0
0.5017639453519898,-6.755575363985624,85.9355772440291,711.7849056235452,0.000510388614593342,-7.025457730648088,-1.2625634196559439,-24.030495191700595,1735410058626.0
0.8317525398339627,683.6548812750066,-360.54515670506163,1503.89124146474,0.030346656679085045,-26.748047147741747,1.239458544255506,23.83394149894007,1735410058656.0
1.1192540206751709,140.94712238546103,-458.23077284237803,55.91821730517256,-0.009612896302786935,-0.8128223446079077,-2.1589750419539087,25.25826601293277,1735410058686.0
1.4903617540793492,38.11230266582503,95.8926942102276,1132.7287737912532,-0.008703660835827177,-19.131985559419324,4.868580317052231,51.757238852781505,1735410058717.0
1.096727294380774,-863.1668873433091,-108.07837594864105,1653.9793667781482,0.010504817185972876,-11.895689511110923,7.403759941535512,26.49334961717281,1735410058717.0
