Acc_Betrag,Acc_X,Acc_Y,Acc_Z,Ori_Betrag,Ori_X,Ori_Y,Ori_Z,Timestamp
1.657082121316072,-444.8318074320718,548.254828976193,1659.0188827091308,0.039422406621978975,32.878789726151886,25.947334413068095,-10.708654795804968,1735404996705.0
1.5201874982213917,32.90867552625198,836.5755320141561,80.45906422149346,-0.014936445872355476,37.71253716303985,14.868969685335188,7.309836702216376,1735404996736.0
1.205285643956613,-744.8386127240965,-430.8425626236011,868.3550079890439,0.015267130575997764,-17.26112694612054,20.487180545808783,19.75197632925562,1735404996795.0
0.26836238972321314,-204.48829013302398,122.34999846023152,1777.3835996073485,0.014484826021678474,-13.465221368883437,10.401232074326924,48.0149311321059,1735404996796.0
0.29885733995948305,-234.60588137421985,-329.24671182253854,2134.368732416545,0.04175882591088648,67.08472520710635,9.03020675547868,28.28738550443385,1735404996825.0
0.4862372873209845,-363.1262307534999,97.16563856548302,1047.9133978106775,-0.017965426350168935,4.0776297993583315,9.97829354854263,25.520922784389064,1735404996854.0
1.6166281604510724,-236.20552010512935,739.8785391815352,-423.9305621282058,-0.003443678682261352,24.82194181108437,-1.1190887926321,8.479798633014024,1735404996885.0
1.2214312786363275,-315.39778974676693,1026.1677351487879,815.2250954362385,0.017532013117329957,21.980017976708183,8.914422309545248,-5.621402009373201,1735404996915.0
1.3316306684415513,-581.8303682284673,512.9972385876167,-154.23151249862485,0.021777931199201205,7.0292016537610955,28.51932515482162,4.911831000688689,1735404996945.0
1.3118247951066864,-820.0495707843357,1574.360545900659,54.1255114963335,0.028999749068314023,22.620736609020952,12.716323324460088,-1.6599016086686635,1735404996975.0
1.494426303633495,639.173051884385,-312.54025127158326,3354.4137860149663,-0.0014512247435744564,-51.20161775153444,7.77067056939089,-12.512214438895093,1735404997005.0
0.8883208077382083,382.34219630969505,266.3210892485439,896.1504980442968,0.04433317924188842,-24.261908379937317,23.24206933864899,-2.083876292614649,1735404997035.0
2.0115618413151273,311.3194252599883,-340.93982341608427,680.0506118174587,0.00977115717484598,-17.16279161045677,4.616954883689893,2.6105414573083685,1735404997065.0
1.3634243942222242,-787.2618467971417,-4.11164061903267,176.8048359367482,0.0051251616329512795,-37.8609846295339,14.251946878420334,-25.076747651246215,1735404997094.0
-0.5947813279437948,-545.6857264365466,-461.052732390311,2400.850665907914,0.04058281918849487,-20.792518999587166,9.428363022878663,6.043356784716334,1735404997124.0
0.6216250810049089,439.1042135385355,-118.38451794614537,433.4706723602476,0.02901052489940941,2.291975200805607,14.290363866470962,-11.576434081309499,1735404997155.0
-0.5089600624513675,909.7151712276751,-292.4708817626619,616.2377211575263,0.04984356970313319,29.70044950741873,29.00920991212066,23.6763683065277,1735404997185.0
-0.0038091004230717696,-598.0516256395329,426.1975200803044,-363.1473857578847,0.07650090085890607,41.60167376647652,19.813026204521044,79.46407665455385,1735404997214.0
0.13694523928252383,1061.0298551378244,422.7469960036749,284.7068643497956,0.06261901873011798,-2.1184326218922394,0.7636618678612503,47.55877108094449,1735404997245.0
-0.37404630339890044,295.664599233451,-90.08304004579577,277.7159097297873,0.04180646508744809,-26.927362570011248,-2.716172376910772,38.90807447278858,1735404997275.0
0.2940565817844044,350.2212562755716,-330.10978433940363,-909.3199156119368,0.02341396528001723,-5.94775883799112,18.705191242493292,33.84897608748226,1735404997305.0
0.4483218554926294,181.0614946241741,-122.48169202985865,1357.7220236490189,0.025301494955012743,-6.57297199664497,7.751447462108743,5.118923640489633,1735404997334.0
1.1154798712511447,-25.58612869110496,-584.938454868105,833.4736532742525,0.048628486145067935,-44.79009726045727,3.0913115894725953,-1.0116156342723386,1735404997364.0
0.20760877174960435,772.6084801501183,-728.5599622596624,-924.6535404902756,0.0249490336870929,-52.89198296267696,2.177132549749796,-91.14874263843794,1735404997394.0
2.009199748163718,211.42747863922082,47.59837055113536,-894.8854453294664,0.0510274076814982,-45.33276915158937,12.744131400723097,-20.29328412677721,1735404997424.0
-1.0309803762546559,642.5358232387023,-352.68257506269146,-49.32982209991115,0.021060764829260538,-39.01531390167597,10.636117615637238,-49.596768482767004,1735404997455.0
-0.18225824176737823,-161.77966691958648,-255.60151385854456,-454.5100283985747,0.01756990355785809,-48.090847627959306,-14.538655054290233,16.262612960022246,1735404997485.0
0.4028665857374369,-61.21349630679821,801.0332914363863,931.6282860714261,0.03045965355316685,23.069909274959716,-25.65524119320918,31.222113378370743,1735404997515.0
-0.4239228182736996,322.4515487776289,79.6059018969176,46.2748322037767,0.0433991727785835,65.14690434991962,-15.336139758076468,-14.777978176749414,1735404997545.0
0.8422674449686759,-609.8486936238453,845.9289490481223,1383.863420525964,0.040879222849150014,37.740743651239924,4.996389917266008,-17.666319545370484,1735404997574.0
0.8076974218778105,-624.0430060330418,-763.2045392670491,586.05810432691,0.05448289016185763,35.10802084386269,22.183676871451986,-54.65814264410343,1735404997604.0
0.6537960380643907,-1225.6404774034147,791.0762019885334,1321.4908733696777,0.044475907480257905,-1.1529885637520145,3.3404563246146814,32.09171900516605,1735404997635.0
1.4032732112750284,-1192.2761890446309,-595.9075662122005,-793.7709582582665,0.04458084900596331,-40.3169300693727,3.555132207270397,-13.446005741165983,1735404997666.0
0.634088159767039,-324.71812625649886,238.3391770182164,687.5437385951161,0.027373680034909566,-29.646572510406966,11.60548532221026,36.05210383357018,1735404997696.0
2.0796016786781446,84.67880638226973,740.3299507701296,-840.197662734002,0.02031617485247121,-12.787025588795103,18.214818049962112,97.23741342237359,1735404997724.0
0.7399416583276276,292.1402179724586,-80.37824380003421,2112.240181818961,0.05215510266464599,-7.381351259198144,-1.6344199566296451,-17.570591576135968,1735404997756.0
0.6516624964465935,117.09087176985076,500.88646146025906,-229.3174774045376,0.03728407373822735,22.127111719625177,-2.5954039636582245,24.011341807076704,1735404997785.0
1.0744463986981436,-416.28690430094684,194.27752714598103,655.7617433400088,-0.005763217393516082,10.513433312624237,10.469381064086583,38.241419699171516,1735404997815.0
1.042963036313724,-370.4641571443997,-273.11387065422065,1737.4125332878898,0.026336646583288627,-37.69989377585684,6.21444614795675,26.90850934555624,1735404997843.0
0.8996783963573053,238.99541297669418,516.5898347137536,1932.3150333411895,0.0011080323264811356,-33.106858510311454,0.3182499863788735,82.3563850072185,1735404997876.0
1.4922062510083078,-22.250237096846405,384.70402252611586,1587.5205787222403,0.006568753502276609,-24.967063888647218,7.659848320638935,2.826188424480801,1735404997906.0
0.7588311448140509,-120.42480545856063,-37.083174606266795,599.7821919943461,0.01806221479453533,-43.006083145170834,-19.171061371492186,-22.374436598897656,1735404997935.0
1.937409681063337,-7.297040292740633,158.94720503783742,166.56923457842822,0.007389586616087424,11.494534996650344,17.958079422850155,94.0458804094358,1735404997965.0
0.3390276145100576,-539.9634168200314,374.0881422806592,980.9222998137504,0.015403271563734017,-13.465700397481125,16.764263734856215,7.8085093826834395,1735404997996.0
1.1338184423285156,-812.0193745511174,189.48143665741367,936.0059150326932,0.03904125145955725,-25.15802588492429,11.689087011329848,5.123217083271534,1735404998025.0
0.9555290605983632,-349.8587830814478,-37.58199514338661,835.8840221373938,0.016277313122806236,-35.13867002511863,10.092538195623764,25.664766696843024,1735404998053.0
0.5628966445756054,-495.2067502850217,1283.981328191997,1102.06909656999,0.059759393688311374,1.8362890019131433,0.6034104561242142,-4.365662020071362,1735404998085.0
0.2856153652148711,-532.0013514602626,191.9336970967718,256.76102091978066,0.01845502594091107,-5.807205998939933,19.465906339828507,2.858147432207783,1735404998116.0
1.5105263453117774,-404.3692706629936,-132.70430246605773,-28.03153255327402,0.02108691640821351,-17.24465306517606,10.552117171305596,44.63908355139945,1735404998145.0
1.152237939732892,-522.6002314387708,-73.73792993203163,253.54274286257998,0.03190402781127669,7.7119041741109395,16.89703308704479,52.30406780519289,1735404998174.0
1.618570018164981,189.7639156444718,604.2923860688953,756.2021823942428,0.029425649621217832,-41.87706317788462,15.271304660761093,70.85991743670427,1735404998205.0
1.1306853449181729,597.8254935892332,-145.37597696270376,1606.1880974265764,0.011175036271397086,-31.229692905429175,5.838749681844648,-3.582641739394738,1735404998235.0
0.6323602139833767,-451.64875331212113,-483.21505398321324,56.3121324214618,0.03543855218351698,-2.875203086025198,6.336814674979647,34.775953274048966,1735404998265.0
1.5104647959495985,198.63076705945736,928.6913038895492,1803.1859216057496,0.02160449022746596,27.68161497404636,1.890597891039958,37.442672341672505,1735404998325.0
1.515180760690253,-221.63745578502045,390.12616118277526,1307.5670147622748,0.04290230293723263,-11.823139360138201,10.998330586392001,57.86032207222729,1735404998326.0
1.9171161577780282,627.0098980255091,974.2396519180213,-1060.0770155588025,0.009801359347893914,39.59569475321737,7.789364035372703,7.304879431582467,1735404998354.0
0.6741919014110977,-299.48300731170815,-467.8044101199846,-255.60025094977823,-0.001732747348298317,69.54435532997616,11.398666449206178,8.956611146579336,1735404998384.0
1.5706228400443134,-807.5686166262934,-119.72812033423244,988.5967619045527,0.019218419619150582,30.31613454817176,11.676586063989488,-44.50970717508937,1735404998414.0
1.596358829999946,-242.13780630044317,291.7834151006959,897.9627566608132,0.018826219345799134,19.794991453949176,2.6353542505626573,5.137071053748727,1735404998444.0
0.5529886727507731,-558.5125027978538,658.5199053663971,1598.4810479613434,0.025953280449291165,-2.5766407708364376,3.6480203523279924,24.3636518401842,1735404998475.0
1.2378167959461062,286.7799417721185,-89.39479246450405,1201.998952446714,0.016180477569740146,24.061408073605076,14.472254412232557,-32.53330363392925,1735404998505.0
0.02043352693907763,17.06285095452614,298.72991666641695,1463.8917083801189,0.02454690185507794,22.26171048607161,15.645436125244927,99.99570090442208,1735404998535.0
1.752227838705092,-150.58426324183273,-653.6447479118359,820.9073094471148,0.017709307103781366,37.5841062835699,21.513240578273383,18.400416300111583,1735404998563.0
1.961759265747097,413.43163837908173,668.7813400693866,437.92936758667025,0.042768505782940794,-41.92524902417724,20.137783408083514,12.081634038550117,1735404998596.0
1.4088059666254955,-442.3765030845593,47.06916231694165,1031.5198320598245,0.0326161681245342,-18.85165169392662,6.478557811981675,26.549669290086236,1735404998625.0
0.777051917345015,998.9917205894246,595.9493050764693,2688.543382684423,0.05561337230961152,-12.15146118321293,-0.04784274875518513,57.59063536131326,1735404998654.0
0.6131548959499258,-823.3904909094849,-769.1478391064866,1841.6591400090415,0.02032155301050343,-43.75190125450368,13.153412671006242,-20.22196101584801,1735404998684.0
0.06755012966655682,-975.0504379820397,-977.166000287842,934.6958357390134,0.020649630981647623,9.563803070047067,-3.457077349806866,27.60993454798727,1735404998715.0
1.0844228798562028,-894.2069897987529,666.9425085486962,1261.2577315641952,0.023103422186285735,-1.9544686212014293,21.073403742291134,61.87052076730809,1735404998745.0
0.15720305213799513,-865.0538939814068,227.23575531783436,1193.4830358190077,0.030503034967600453,5.393158597121998,-0.37297160136877494,8.022319511953519,1735404998745.0
