Acc_Betrag,Acc_X,Acc_Y,Acc_Z,Ori_Betrag,Ori_X,Ori_Y,Ori_Z,Timestamp
1.249730908866686,-146.7314187554618,669.1397738613101,-452.94155590960065,0.02140118649773695,-30.392803956789187,1.8487123069790696,-37.656725712490804,1735404945104.0
1.2408485741054676,433.5287947535321,-187.97472993570682,632.4253141968454,0.05121142313214792,0.9442778046406239,14.163867652182745,39.94671392479549,1735404945134.0
0.7768629164082426,-757.3794533479844,708.5421080166793,-89.49754335154725,0.03940000938237431,-65.62715171364397,-1.202460766342257,1.9419533685040804,1735404945163.0
1.4234137449898019,-269.7221130087747,567.5227050487788,173.95549445812557,0.039414191355509484,-87.0635684279382,4.963350790520186,-29.10806393362884,1735404945193.0
0.6004827898970081,-565.5325072006549,1325.594948666143,453.00751848132427,0.036164010840022194,10.593363901109829,10.38349428957593,-21.483440393347887,1735404945224.0
1.0070868795521006,267.60637154907783,710.0087114024673,-378.9161213770351,0.04129475982669283,-46.877567291552324,3.552926378760504,-27.616446267167248,1735404945253.0
0.287861872436188,-519.1115526637524,590.5859976825546,939.7491334905417,0.07622289723298706,-42.04399892301248,-1.4830589986746543,-107.60940815217916,1735404945283.0
0.8640928734217617,945.7919339950117,798.474463674224,638.9338204210642,0.0388456365992873,-7.195634436197544,-7.191808405211836,-46.29552755389973,1735404945312.0
1.5535451594517025,-74.10639159925154,1598.7242311578016,-615.5418054603122,0.04214482402385968,-7.410383713574589,0.028302880352933935,-22.455534861712835,1735404945344.0
0.6224451067893455,166.26020636028954,1739.8735707870082,554.5850268695153,0.03918838509503487,-62.29607455095673,9.544493834099454,-45.16417484401893,1735404945373.0
1.1270143308792,593.0918647138751,1785.1989422317886,-1244.8287266347272,0.043857077913547725,36.83205946179655,-11.591701627257262,-30.234544324337286,1735404945403.0
1.0672737170139903,232.10983347388196,620.1520302026938,326.04929939023054,0.05841255778529065,-3.6145098887362828,-9.262424533815473,-43.94783350635377,1735404945433.0
1.1521839095357582,720.737781480875,890.0767256326704,-867.2173018617718,0.05054431281258916,-32.6517167751244,-0.038454786256793216,-54.25874719114088,1735404945463.0
1.5256804495370035,216.99601583784147,225.0439042664825,1233.6206053918836,0.0633306446589452,-31.063330221987236,-2.34550175715112,-33.43249926766838,1735404945493.0
0.8268055261885425,-446.99422524837644,823.3113628680678,1208.8280314123942,0.050158377138428384,2.6978941862079537,13.691183477374441,34.25433585046229,1735404945525.0
0.7482483287350686,-93.95120554956793,1228.9054862572266,-544.8026468692858,0.06317210157433775,25.73170019449556,22.419571746131073,25.108035260167973,1735404945553.0
0.9272028136027303,-662.9392098466943,959.971063362781,1135.8811298717212,0.06813470142634304,-49.06052269219056,-2.7070037235068303,43.20433944059739,1735404945583.0
1.2247312535888888,-224.35994789986378,558.3357602148575,735.203952926962,0.06238448039073992,7.715189987029081,-11.182959518272344,-40.231805655680056,1735404945613.0
0.7731514646386779,82.7720401098716,317.03650686736967,592.5183022909124,0.014418192802734403,5.838989703975532,-11.51301203246083,8.877935005667652,1735404945644.0
-0.7102058604007244,590.0980651710407,-402.8929865450573,-1356.8985476371647,0.04069623457025141,36.916490489151805,-0.4845782988572358,18.66766427846232,1735404945673.0
0.3557614792506704,-313.08694574718936,415.8963982478148,-963.7545105125623,0.03890690009654618,-31.45712684218814,1.3592980295526704,-3.6262322703770593,1735404945703.0
0.6561286651066544,-937.9295196970868,307.2061762611724,932.3815498523942,0.026072190656227772,-29.571370631927422,-13.762148629950854,10.211921176041075,1735404945733.0
-0.6447634329007111,92.67988235214926,-604.3933384831079,-939.218271892383,0.04990458827189554,26.280924650546712,-24.78799066408569,-22.392964336353714,1735404945763.0
0.19490593583931087,-283.2775292713457,-324.3375027414412,721.6782722887117,0.02484823183312999,58.47551377460428,-19.792434325462924,39.4575051880442,1735404945793.0
0.2584475600164085,161.94826495744087,-286.6107982507004,649.9765380482373,-0.000863480394587883,-27.09504398910166,-10.994526769759169,-10.135499132206169,1735404945822.0
-0.5241839338523756,31.65851838836862,904.5007218042882,-875.8372132109345,0.054225231302483023,-24.582057734810043,-16.728166591298503,-13.477545601712336,1735404945853.0
-0.12420223874743433,283.09474169089833,252.46449443442754,690.1480188882546,0.03166386727030025,25.022944844308785,-24.786663256115666,43.24227145889866,1735404945883.0
0.05161699621775095,-430.0936022269332,-226.06600397887397,65.92751448023971,0.0657519105204021,-17.342433292769904,-18.490839731818973,-9.013220856481716,1735404945913.0
0.8796619337691335,-154.1016363146779,760.6263216210701,186.26259598992323,0.0025622811178797507,59.94731342756142,-1.1539583276553076,-35.03340158644923,1735404945943.0
0.6558093946542987,196.0777733296481,-1124.9176192204814,57.50177076460818,0.005962563619192611,37.13955138509037,-9.96579004651117,-8.591618942902077,1735404945973.0
-0.2782283528742725,93.00587082439831,332.5412993873882,-48.167997259601655,0.012952780761145498,-10.381772758338977,-4.220599268597077,0.5620087224107735,1735404946003.0
-0.131001879986976,-223.42442832874494,179.0383404990483,-481.12370744427034,0.043160998440569295,4.754017879333992,-22.488253362297378,-60.302026735341805,1735404946033.0
0.12480134492132672,-362.87186967925584,1210.9838981676646,537.3314118554617,0.028088645113887943,24.975291135935045,3.143944905937924,-62.1374015183481,1735404946063.0
0.2571110182689953,212.0354420177797,489.7345025510714,-1062.3235409477409,0.04232287903153335,20.450342698513275,6.605485202463761,-24.484783756764852,1735404946094.0
-0.1809746028520291,-275.0356341891132,126.07231993445369,113.23803564504965,0.01580152010965323,16.440443254470694,-16.32332076410637,24.462662469332734,1735404946124.0
0.1642870111858637,-56.346847979891606,-469.0000735825429,1568.0272808301106,0.05255871681360998,21.825109547195854,-11.341443571933947,45.74676587021409,1735404946154.0
1.643296071149019,-495.38613967331776,-327.18379963012217,632.9163836204984,0.04372374150503012,21.67920765029588,10.614207679700502,-42.14427551313828,1735404946183.0
1.6482048999351793,-324.39497782660123,247.24599332297748,-359.83215439182806,0.039145965305501726,25.546263319040534,4.307985587647203,-69.66237654398344,1735404946213.0
1.3871674812252945,-954.2317385600801,-137.65226988501718,-95.71182913958155,0.036252048846311044,-26.377911992413512,-20.045256113787495,-79.59433884619952,1735404946274.0
0.9385445803371487,-333.2326312261474,-540.8486422199112,-74.59212355126462,0.06748200147364881,25.79615695525974,-5.161247765787533,-36.879708648481184,1735404946274.0
1.023143050119942,-1942.8663222588857,-198.04241687852408,-27.26616195186932,0.07633074642049115,15.760713927218697,-8.331226866379195,-58.84823269153092,1735404946303.0
1.0595772102710825,-1059.4294198223402,752.8030227117425,-289.02917129817223,0.040944575824063995,28.464486094891313,-17.984416107572425,-35.89343679290717,1735404946333.0
1.00986766761102,-1196.3468188755824,365.7143272578896,321.22848875910563,0.042790811640075456,42.30200991664299,-2.2438112347002024,-9.855704590590278,1735404946363.0
2.00084983309157,-468.49910908359755,707.8967021052143,-1466.3278481885195,0.027536135758603978,43.91580435184126,-9.413431561647467,-62.54936015307882,1735404946393.0
1.0697048491292034,623.262252943158,162.77260765221973,-460.45671925061504,0.021725917635527735,62.43305708204974,-2.0255963869191578,-32.72775891717771,1735404946423.0
2.0501564687415526,-1651.3918497980385,-250.67839418183792,-967.9259593184626,0.053640445519426386,6.588862796448652,-0.01715419893172143,-24.836734254727673,1735404946453.0
1.1598184223765695,-1581.8840422293024,9.333925108017922,-186.08402111464318,0.052255204933091874,18.838903818549504,-19.663987683674886,-4.9944145492429435,1735404946483.0
0.6016829807714621,-583.6517500971943,31.22844927612681,14.087189149082974,0.04832593813220925,37.97367642708909,15.295439616130453,1.8988353134450016,1735404946513.0
0.8366240603956726,-2266.115536359068,-415.3150560839797,-1593.6496379567832,0.042544265566101365,13.149409236635954,-6.403239251573094,-14.29125366676383,1735404946543.0
1.8249964915807173,-478.91591351213896,651.2660091745097,-584.8731012225073,0.03629760687797676,43.26699369248768,-8.228768565800975,-38.98522151930437,1735404946574.0
0.9128601242428457,-952.1896550093085,-311.4061582345377,-447.37728616740696,0.022863953985854526,20.467314288184085,-28.843084965431064,-8.639140658024841,1735404946603.0
0.8128719012971357,-1330.1066223142398,-740.5036273544019,476.43016438176505,0.03536773002421801,81.71767532062212,-16.987672378285403,-38.60313702679482,1735404946633.0
0.9608792086507831,-852.7079312526911,310.73157825285836,1350.7836766967523,0.03108485026371145,46.513350069428164,-9.615138098101378,50.93039420459769,1735404946663.0
0.9338992774982973,123.5510580594646,-1002.5189070851502,223.22180476172474,0.03193896319519149,11.935373823993672,-6.00770892380622,2.1189969349451814,1735404946693.0
0.5204380994965591,197.96576978441135,-13.450924896282771,13.458756258953429,0.03283504929325974,59.63736180230114,-27.51714288602943,-10.256039007364535,1735404946723.0
0.6642575692570266,-1556.751411686801,626.5720609109693,-1100.761765179553,0.027692414199392272,54.34975986988363,-3.734123385284297,-3.690280075408884,1735404946753.0
0.8832818088046196,-374.71817503284603,484.90512356404696,-769.368046302072,0.037080399112161246,1.4126570641292453,-27.796450282273604,-31.04950207315772,1735404946783.0
1.0947160871842758,-1228.5784177483577,153.97132853068473,-1363.447796984562,0.06997312076681686,-14.883633810100559,-25.054229898441477,30.969109047193548,1735404946813.0
1.0616414359938806,-1924.9082341932594,-169.18361747306244,-589.0716754913267,0.03129672721634584,15.864098809945066,-6.598877832076495,45.39209382631706,1735404946843.0
0.42885427403922327,-585.6851945586769,377.483797715395,-1413.4090698586876,0.04995669200375878,-29.744519606097178,-8.015452557797381,53.82961793363815,1735404946873.0
0.1270919466477679,-645.6444456802985,1355.9814141256093,166.42521678375078,0.04910745223788585,-13.536790264817167,-23.59634151410475,72.79432738691204,1735404946903.0
0.9475934769249359,-507.48536770291963,322.00035039427087,-1025.9204137033098,0.03920961510224681,0.004700815877910713,-11.495280770039304,-2.217245498646392,1735404946933.0
1.7708355664079012,-1185.327560449928,374.87677552359423,326.95868634562737,0.07112159478863278,23.41382059722711,-17.269256122659673,-32.004778577552244,1735404946963.0
1.6437900004090555,-143.28812461285042,-1348.4000764775512,-326.90333983033736,0.06808156897450883,49.00206968845452,-26.260964625306425,-73.1244792461259,1735404946992.0
0.2372355063765219,-1191.2225082526509,1109.5020715810765,-562.6875168919387,0.025577108636891555,12.152113005892597,-21.3740497280552,-76.75786824898819,1735404947024.0
0.9974227356504168,-953.5047210170926,306.8646014926816,-54.62683555987823,0.04185122357052049,45.05150974512411,-23.813372489621756,-40.89064788720649,1735404947053.0
1.9260626323117105,-1659.9571066781778,169.85723489787594,460.481842527175,0.06107856978426736,6.38039271105446,-3.3954413273474593,-30.59012375859138,1735404947083.0
1.519178470586179,-1346.027852430224,-270.0175555832602,-806.4378220074074,0.010555162655833752,19.747205625017774,-24.31453048292637,-16.68993387503678,1735404947115.0
0.5060003575294764,-1774.9386890182236,340.9461739321688,235.80242010824827,0.03324412071089506,47.282638689133165,-8.20436721270817,23.083886946694705,1735404947144.0
0.7326937017069324,-622.8698807486782,-175.9319271267234,299.9131472791171,0.045920293413648505,-3.398353886209808,-14.489278421307905,-59.50576951596444,1735404947144.0
