Acc_Betrag,Acc_X,Acc_Y,Acc_Z,Ori_Betrag,Ori_X,Ori_Y,Ori_Z,Timestamp
1.647347040501933,-416.4612749560875,701.931205487687,-1069.0290448584406,0.028101950453161814,1.163072740597812,-6.146294430904556,-49.06059621982099,1735409480332.0
0.05368839030399697,-520.1867255386194,211.6390729172407,696.7273635336369,0.047519862567405396,64.86077876071099,-20.07637458715091,22.009954297502333,1735409480362.0
1.3173555597290987,-441.8021222327391,-498.7524124867184,124.96264299939115,0.04301393643293375,-2.9708193516290695,-0.7688600344395518,-19.900011288336668,1735409480392.0
1.1124515940148585,118.49372632096083,240.85640774580418,848.3526021768894,0.04201730117019801,63.811454665775926,-26.322687888055974,28.496971050122966,1735409480422.0
1.2967901739070347,-1179.82144694739,739.9921296485378,-157.85060083667912,0.030658132973775433,36.66193675683334,-7.209154917904586,-22.145045419460335,1735409480452.0
0.6920044360409595,-1341.0521639671317,1331.4583518190245,84.10638277673687,0.016032819926088498,36.295195912753584,-1.462867582677621,-29.216392806855453,1735409480482.0
0.8987495480992385,-238.43171299084725,708.7820472133271,582.117559463729,0.04523464801395007,-20.128004836937464,-18.555513747377756,8.549704852297786,1735409480513.0
1.433019299483056,-871.1743620761538,790.2372055177323,-157.3409917979,0.03736143806975765,-11.542136644180966,-15.119226288547129,-76.06308323509786,1735409480543.0
-0.1327179198168824,-789.0411517498121,856.8629088900719,-925.4968206375222,0.06719869994688477,24.422671062328977,-16.946609718847295,-43.691739670052854,1735409480573.0
1.0684662430293326,-1227.9799881876506,153.95382153458422,-1124.7263184715566,0.056105115185744514,-45.327058452592425,3.8287337416142613,38.783469467207794,1735409480603.0
0.40215312962107364,-1133.4919881678725,861.5466322258109,-889.0641051773958,0.03361946451688208,23.945906641406427,-3.135139877414767,69.27804969826991,1735409480633.0
-0.17566605907323807,-67.43410733098881,858.7748238502644,223.3313848824509,0.07393122000728025,-40.449951415900976,-11.2341066020549,66.2363675779665,1735409480663.0
0.32774562295846854,-956.5726440017052,1063.2755261186494,-409.0058159876202,0.0487173162085201,36.251035552959515,-15.458492530000187,21.1327436105174,1735409480693.0
1.016667300867726,-303.4026616397781,841.0404525168665,-413.3299050799932,0.037071359644047105,34.90065646852108,-10.973772657964748,65.87651650863198,1735409480722.0
0.28786194608741345,-591.0094500589393,449.91251081311407,-313.08467444523006,0.040232400736829245,-36.768768802234476,-15.637876369357294,-22.36108977279315,1735409480753.0
1.1760993739137582,-384.4668101809242,-128.05273469057317,583.3377593715375,0.03347029224994369,-60.669283616420586,-18.797218557276043,34.99467167551463,1735409480783.0
0.622090855421252,-406.2744984825933,1313.38353551616,539.6045369297295,0.022889343091175157,13.722885570762159,-41.41178353920067,23.780811844366244,1735409480813.0
0.563621983181813,-809.6991966686602,1467.0116814328348,76.47682937039873,0.041567401821006184,-6.861385170835839,-10.081030009589924,-15.322446090639687,1735409480843.0
1.8157957634268427,-1141.5002467684265,1272.678520969852,-184.82177181939116,0.002085946701279179,-53.57311581804276,-13.814724456542583,5.339234609662715,1735409480873.0
0.6003817879940331,-861.7553837363973,493.132015197857,-610.2987496277638,0.03509582315744432,79.10836203263867,-34.1018891567611,-67.50422890082919,1735409480903.0
0.45731616714871104,-1134.1338610834075,1044.4991497210758,-361.96221452039543,0.037169569905878164,8.245950434737281,-16.113686011491836,-24.69882137604914,1735409480933.0
1.2126480299392686,-559.48319967922,993.1145690951538,787.9519688488585,0.06126853689872022,32.43650650318516,-0.6315457153649753,-88.920090723087,1735409480963.0
1.171584314864893,-478.2173155186948,1348.9545243203193,946.8771922452956,0.05567165341489409,26.654800893177566,-24.07402821423761,-24.800874091128765,1735409480993.0
0.686569940381359,-632.6684919497033,1332.7669187581919,-646.0811242028892,0.06658080333561912,13.98974800131785,-11.861037378367577,-59.6612967705088,1735409481023.0
-0.4933839491945394,-220.6886997683855,84.16581766579864,10.127657191462475,0.06209537647093735,57.20055384526947,-14.337804194495636,0.005999521910538874,1735409481053.0
-0.17528911641456296,204.63534205222385,277.02632789996284,356.7015528483214,0.07151256826508064,60.84934388174427,8.628359142515498,-36.09085528814487,1735409481083.0
0.3792947215912291,-978.6019148642059,-152.58071934657204,-873.2125080408646,0.06093218280362801,-28.932907337499937,12.544061245532045,44.913856502659485,1735409481113.0
0.6232740385256443,269.37963902217615,676.3638497872768,-108.42874839301297,0.030506426503723736,-43.92683186871309,1.9654437403879417,46.8196005308711,1735409481143.0
0.6473614615099704,-54.85106442211779,-268.2986337747943,-190.5421398896938,0.004274150481451095,23.949153212355917,-4.350108805555379,-13.609542374394746,1735409481173.0
0.19073138935679046,-297.1947821193585,-98.06565961205446,-858.6470589767878,0.029216234410635332,23.479137202664532,-8.897475655665337,-48.799395761861405,1735409481203.0
0.9306802368859157,862.1412664310725,-795.0801980318479,-89.99147938702487,0.056667340149325354,-32.250657776383036,-15.559302107646978,3.842725430306338,1735409481232.0
0.3994148399376892,756.7353029188772,-55.88492442786723,-29.538325842345657,0.02103241286478013,26.1590317095142,-2.369381038457136,-7.370201011382893,1735409481263.0
0.40245524039644415,-39.56516248194002,321.5515292970859,238.52676159614953,0.02614650810667321,35.097618823329896,6.1596821799841255,-19.357865256199887,1735409481293.0
1.0018086221068283,-1326.575756219223,-560.122154708196,-706.9591409498133,0.07032169249211616,3.211227096389786,-0.792987651054891,23.989869741637136,1735409481322.0
-0.07729009209480686,-665.9524463738901,481.9978690582034,-280.13260012612307,0.02756292585738059,26.03379684352125,-30.310953308572504,-26.238536834339957,1735409481353.0
-0.2072104086401938,332.94527244844653,39.87092736253135,-1205.1649333781775,-0.0024355362389928796,-65.7268864419251,2.7821837753632797,3.4710204561839593,1735409481383.0
0.6641849858263831,731.4436311886409,-496.75248858893195,-42.57273084107356,0.023457889070664456,-37.67892872666907,11.205657031329888,17.26964759077608,1735409481413.0
-0.21121570193102251,69.80474280255218,-1047.9096200233118,250.20494817786647,0.03172709636467219,1.7752237879226627,6.397353825216657,25.330177913885258,1735409481443.0
0.3144051385092444,12.023353152780714,-347.10067554683815,995.6120804787276,0.006116765514044296,0.07096572590201689,-16.36573055156175,-31.203032823320115,1735409481473.0
0.21531872025795495,348.667754388923,-105.00011356674617,1124.9773234721952,0.01253417140699141,10.049130136028184,-4.943105675795469,-6.388193345793542,1735409481502.0
1.3852846063697462,652.4532685280731,-559.5899870633768,344.41783168045345,0.029704972916375923,-21.41195694785331,-2.415093531976258,21.857038975756943,1735409481533.0
1.5551502005898843,-1103.8917312840326,-776.0152640898282,-43.132533095188194,0.050818786414314226,-11.967434295658872,-1.6290211422586407,7.717422090845222,1735409481563.0
0.9105899445299965,-330.05686042472047,-526.9975784648809,169.84789094176654,0.05850342465045965,34.25701186839053,10.404533963623646,41.904155193681994,1735409481593.0
0.9715513860281133,157.69262446256982,169.5797363684818,543.7144978995952,0.032981944950015336,56.26032984202031,20.658866648711733,-50.87464704120876,1735409481623.0
1.0238892228617813,-887.8588581300489,-806.7536263328549,637.174217842991,0.050541186208026036,-48.12102039366456,-5.199032434412388,-20.286884139880236,1735409481653.0
0.8628963900141037,-2287.515260094343,-339.47132826117434,-829.0055083137822,0.06507088464077242,4.226341074876075,-1.3625165846489562,-34.718871939831736,1735409481683.0
0.03646264203902072,-567.5735783333192,-788.8536868493987,278.56565257774844,0.037313663505502456,41.67540139267882,-4.886895164210587,1.5619808908624364,1735409481713.0
0.613466061127142,-566.702534422169,-396.47852851332146,774.6865809169676,0.0761271312986435,23.997155481891138,-18.568877828956218,-23.012838178634382,1735409481773.0
0.4171336048453458,-1652.1246904153245,-595.9235622824037,370.06902001110325,0.05773080174312927,59.35579750961298,0.0462299219103155,-15.625898023477422,1735409481803.0
1.6128511297304295,-1220.0213908553806,-547.8766785298766,344.83897757171326,0.03809844519881807,35.724902846774995,-8.351167597121137,-46.02507665468855,1735409481833.0
1.0723291822016678,-173.06158394754772,-52.19930834964532,-1499.2805272083933,0.04781709592491443,51.785470830434875,-12.468335738660784,-6.7204317442122505,1735409481862.0
0.9728938010736768,-790.5476605647998,-448.29016354054295,-121.98730309607913,0.041407651386637497,25.52353968375851,-26.470685535387997,-32.794862036895054,1735409481892.0
0.9143864861920802,-107.90821900102026,-381.68552993347475,-696.700951209298,0.04894358812108636,56.28364596723344,-6.585862360602656,-48.93469729345462,1735409481924.0
1.1801510868385396,-1141.768262923401,-986.879070165349,287.6154637130634,0.03756481999070089,60.93921059916033,-2.0910582252029477,12.192619138395326,1735409481953.0
0.7018615340794178,-799.2860184618265,-870.304578365844,-290.493163816397,0.04283885104900661,37.80696146135967,-5.3958340956965305,-102.9300033121994,1735409481983.0
0.878974272114352,-131.86137530819917,-1179.833805681048,-90.10069074857898,0.038032664412666874,71.00169848725287,-11.118167553001658,5.800147961269058,1735409482013.0
1.1863617331311456,533.3226972797838,-45.502453996269765,215.5778214376694,0.034411068582167935,14.364687545795409,5.0892108135675045,-84.78488361368751,1735409482044.0
1.6335103628250707,-272.9140163405592,-1193.9472531972715,-94.9367470911227,0.032645280424534004,19.17842284665004,2.421407617405779,64.45991460727723,1735409482073.0
0.6046674934184191,-610.9717973280032,-1232.7611553621914,-214.25335471191968,0.020114481540056288,59.8889835159131,-3.99804275717384,-26.281371341863142,1735409482103.0
1.945462845675161,-556.5598481371455,-770.9684314868362,-1787.1905710215067,0.038576441920641184,37.48073665753448,-7.268326047668425,-5.253453603614256,1735409482134.0
0.22267621334206555,-45.16270310150412,371.70930177869195,-1835.9925122193165,0.04810504257175059,34.23562940353272,10.16267414155948,-34.097735073926685,1735409482163.0
1.476080570649224,-612.7631967218771,-1559.3761677111006,363.3926366256982,0.022532080446196145,29.74072517568336,-4.0475564331615494,-1.583889588780775,1735409482193.0
1.421353961015578,-1217.1590254899359,-183.07573121196145,360.8658994285321,0.0238238461140012,50.78961839686963,3.1592124579688257,13.292815453061301,1735409482223.0
0.5890772870099259,541.2954785858742,-579.4592338703661,361.13514336415085,0.0337228249549261,16.96995568623982,9.000717614271302,0.05292926451331281,1735409482253.0
1.5553821669164938,68.41461572396634,444.82852984907413,5.805848533430947,0.04382445304614555,-2.899010946584326,-15.212857787483873,-19.173508951468207,1735409482284.0
0.31998143735368145,-224.33855325772686,-986.0970470435936,242.67375766189718,0.035697348289241974,-8.10428477239983,1.2872346380525297,4.367899114163617,1735409482314.0
0.23001789790390914,-63.910483668651295,98.26479315050346,-315.7184684488905,0.020927735675728892,23.38555681205595,3.2283189764634104,-7.391635950278808,1735409482344.0
1.3193225193979596,-972.2894136384947,-648.4928394742772,806.5952517156163,0.034424242111093024,34.71423516902102,-1.0477711480158298,6.380088558403369,1735409482374.0
2.19834006247038,-78.747532994587,-902.4620074355121,-634.4524737056286,0.029119791351169072,61.90211813027982,-6.658652689741956,17.596095630045845,1735409482374.0
0.653136860751752,-842.8453287843929,-1073.7075105545816,-254.65158167747177,0.04177242228769965,7.497661510518828,-9.090981195738271,-26.59802543173186,1735409482374.0
