Acc_Betrag,Acc_X,Acc_Y,Acc_Z,Ori_Betrag,Ori_X,Ori_Y,Ori_Z,Timestamp
1.7576712075556955,769.4777107015366,888.0727606472818,202.9403831798762,0.039783576179835745,-39.28699131303573,-10.000380994759976,-55.4227358116036,1735404945104.0
1.6847795804575423,652.8752216989224,124.69755545473822,938.6743086514101,0.04408100478338726,4.0136795194030235,2.4894100049839576,-1.3038032813590839,1735404945134.0
0.6951495141011481,-216.1294723956824,240.75148197894634,-525.383630774009,0.03555377958690107,-13.815373436255586,-18.128345893019493,-28.272909543659573,1735404945163.0
1.8314585112917225,-403.1578797538366,170.463719379655,115.99440039031093,0.0603865924685354,-50.910456626793035,13.623275230695707,-31.86338619900796,1735404945193.0
1.7393099014773261,422.58797942179683,532.209450878416,1285.308266331906,0.052488222580878374,-23.302681042983995,12.25776795238467,-51.45349175358413,1735404945224.0
1.4118793294309588,-470.3493118374387,1813.0092389693348,508.74992405674317,0.037512115672300686,-63.14666949037429,-15.612907637605575,-63.92361059253986,1735404945253.0
1.8258551321958723,-143.58731372661197,1024.7042041437774,-169.30691637674437,0.0608566884326318,-63.04767470035672,-0.8198528171891617,-42.57424024390365,1735404945283.0
1.262228514209335,85.94512002827625,713.1907660100064,-50.482371405777286,0.034576810171848334,-72.68265065639852,4.852367957667686,-33.19165098341795,1735404945312.0
0.7276613511227448,142.73052206367245,1559.6480310752052,91.22179038297308,0.018374231660580564,-56.205440962347495,16.493808572781866,-56.31322254003598,1735404945344.0
1.5956945381599212,188.20782304622034,903.1330745649257,526.459715768156,0.06108772245733556,-8.344483836210244,1.8018072224491581,-46.2123762434617,1735404945373.0
0.7152459030968509,1132.286004645186,1226.4611897271714,1254.4415235647286,0.06634453264321116,-10.334478518934363,4.688621867094863,-64.15342916462889,1735404945403.0
0.9515371206483897,49.074456989486976,1657.2922119680106,1759.0777130907188,0.02979337782311171,-4.189879583670319,-1.9206954900220086,-29.781140827999646,1735404945433.0
0.48242244883914176,-254.60476626269366,1025.6247461854164,-837.826116052018,0.04160251279913167,-40.84200139141697,6.949774171719897,-58.527380997317344,1735404945463.0
0.33916385816113404,770.1471989181626,394.96559933847743,155.01705547873127,0.038220221009989536,-15.680069597040745,6.409822596263652,-84.30741061146851,1735404945493.0
0.7276397136938404,894.7504262793004,-80.06929995974247,-186.55055015856627,0.024920726539634206,-22.29914821276916,1.7355818548572577,51.650394362667356,1735404945525.0
1.4023714112094594,-283.83132933265995,866.4501401837723,366.97678695936787,0.04371304103050286,-17.7421323346266,2.814616665827481,50.90444670136743,1735404945553.0
0.09870931089868884,691.0961973911545,743.5323460269204,755.4796569033529,0.02496503137137079,-24.04364537831506,-1.526965864230708,18.518609759728456,1735404945583.0
0.35336640137079445,-1520.8177772316164,509.57711390946133,908.8928195515856,0.023141758930433465,42.911512354945344,-22.708203546114525,-4.775991076011913,1735404945613.0
0.6446905237753177,-751.9516801807405,420.026099744887,84.55277910009744,0.01827457308592837,-15.825360412465676,1.649591174461194,-60.717427163937444,1735404945644.0
0.12814010862946013,60.46761126071789,433.9638586063363,52.56734830520394,0.026931647983271127,40.076532879135364,6.20532694998326,52.41339934854253,1735404945673.0
0.24090099959009573,-83.62453544007488,-745.3733727159334,-1259.4514767798198,0.04345857961505725,26.426456942428025,-13.704457727451674,47.84988297926616,1735404945703.0
-0.5646836042057266,175.0529087156083,-371.38164826946553,559.5504490992963,0.01181101514061772,-29.58287907092916,-5.328561211587313,-54.52735211735595,1735404945733.0
-0.3288853689045402,68.24477345585777,106.766267971687,160.55417804243052,0.021412930397192744,46.61303054447118,7.5106564399322835,-13.613718633879802,1735404945763.0
0.6355853059098361,765.8384573067103,1485.549956134528,424.8737395974152,0.015255174980203715,-10.816202960504235,-14.272602903823403,69.85818528741017,1735404945793.0
-0.22238948439900408,-258.4664695527389,-18.48565068168272,-358.9834997809662,0.023998307839259478,21.70982076098051,-9.673383325708208,30.52128344266865,1735404945822.0
0.020241571310550897,484.07805622953117,670.8336980183233,-452.87379238259786,0.04293662354858546,6.045864821910925,-10.028877852508788,-28.357672133652823,1735404945853.0
-0.4799039440707192,-820.5583659690703,-571.144064301423,-680.2805863618419,0.07881559779862489,-21.275132161377343,-14.788854078783519,77.47349931527422,1735404945883.0
0.8999914309105065,623.0473500214767,519.2704517503277,-321.4794950499356,0.0337389286118317,-26.715152325197742,0.8821356675907367,-17.37541533338041,1735404945913.0
0.9144699600160124,-796.1717797331816,348.61973881192563,165.6049579010918,0.021966275990683657,-2.006357859924833,-10.213475600289977,-32.820765017543856,1735404945943.0
-0.03536633934921302,-230.29389569037508,359.4760986739771,-851.8920378200561,0.03598839387824057,-41.75798336014623,5.9583052229063735,-15.26594011738247,1735404945973.0
0.10141746497221855,-50.76159567071448,-80.48210490097166,-459.51232068601513,0.02237687197724736,-11.224886011131955,-25.844102921636033,53.83938160486257,1735404946003.0
-1.200556707048523,702.6370952044749,71.62275364045799,-76.97506390645174,0.044095293823730626,-8.981738692084416,10.62093155792587,-26.63604581893726,1735404946033.0
-0.1791462266187085,129.99433654884845,96.87216911346101,-1276.9394324370735,0.03644315162832667,-1.3255609900595984,15.742042964595175,0.3097130935059127,1735404946063.0
0.776624011587638,-636.3226822243575,357.9870514982919,140.0036702044033,0.036238726047626006,-11.996533963001422,11.486607532079844,-28.42675006808591,1735404946094.0
0.3742044584522746,-497.7693288638583,-854.9394924785126,953.7647480973606,0.03578007748770414,4.3323235961163284,-21.003661674035286,-15.659962899883412,1735404946124.0
0.042835592085900875,-465.3840664912284,558.3882949256924,-1081.1670709030334,0.03548414789006211,7.884910905480176,2.4986756340810805,33.25621036136626,1735404946154.0
1.8453783767391756,-1497.0787883006951,892.8641295636695,-406.49394887010567,0.04553977120069611,-48.835520937377424,7.458951417546538,-42.26636327058276,1735404946183.0
0.6795689109188003,-686.2351406968228,213.38459561167483,369.07412658516967,0.07902667081121106,-19.743494629713474,-7.515781456349648,-44.62377771757403,1735404946213.0
0.6401624118752143,-954.0273726690807,51.52789460266786,-252.00878735323127,0.05706575843753611,37.085837742887946,-8.346383602871844,-12.95784022166399,1735404946274.0
1.0193991853915159,-533.4960239197177,-856.2289478642551,-1201.9279189805243,0.05177428913537657,33.6549204683398,-23.27801584057221,-4.415031572746763,1735404946274.0
1.376621741271559,-1563.147520428884,-448.599754091363,840.3594994804043,0.05399357748378909,40.071188958182915,-8.109499344279993,-48.92328641505136,1735404946303.0
1.2259374865891335,-128.71475069163387,144.9782121432595,1446.4623955707239,0.05008426069049255,42.41890245809485,-3.4640741286966956,-49.1351767552823,1735404946333.0
0.7166077945649805,-974.0488730521912,-378.5803103083196,-417.8154099449961,0.040798481488406396,-17.416584770987026,-29.834969948351354,-69.44072961783534,1735404946363.0
0.3576762616799526,-1933.0463058954265,-211.65552614497744,-1462.712423219547,0.035916045478192965,40.10412327465744,-4.708705399544302,-28.286052310017254,1735404946393.0
0.34435691093631227,-329.86082944960276,-354.0943993845664,1225.3204016198713,0.04029093677293451,58.279421504281544,-2.4710965360806294,-34.94652679215969,1735404946423.0
1.8550457977821297,-1520.4609683154213,289.1100634448051,-1409.498135135791,0.05164990929769489,44.646867814284526,-2.675853034584924,-29.35410001169238,1735404946453.0
1.1601240543390419,-815.4715174785933,-235.2274595908978,-524.590914481483,0.05421227042557155,28.127850929486286,-2.775055936332522,9.707572101215906,1735404946483.0
1.3533907541526347,-762.6422836640165,566.0326509867524,784.7434726779671,0.04949830044335739,-12.220788955366626,-15.818440551707798,-91.6808576391465,1735404946513.0
1.207445562273361,-745.1257956682618,87.37587974229716,400.89137458421465,0.020699141787443573,43.747496364822524,-2.443177784957549,-28.216991981560284,1735404946543.0
-0.7810911815733175,-1716.3203696556511,582.5283208260307,80.44587326153061,0.039660678836135735,31.630683594659086,-3.446056306732678,-18.66035805990758,1735404946574.0
0.13626659503783778,-966.7982187663922,-13.752419230617107,-630.2386349767874,0.052446939151754884,-29.979831328690487,-24.57813963990094,-12.379695371518505,1735404946603.0
1.7141582579362842,-677.6061833227509,-408.5403813202614,-411.82199745946775,0.023746267771767422,54.74471202988434,-15.980762097625508,-8.516776036485828,1735404946633.0
1.1877549648217944,-1136.6625612551081,635.0305213706991,-987.9039495574427,0.014478447064417706,16.79153046438677,-11.267776410074163,58.275835832881214,1735404946663.0
0.6383312283159277,-717.331799967706,788.9484025712181,-500.3703885446666,0.04746297439287568,26.823734267669217,-32.302981041981994,-18.635592723656487,1735404946693.0
0.8025238841385475,-694.9096172069266,664.9499419433122,576.1017074095155,0.04775812432555192,57.12179120848878,-10.050844324499511,50.77806237270849,1735404946723.0
2.2511465981621983,-1427.8718636340832,-274.64425368803563,-179.91250546135683,0.060121476812309865,30.920596748196473,-3.3493237536243576,43.20033127568124,1735404946753.0
1.472554843402478,-30.23686310791311,151.88074402297036,516.3937757569769,0.03262714771091733,16.29089069163318,-12.563135306765265,54.08754680294611,1735404946783.0
0.7246775929423361,-752.9285042185115,24.225162183843764,401.2410866785842,0.03675054944558116,16.03383519265036,-34.944305362988175,50.80501118761257,1735404946813.0
1.040773455862525,-1331.88718071543,157.19131587573784,744.2328573601985,0.04272328227522976,46.323726861911695,-32.74211624891808,9.521598112403058,1735404946843.0
0.925011906031849,-591.5515853672366,373.05176088730025,-315.0669673734474,0.039888953894462474,28.867629223801977,-35.80714282405435,5.03168737561413,1735404946873.0
1.0236492652872313,-2015.2391825520708,-1101.467325708494,-504.9240159551286,0.03452164807856798,79.47706747615467,-19.769048813941993,45.83803863237958,1735404946903.0
0.9763239527701105,-443.77054600983547,-742.0256481250784,-30.92243466447374,0.052491430325048924,9.363875814796502,-20.23984243603273,34.01800862310995,1735404946933.0
1.6887712043242196,-1882.9796305210461,1007.2140387553317,466.8284055533619,0.06995667740329711,-52.91804210944473,-11.745997123454273,-43.69323987098738,1735404946963.0
1.2634521554159648,-401.77500156627946,-94.7067552097468,-378.6020955343246,0.057490951271788764,43.15143254776157,-10.910293495764906,-78.09483350104716,1735404946992.0
0.6596092209103372,-434.6531660031769,118.76583933295406,215.28401323107113,0.060073986962607906,65.60155912793189,-30.282474089036345,-18.96423046071519,1735404947024.0
0.9192207370643299,-2226.3221318760347,-141.82763085783705,420.6480305473351,0.008848591603876195,43.980551648354584,-15.636536223950005,-64.96862327408189,1735404947053.0
2.210851637540822,-1376.7063481565515,893.356221654752,195.20046321164966,0.03065375223804908,7.305549784399318,-8.66255209760255,-37.146118046164084,1735404947083.0
1.5140530566550985,34.30617874239556,538.004953934849,-475.7906297578983,0.026581533604522714,9.235999806720942,-26.23985207486743,51.51455407711189,1735404947115.0
1.426667094316317,-875.2203514424197,656.472786531029,-194.58686680463376,0.018817308572659428,37.54359741807895,-26.429543183773156,-57.43788572139652,1735404947144.0
1.0657104464084062,-731.2868034812914,448.3300922038435,256.3262761866069,0.053041558015715515,34.57049672828279,-1.5390847129482612,-18.406394043516077,1735404947144.0
