Acc_Betrag,Acc_X,Acc_Y,Acc_Z,Ori_Betrag,Ori_X,Ori_Y,Ori_Z,Timestamp
1.289654184842162,334.61516332788756,-23.0446056404503,2228.536930964635,0.004556621005376753,-4.326959243272405,8.341168826055224,23.798294907467977,1735404814507.0
1.5207560277477516,-774.1558856493555,-165.6971676488894,-368.7078289428339,0.03492628797182435,34.24569001289471,20.149520793942454,30.38017198175244,1735404814537.0
0.3851868161141805,104.50709913701542,190.85740359701333,-322.2675641816263,0.003985238675690818,-31.997154062522196,8.932265002491759,-4.086550983998486,1735404814568.0
1.9582162549111484,-430.4326396697751,-226.56879355018987,752.9582687918436,-0.006399217571161513,15.902698494106506,6.5020505398888915,-21.440216584771935,1735404814597.0
1.2118185543984017,-351.15326370385515,491.9538664908921,838.9430051838403,0.020593051062167498,21.49812689464227,17.675463901872313,-32.77828084065865,1735404814627.0
1.6619393674467504,-119.75707182408598,-1314.4176107287287,-34.355457566337805,0.023302572661494,14.896834666469108,-8.72123514982891,69.96626931941482,1735404814657.0
0.9488698490162693,-581.0512411157163,-470.42987504828096,879.9514892911307,-0.005425276964021198,-12.450078422131389,19.34592171734827,-22.417524644874405,1735404814687.0
0.6211291032846279,-455.6412642349338,-490.7125676642178,2384.356260745295,0.01791371435490839,18.436793591190504,17.26451245216329,7.700326419064211,1735404814717.0
1.4654595674957238,159.02147286100495,-738.2802193195289,818.8112942352046,0.02025840457059818,35.692613161267,0.24750550271289562,-12.684633080804648,1735404814747.0
1.317213641439772,361.25323919062043,-753.9991459959249,819.8555592443639,0.02754513674370121,28.010793117553362,14.14978083806902,17.649466106025166,1735404814777.0
1.7496614068063394,332.7959053118775,-162.9633898888865,1620.78496543234,0.0033316988467891346,11.153846722428085,12.972767774627366,29.946952629531967,1735404814807.0
0.6589874559161635,-602.6557875945047,-350.99211089311984,531.4480437909172,0.0347812712886252,-28.11544791663064,1.3480844265362464,9.268018397673325,1735404814837.0
0.6531518459667849,594.8532745174517,-501.64910680354353,1930.4764922505747,0.002349841606053487,28.536468116138465,28.77083025583217,7.021592365966318,1735404814867.0
0.8671857948743995,-544.3812868605858,-372.1390570717035,834.689408827575,-0.0004587264821725393,25.66295630928341,-1.7307211102815572,35.09849987133201,1735404814897.0
1.1122443351711102,-390.056060830443,-805.2054610891726,1694.621952795666,0.0006105102860469083,42.87099579832743,15.012041685794522,11.621570286975647,1735404814927.0
0.48711960451819325,-766.375271971248,-193.7534115294979,1443.812566482075,0.009835090317275622,43.148732678135985,21.331288035102524,-3.0316611576250465,1735404814956.0
1.8793390904392195,-356.9406171670212,85.47602929378547,1262.7918668618868,0.018632518232069507,67.72760912833435,2.8620653147686053,6.5622353987632716,1735404814987.0
2.0139819815982727,661.4885005350754,-310.8498334934777,1939.0043318184912,0.05192550983327023,13.328696014208884,17.010383596429946,-21.3360118362095,1735404815017.0
2.237804010427452,124.61682482843673,-390.2959744424531,1920.167895189441,0.03149826592841395,-41.714884708170516,30.67870059061814,-7.836915462516966,1735404815047.0
1.2871920897465152,537.2453452827633,-350.2886294652315,1300.533786240718,0.07436241660567836,-39.50466221994563,9.338969185756167,-41.82647192597176,1735404815077.0
0.7180896199398678,-238.79066640564807,299.5418408872166,45.16690289977103,0.058633761361836886,-18.774530802071986,-0.1571050687564064,-127.065878180754,1735404815107.0
-0.26642982830146617,-614.2193396326461,707.5349005505161,-96.01034861072277,0.0691707216654023,2.4617140189495643,27.36593722712371,-0.7721895448325071,1735404815137.0
0.12397999412311653,-956.7971750380996,-126.81326809681315,-5.773084070246355,0.04475673215815722,44.63119528906182,-6.118749727997688,-57.21387980109098,1735404815167.0
0.5998328442461096,-149.00149820774436,-564.0331311255213,-602.0480473274241,0.04912688380078528,31.069385624637107,1.5675270854635315,-56.22707875301486,1735404815198.0
-0.2426169538076064,-1576.8450304262194,201.0508401859659,-850.021242902741,0.05896558631036557,1.8943563995775676,9.49295743069896,33.78626769983327,1735404815227.0
-0.10929943818279567,195.7179775659299,985.1974033623966,-858.5139760465283,0.07815847578951814,75.70992358638628,-3.8546836293282434,-5.44691405589554,1735404815257.0
0.5213231267126757,149.6986155723201,-401.45446841300475,-689.8092846840988,0.038727158892746694,33.32916658140962,-0.8580964090442844,-20.716039331970833,1735404815287.0
0.35951786960095866,-87.31693029648493,288.92233321371316,-620.5473847120222,0.055885510591978174,39.99992151418917,8.886160346995,14.638533575232351,1735404815317.0
0.2736367610692576,316.2263597864089,236.4277340528889,782.5636445894959,0.0663026572369252,57.74825842132164,7.018530648876233,34.478841966271965,1735404815347.0
0.11448134276273858,-63.75126293089053,464.905477416651,469.06081430060726,0.04568132507702685,12.787066974341531,2.670469584951267,-4.382359371087848,1735404815377.0
3.0773672809691135,-25.449410085531724,-3294.275850770989,-202.8974874534033,0.03260305430929463,48.117678753530306,9.513351882272651,-9.32398999901016,1735404815407.0
2.58484547483654,-29.207463076304464,-2810.353694955962,31.133373766611896,0.07185467645612949,-50.963794195489555,-8.809646503527091,-38.21990396151711,1735404815437.0
1.631579485454587,384.5979203567113,-2095.329880213165,499.31746976415536,0.06466979619776028,-25.02467650473692,30.390435809598188,26.622417168063983,1735404815466.0
2.4568165443644947,1094.784704535217,-2607.5710713970793,-1150.4179641941328,0.03156614721637958,-57.55405283571566,-11.350426445207829,-11.111818287870072,1735404815498.0
0.7403077317261677,-498.14403136793834,565.04786462481,-24.87103960918739,0.027586593547347396,-55.14711372174556,11.859352375214577,-9.22051319387947,1735404815527.0
1.4883430845129446,-879.0744790447453,410.1736605535928,1213.2553890881982,0.05994288815903555,-35.87204893330128,5.243004773665656,-29.996501017988344,1735404815558.0
-0.07451685071880165,-158.83449872853691,451.93280036641227,402.6040362531469,0.06646912463509327,-93.0515934974528,10.454494974483207,22.371210950554662,1735404815588.0
0.6866511610597328,109.27011714582841,392.9521916210012,347.1089595510845,0.02856496736676634,16.372554448649694,1.6960869430070336,-47.36853956860204,1735404815617.0
0.08667066539562623,-488.93445494614343,476.7585634637576,-1425.0830381562598,0.03641802895206614,-89.75948678397688,27.374514664367794,-56.649989362880135,1735404815647.0
0.5606862445604063,966.1311335946707,661.8547100201379,-470.5369139972458,0.08071844319447045,-39.01239014685266,-4.687589753214293,-24.456263923022984,1735404815677.0
1.6947211519284466,1183.250250957634,-186.46436746496101,-371.95539774487145,0.0574623782975729,-3.7793476541274416,2.5399486469117156,76.26045749287957,1735404815707.0
1.4805352430235168,569.6168639678891,1129.8877715687147,-579.6302689892632,0.06611391982634296,-99.81379912819177,-7.244889414809412,51.11761984710901,1735404815737.0
1.101401353273242,544.6267498139235,700.8902528329493,-1209.2256193484754,-0.002631546159355371,-0.7085569635204343,-12.456764350777947,-45.0181169616306,1735404815767.0
0.6262457967165138,383.42385411597,576.1215020973594,-1442.163896498825,0.012750195881069848,50.97182483876966,-11.985104352775016,-42.8144329322752,1735404815797.0
1.2849412258547743,128.3553959360473,1123.389319409531,-1134.2670008151574,0.020253005554868513,-10.72359300854197,21.674301846158578,-32.25592519494824,1735404815827.0
0.9362883885730067,-466.2062807842676,1164.4117526319762,394.080687585889,0.04346939206073518,-25.310803280537968,-10.132044449673963,-18.369739637818224,1735404815857.0
0.8749555849355678,-71.42610879939468,1720.5497398056445,-570.768761757999,0.05435910740388878,40.11516633227798,8.079220552156421,-24.543970317018413,1735404815887.0
0.41037687283771607,147.14854787531556,1444.3552361844468,101.79825442497109,0.055569301989330945,27.162025160602436,6.990841178333427,-20.456429546034066,1735404815917.0
0.6335998201682894,47.94584316069107,1447.8449675100276,-689.1639417983375,0.0582448612535509,-31.353704648376386,9.713464860838522,-49.315305875037296,1735404815947.0
2.0689000192933324,-222.47667121730376,-494.051342397129,363.93849299285796,0.05193616216392696,23.32039383638378,23.695523480768948,-39.323840955886745,1735404815976.0
1.6265267733823037,230.13302019783345,355.4779329654406,-247.49102987659006,0.05248786769463767,-19.007114685120552,-0.9350567530834049,-47.27773614435041,1735404816007.0
1.2144624394872001,311.78054970323524,1102.2423439538554,672.4747264519635,0.06773442109525103,-31.002302967594268,25.53379699126598,-63.2793432427526,1735404816037.0
0.9944534063828514,207.41192316747723,1120.258532980153,204.6660824113721,0.06262275313129154,-47.68043418283103,14.457294396213731,-20.731637659032216,1735404816067.0
0.004456763254822915,760.908606079911,2062.6892038510823,-1463.1035865425715,0.05442535047873537,-44.83528832453352,25.237753388494472,80.40253686490078,1735404816097.0
0.021126745432789473,-79.97779910157402,544.5269498552983,-320.75874854753863,0.07302697555652933,-6.62702675927795,34.94685020566586,1.4393458756927302,1735404816127.0
0.6045591586040702,-722.2988104259028,692.3253286725082,790.8109596550913,0.059630061051186296,-36.508571298168256,43.51781071297161,15.876536489937038,1735404816157.0
1.423109002649046,372.15890085723385,906.0704664347022,-713.6913253466296,0.041162640690853215,-67.65482563389192,4.07697073395799,73.89251108017828,1735404816185.0
1.2209259333412021,485.61720029696824,439.76282852822106,259.7892659989641,0.03921485678293238,25.007846622274876,7.197646307372821,29.74027064164621,1735404816217.0
1.3446236898701596,1356.71794783925,1184.4396528958762,1617.089976999877,0.05091246840952654,-27.022688276187168,10.11412351296904,6.124456473566628,1735404816247.0
1.2509288351322998,863.7734119271419,498.78210078666694,-481.96320629851346,0.02156544324651644,-6.390171991433673,7.393080417774209,2.1537394616586276,1735404816277.0
0.9539013323579847,1219.1443085784708,761.3638746606046,-660.4325880553321,0.026331402023764994,-15.929553883250314,24.207781237081996,43.40375104378225,1735404816307.0
0.7855338499789326,948.7639675142487,708.3494364926161,-1429.3158812441675,0.010616509785080035,-8.276761995135615,5.391315008634879,42.920438919049005,1735404816337.0
0.8717154075692386,-312.578872202282,2044.281339296837,304.18574320620684,0.006640024625022674,1.872872601461637,17.178497886240894,47.32299367868762,1735404816368.0
1.071626158205066,-210.07600388553908,746.254204965182,137.83203436053623,0.046558389487240386,-67.8361010936644,15.295637674985876,29.853120263615487,1735404816397.0
1.2335035577565505,-297.81068839270097,833.6435349462639,-183.17052003657074,0.051281855126145644,-65.79561888846553,7.507634671843268,-16.53400112214107,1735404816427.0
1.6055565301758739,-376.65761686647875,1493.1492103614396,-708.4649791780948,0.06107584133007479,-53.24141242302234,20.80911213425787,-18.396618611051114,1735404816457.0
0.6665230569249277,110.28579108752706,528.9748078438266,-340.24804639372854,0.03303899149100131,-44.57889296305211,-7.503716457316313,35.320958401911085,1735404816486.0
1.5011821155222624,1280.027978798382,1294.3571316892126,-543.5531166383164,0.03435523762448598,-51.14656108599233,-1.0677536232923985,-8.887681336662958,1735404816516.0
0.10069397757554832,-637.6498395980511,-119.87842630623118,17.528247099827013,0.04153689190887258,-67.56315037782498,7.070709963155036,-3.4124254591674763,1735404816546.0
1.1178917622918265,93.18890917681006,1621.2046104527544,73.1931513748871,0.047749402265718444,-60.521274943494575,-1.063402458074628,-37.522110172289636,1735404816546.0
