Acc_Betrag,Acc_X,Acc_Y,Acc_Z,Ori_Betrag,Ori_X,Ori_Y,Ori_Z,Timestamp
1.0431045688091307,341.41845799399846,285.7264047277187,-1962.1879108040337,0.08847435676682329,-31.92187610910581,4.370795268838055,52.52018603332523,1735409568806.0
1.7782649827477353,-380.22725070659266,468.09368556699314,-493.21304300199455,0.05431822988627492,-2.1326610905041434,2.3788978023794076,62.42168811421536,1735409568836.0
0.7657336393259926,-287.8434134834738,-164.64721297895903,405.7023050739142,0.06586622504172117,-11.989525815035044,-2.268092988385613,34.93826082838883,1735409568896.0
1.0539834410980498,-390.5500758013485,-603.0082131845522,-1035.331081823541,0.07854981386547764,-39.08346500506338,6.123952310732934,19.398599007029357,1735409568896.0
1.0489922681447321,-319.5579341392956,285.46149410016335,-394.2458990443728,0.0737075944073084,-81.82201836188224,14.008715264020502,29.792271435116103,1735409568925.0
1.3367474719888777,166.17989615526048,475.20400198029586,-2616.776810781225,0.08645580830393304,-7.381520713746276,7.129746128257528,63.07639317885922,1735409568955.0
1.4151501673872449,78.55432797281696,500.51081527155037,-340.9313148432217,0.07693477181689687,-73.69867373316418,-4.020162591015394,-57.54605535794282,1735409568985.0
0.7620646177918666,793.0604159987622,-588.3217254685816,277.5450466531395,0.06737512428063727,-30.63328075207236,8.064554821949882,-79.61331050173945,1735409569015.0
0.6015032375688688,-886.1638375896658,-225.17953201316527,-424.5894200361066,0.018108904397065646,-28.102958581739735,0.6932337196886542,-34.91423970827546,1735409569045.0
0.3524610969262363,350.109259849456,829.7992492037556,-1177.9945848288726,0.0559407396473177,-46.83558683012648,8.590652758497205,-38.86685472369044,1735409569075.0
1.0509143536828462,684.0175225276373,1996.4529528402186,-1711.2544276846675,0.061239687592861844,-100.04467396036092,-7.69998020873355,-55.94787353184003,1735409569105.0
1.6245663978024902,-293.4098143242575,1053.3212053098964,-1915.7133094550713,0.04172297569370725,-31.36760840694936,4.923619292728268,-2.5941872470463707,1735409569135.0
0.45820609393312584,-640.8011897467733,631.4827736626406,-2774.807971446706,0.06868388043991194,-54.55132772238479,-6.7599341422910975,-40.45399958629499,1735409569165.0
2.510322131645271,427.9313777108866,-72.6935957041701,-626.5173128356018,0.07059728551265493,-51.121655757138456,-0.8642548620018293,-24.36673290744615,1735409569194.0
2.1397876578911603,-544.2091655216677,107.11829719260464,-572.3426112227389,0.085408568384074,-74.17871827964372,7.907375643880066,-38.46396131909658,1735409569225.0
1.4772707387050685,-18.006560377515967,183.2955845538099,276.7031657462983,0.040122606577311884,-15.155059484545205,-0.030950465849358455,-18.29245765574756,1735409569255.0
0.5981638649616366,-666.2766348769676,-807.6398392797053,-1998.359271633916,0.05922305695030281,2.980137344825337,-1.2282213439953678,-62.41300526910585,1735409569285.0
0.9393658500193508,395.5224523607398,344.91633778322876,-2285.9708779157763,0.048846551740735426,-17.81692935359392,-14.52640386132051,-82.92738649735601,1735409569315.0
-0.06916520354856358,-480.53168774883324,-769.5827428157087,1.7320188218127655,0.050267304356146625,-39.85487345035344,-3.6763744457278467,24.98844421059681,1735409569345.0
-0.47079809533811345,386.76900370016654,550.7984625648219,-139.2954149563907,0.04488279900674905,-58.619324396464364,-0.3562963066638778,7.272772747048808,1735409569375.0
0.26765265246648956,115.41853062868098,-417.56765734254463,-778.4140184459209,0.04062756452017642,-12.500816161111004,3.568137184488866,26.17206214777624,1735409569405.0
0.2728380347259187,-303.69793980829525,757.0005422460368,-999.0553826920174,0.03732717278562443,-45.518800478648025,-6.239901257804479,-27.25999908345508,1735409569436.0
0.07009209051087904,-81.25973615694863,-908.8026940579954,565.0969631953038,0.04874087226120426,-66.64476642162755,5.29006084558943,-1.0500867535999348,1735409569466.0
-0.16630688814075553,222.21854511164133,10.466376422778282,-271.70582583697495,0.05127648235784778,4.06969712984376,15.403499606077052,-12.807325868231773,1735409569496.0
0.07232968761257245,-530.3424409151667,-337.1594269811487,1552.8508871824738,0.0196164413743751,-56.53964362497139,5.2791744553926065,-35.33522339117759,1735409569526.0
-0.5436129061616326,-1222.7303534170505,-421.95555395613525,-823.6519759504814,0.012505815885865846,-85.73258463853617,-4.857172334164899,-29.869318305893508,1735409569555.0
-0.7373796205176754,-848.6005818560798,-275.1104703485354,450.77434867398415,0.03656273222186907,21.50063358171891,9.07545067770645,-42.94460153512074,1735409569585.0
-0.10563503615243079,-448.8293006325798,283.5370666214816,-517.0557650632848,0.011101253480392157,-30.678269154239786,-5.382563849621868,33.369746560770054,1735409569615.0
0.526769041132968,-65.29273816689539,-201.2111630219973,508.11193634427093,0.022523359860316786,2.702431556832007,13.731554760915424,-1.5625053028736087,1735409569645.0
0.18916465391914458,583.7782440225344,-156.5673477738044,-296.5846675476146,0.009954986557189805,-31.94277564359082,18.82717833079958,-37.42184680561922,1735409569675.0
-0.3685191938617762,-96.85908932649048,374.99476562713784,-1049.699517456033,0.006749203063241262,-42.34808863251648,9.9125694560941,-33.86353839041391,1735409569704.0
-0.38444523739177644,920.8792310937479,23.474906798565655,-282.4403782574613,0.02295344467031528,-28.33654966980408,23.46495075431071,-22.679701292229446,1735409569735.0
0.9913697249279056,265.8554421251366,399.3004667883198,538.4595788110203,0.07204109528549346,-0.9122268009923786,-3.6105900270800926,-23.195362400862958,1735409569766.0
0.18297308820552854,-74.18508649122694,39.729415556847755,-955.3604115252373,0.034812842456822424,-2.0215934395126602,-21.940051988484633,-66.60692902774709,1735409569797.0
0.6719147193317505,-481.02856053335177,-170.9621153520826,334.3610424337113,0.02189072366957777,-3.186624602458778,-8.913352549890618,-3.043670302568221,1735409569826.0
0.7634547900550321,-248.54152993281457,-136.3066168061075,-1278.6599693904825,0.028573850434567505,-41.284122044230536,5.265457701981314,-22.392580191504386,1735409569856.0
0.6246743265541275,-7.394399649755101,749.0817993818573,-550.8283918891915,0.046583638433022864,-41.70057469835083,3.0847632315101627,95.35438339266993,1735409569886.0
0.235026720590925,637.5686365873851,868.8648789030946,534.321428259222,0.017139045880669647,-59.255876200049954,-18.32122649441552,17.699793873506056,1735409569914.0
-0.08785291499044734,-918.5049514351484,1153.4731390996947,-245.56788737184064,-0.02531839042473894,-6.488573143918285,-0.9812938393852395,-9.449603459232579,1735409569944.0
0.27030022713527463,409.2176034742306,1324.7346516470445,475.8374604166859,0.0804864713173131,-23.230809761656076,-7.364497626654787,-16.744258678192736,1735409569974.0
0.5238277210864449,-1253.8259310695628,409.98397378756914,526.7981115440941,0.057200699463508156,-35.361834077672896,-6.111557453515357,23.91870922740449,1735409570006.0
0.4083477029203862,17.88957912942817,-354.6717464192943,813.8137851611018,0.045180722131573314,-10.148305297666454,9.141970025850863,-29.77852441390532,1735409570036.0
2.387695726840393,505.6762195928852,787.4428604053162,485.12088081202614,0.03546102748502197,0.9894376407576626,-7.559626643113233,9.54035548768099,1735409570066.0
0.18728888245319408,-117.58443013127885,870.9767741564149,735.7162937662799,0.04509558113610458,-16.305123123561465,10.718571266687729,69.31503399310509,1735409570094.0
0.7514242579314733,129.66961511958633,228.00040555906514,411.0941558711811,0.0038385052923552935,6.13139546652358,-6.360061066835554,-7.693509438264709,1735409570126.0
0.5149075316521344,1750.9265303184511,627.6352202173183,-585.7207496039413,0.02403359967650175,-10.9655672736841,-2.245054779363736,-69.43382742514292,1735409570155.0
-0.44821606322139307,-380.57165528635744,-96.17365237523396,863.2291842034462,0.03656739186999394,-24.15525636250183,3.428821073974982,-23.041356589741355,1735409570185.0
0.6632656971294687,-238.1565041181878,-349.0261696373375,947.5648228183483,0.05175913581802519,-17.691655987750934,-32.97000434722388,26.175680180326054,1735409570215.0
0.9458438823628392,407.2504398475906,-420.1973506744149,742.0532683830694,0.004602875720974224,-34.94003692641189,1.8737601213392017,33.6611359634216,1735409570245.0
0.38227137885172086,-1262.4019612121356,-566.465798250438,1879.7819256507275,0.00785800661351575,-32.83752492403518,3.848479317794415,35.53377292077178,1735409570275.0
0.9943482356884477,564.813895898059,197.06676066021436,683.3628394701241,0.03287166654208922,-54.911415226713366,27.247671096362215,-72.34550473276745,1735409570305.0
1.5689636802241111,-683.4703930543585,-570.7791651354449,859.4023908380766,0.05925494128140753,44.119968286918805,21.09794505185201,-25.044165688929418,1735409570334.0
1.695221201364624,-177.39498021464567,-247.0125558370329,1252.1671035315783,0.03478145667374978,73.62719853071921,24.173545512025754,-63.1271466387593,1735409570364.0
1.4504289557305774,79.12002309939658,-609.4804835520251,1159.4733600351835,0.03770796926554377,9.908756648333505,-2.9818909377394593,-32.3871372069403,1735409570425.0
1.6286221752024281,425.6391476106536,755.6709634690999,1263.354452801962,0.01510665177528461,34.7825086928501,-7.496824000306444,-34.417882856905145,1735409570425.0
1.125590196095394,246.69434189974044,-1292.856810198523,12.243879253614182,0.029073976167086416,16.28717575427765,-8.731556582270782,-3.845728524426203,1735409570454.0
0.5019180482461861,-624.1809351866615,-1195.7492671695281,435.07821428360865,0.01677851419173133,-1.608517451671716,-2.1851219728612064,-40.92603533508404,1735409570484.0
0.33035150398792135,-529.711166060981,-138.7612729526382,604.5342815517877,0.044779380215335514,12.271632172215638,-9.51254746152439,2.513865955894566,1735409570514.0
1.229651768835143,-597.7611099739149,261.8434725820094,1475.557920304056,0.039308325165549954,-11.117766938536098,-14.948866096670951,-22.085144490012294,1735409570546.0
0.6776947379428149,-879.4231710807821,-660.5212248499345,444.2086825402272,0.019699277683151325,-2.1497871558106674,-4.796554773690985,14.838261697513516,1735409570575.0
0.6056000794165359,-859.435817209195,-243.92678017614787,1647.9788809158435,0.018951170175273955,31.772977058344892,-8.35858820713991,15.165997436286169,1735409570606.0
-0.0317389882655118,-268.77362728398276,385.5291734749427,1828.9850920508636,0.05825796577064407,-15.637638107802784,-0.14573554186337745,-72.17851596092828,1735409570636.0
0.3341436699442085,-336.23964550089636,-585.3339601039536,1070.3621986130358,0.04373026997095816,-38.65756477356631,-2.7530012735096783,-51.76730201504953,1735409570665.0
1.188162136355296,10.570608237088663,608.2394066561858,894.5076051455828,0.031261782944961715,-19.5752725980087,-24.171757902135468,-23.65828085722888,1735409570695.0
0.8427264315255089,308.80236297706,889.1238829532992,2354.665493346984,0.031868498888456616,-13.562463789501777,-11.300974391485546,-9.453984818407775,1735409570725.0
1.5245502897629915,-719.9509774919587,141.82605099220496,1274.4926575320605,0.02870503765004912,41.44078716564739,-1.0887059935172125,-69.67831104438244,1735409570755.0
0.41297499926924386,306.86719868360746,-127.64466246934117,1525.8491480467644,0.03328783518288799,51.48575009159406,-16.34284601116499,-33.148709172332765,1735409570784.0
0.26199542427436384,-137.838851289688,294.2596149598078,1362.1970700683664,0.06173023440047093,-28.690774944200314,-3.0379412905641194,-35.82138337736364,1735409570814.0
0.836677677226885,-1034.6523170963123,-564.2866776977885,1066.4254545631138,0.02972565769898472,-29.984196776546288,-16.565362271863712,-66.16657829759507,1735409570845.0
0.18990627015882178,-0.6371489057950441,341.881139044013,-44.85907337068909,0.054550626852592855,-25.221530522381347,18.079558502610602,-16.270846632178664,1735409570845.0
