Acc_Betrag,Acc_X,Acc_Y,Acc_Z,Ori_Betrag,Ori_X,Ori_Y,Ori_Z,Timestamp
0.7081738581159015,10.125632225776314,415.14920212909516,728.1675515321132,0.023623020095816603,-39.84651710956229,11.913037497492187,-8.891985164981854,1735404996705.0
2.340837034706266,-483.1249462635151,-231.18459744009127,-2.483914169233117,0.010669547041594514,40.52975124443955,3.0344586809520315,-0.3181671917629041,1735404996736.0
1.5233822786140783,1015.0964430520837,415.7639664883786,1276.1821608187172,0.010730879456558722,-8.3609650668816,4.563009570684846,-3.027195333699531,1735404996795.0
-0.11849230841577729,-288.52895974855403,-205.57609759905503,157.76878613952272,-0.00910648391451043,17.395087359104213,-4.964719162843101,19.419656835591034,1735404996796.0
0.7638969298878053,-432.93545071488893,82.20491132206256,683.4834922917228,0.027083452278884618,8.759162443446971,9.088969680689928,-12.800897050089272,1735404996825.0
0.5461861651996962,607.7217433132929,-432.0246852741201,1550.4563284798435,0.004886596022070928,26.156787886496332,15.247117729369368,-20.86314161785341,1735404996854.0
1.7973883038809597,-553.7267438649692,845.804622323118,2187.527266016912,0.009679473894490996,8.980133169757273,-1.4365362595454219,5.333895037012619,1735404996885.0
1.3970212025692605,208.91002732710677,311.13642793910077,1803.1843942859364,0.00019224828593085788,-70.88960384240895,-1.7024721772526838,14.272050022611488,1735404996915.0
1.3147349251129963,-438.7333352177702,94.7142941430937,1744.9040100009352,0.011601782555299466,10.485598611097258,14.013803360382035,-9.889952121576687,1735404996945.0
0.47760542493379565,-375.9219086895798,-542.5740334614156,880.2894576741063,0.029505236386003948,40.01391398049733,6.852423706029781,13.586006728035048,1735404996975.0
1.8278689397885408,142.39886429123845,-182.76662040490692,1093.3445193580258,0.01935248302298255,-35.58394713560542,11.363180650512883,24.697557884889825,1735404997005.0
0.020723003160555864,-207.179591180731,758.8917835643254,1629.6982814231346,0.011313000031101368,-6.790836733827062,17.406852642733845,-38.53258250765431,1735404997035.0
1.7141661279274247,-422.0164658716553,-32.467223846961346,1650.956689874431,0.011847524100566914,-40.76662900576933,3.4769936526439196,42.51950493516298,1735404997065.0
0.4367536066261145,173.15206495869728,902.5706054493769,1916.4682988553927,0.01828991157182264,-8.147964990104098,1.5307305172003076,24.06736036023053,1735404997094.0
1.0666804933622749,-239.81848880989898,-428.15970617826946,362.41134901016574,0.036754651049486955,-3.061636012719162,9.772649584333424,-39.214541583549135,1735404997124.0
-0.293453939310555,246.10267839140266,602.2071852472601,117.72895569155183,-0.012158964856206801,58.562390898899345,24.516707492508058,12.086632105225288,1735404997155.0
0.4506890748560398,325.0825113241246,263.1039991505713,458.86513305503166,0.03605013466928813,12.74747007957902,37.08250362621458,35.512490231455104,1735404997185.0
0.03252295398070002,276.8767537078832,-600.8455123133489,815.1993331424319,0.05671183947658948,59.2719901701131,20.63671789181375,66.48709596711042,1735404997214.0
-0.4248440568634244,-96.20195034918714,147.86561414868027,190.5870656394639,0.052544406342978064,-19.477451179320063,-0.2966763834356536,50.86245671144388,1735404997245.0
-0.08825985909786176,-408.69192107395077,-359.04635723609925,-262.0513519614876,0.07233846685756795,-37.80678796294475,-6.7238216032965985,40.85540961471152,1735404997275.0
-0.008593531523675348,-152.61974332419462,434.48729527155115,87.99718481350308,0.029717226263288786,-63.2523170337602,9.773896668637837,33.70503689143149,1735404997305.0
-0.018241115171372807,380.7259153208431,-356.17573219730605,-263.2243718264275,0.03383157034348012,-36.55360471669262,-3.1000236831768353,7.340204888711952,1735404997334.0
-0.023206937583245768,-354.5074493984031,818.8424228937367,715.318579912846,0.05287526100729651,-47.970140060035966,6.480096555791102,84.07154956915491,1735404997364.0
1.0620906800889645,339.1962476805862,660.0621061679676,-1905.1498770579165,0.06744826563026456,-14.055371492204909,18.639456493695604,-14.638261115061574,1735404997394.0
1.2534238901146009,-555.4686029607277,313.64283978789683,-531.9088474559725,0.04327012500124115,-16.66445953695512,25.22652186638402,-19.119612827995063,1735404997424.0
-0.3371208741373643,487.2056305981373,-498.8923508025333,-38.459681259266404,0.03795742081814418,-34.08205786950279,12.111197882405321,6.209257211660296,1735404997455.0
-0.3054250316568265,537.5098269887808,-473.090059020544,-251.88448666624586,0.037360997867186704,-51.70551809402002,5.423203584201427,8.2683793131281,1735404997485.0
-0.4807183931433174,-414.3928367000516,289.33104199863976,-1401.903109774692,0.030108990664578672,-40.79951868445603,-17.070722083138357,2.6706395496079396,1735404997515.0
0.8155496396929565,80.03252162324347,990.3168595448915,562.4101155881059,0.052438837612041135,8.452345466686577,-33.41796636886666,-51.39783684173503,1735404997545.0
0.8340560653099387,-38.75724831997343,99.48796956421867,1751.737042270995,0.04724646149348236,37.92705173518449,15.100439304801672,6.446090640548043,1735404997574.0
1.4796154069930585,-609.0602181662039,970.2296893039135,1186.9719149999755,0.016764199759258434,-25.180963127178345,13.029575436461023,-122.33798892285682,1735404997604.0
0.3659011032844972,-395.7608711273862,853.594685207544,643.5182415852257,0.05526993119429449,-34.576770115521825,26.995131267919476,-9.0799264908647,1735404997635.0
1.175150424236919,-398.6314086435528,526.4999074558195,695.227190064157,0.030442164128686253,-0.8694107007224119,1.243952045635723,11.377009864238595,1735404997666.0
0.9176237333108787,191.76545999141888,58.21110893007638,939.4053106698411,0.02030745790753754,-9.255521944454669,14.118969744378386,-4.076468846050993,1735404997696.0
1.1186400637432334,-172.79492017063825,-1061.1402619069154,1774.0530805627411,0.03673062976997622,-30.44704436453383,0.7118058803506297,10.385555065098098,1735404997724.0
0.9876592274913879,-700.5820559974345,-335.33032731115503,1070.7989888491795,0.037936790293605714,-11.186185483171947,-5.926663991795334,20.878588814646047,1735404997756.0
1.9587808708084153,-558.3915220651829,295.475140729205,1138.8240886148192,0.03456662863370008,-7.8960506485234605,26.060819542158242,31.657083475032408,1735404997785.0
0.8879641799515062,-168.0319767402117,-84.80932607078354,-62.839801965846846,0.06540669983392566,19.57819155029173,9.272534551443723,-29.83928562047963,1735404997815.0
-0.30200845845868596,-698.7108604493305,-192.30802982944525,1117.7899510447435,0.03462606069828564,-22.412309185153763,10.791147026077471,31.942130929095775,1735404997843.0
1.255739357999407,316.66207516494217,-207.69125818023028,598.9905714093026,0.019465163360019546,20.806545011040107,1.7705549019086204,27.65120040306069,1735404997876.0
1.436399040373915,-1056.2663954121658,-172.8530474416724,670.7660339354602,0.027558208885771582,-15.877721577104506,4.880228268648523,48.13459350166299,1735404997906.0
1.006421055903984,119.13382707729255,464.73809369134375,643.03554500302,0.04107978757397819,28.330340899093247,12.205943858970956,4.756802246575852,1735404997935.0
0.1574134166901493,652.4334997538779,67.41465382707165,-1128.2639704204603,0.026813772183724882,20.8646686441925,1.8874318143354776,-8.271786153465541,1735404997965.0
1.5204807684065917,-951.4491414055566,-79.97744675746185,822.0383954500403,0.030296809990378128,-9.316480557343757,8.905770662288676,16.78638727531066,1735404997996.0
1.314456259377195,-735.6680794020253,-210.0468253083792,1757.7613094481317,0.010546244684229333,10.404112833032048,0.293740769348922,2.7650534206401503,1735404998025.0
1.0494798205551592,-1090.2270311754064,435.2564070618951,939.5745095235333,0.02385278150821134,-21.052400650594908,16.21344334697914,4.184003238392933,1735404998053.0
1.3167089382692818,941.732801695967,-119.729938804802,1435.3390214659512,0.07676217522415882,-37.44040929026889,-2.344489451378422,51.17178508091805,1735404998085.0
1.2168596184675418,354.6399858112825,1129.402105734814,793.0739768057183,0.015114126559182641,32.6465751431269,20.87452829219738,51.59931814557932,1735404998116.0
1.0198489215991156,-146.15744352684032,-470.57149822735926,933.0666642803286,0.010842161677458165,26.564123431496352,8.546839780563307,45.180331002516596,1735404998145.0
0.3980014302428143,-1179.844845829506,339.40010418984565,1282.8225072782282,0.04827377676016823,16.131341446836135,13.296956345840467,8.66904865681551,1735404998174.0
1.269151564826142,137.15793555178033,-387.48672064577124,1055.0865146863325,0.0282596297473563,26.66895994773733,17.91579531472196,99.32085377066659,1735404998205.0
1.1823135454412264,-329.0531171789609,-110.31960793207159,915.080280217929,0.029397663088490948,-15.52721210809058,9.372274300975231,29.371508499268987,1735404998235.0
1.2020465857118399,-266.708674297018,-253.38881981207783,130.5994493404196,0.020282514685428944,-10.113858208040298,-6.540148436285811,41.93365670296771,1735404998265.0
1.1652026177678154,-276.9879020283923,-637.9570249505691,1322.6232917353811,0.039988044077273764,23.748137312543797,21.062393700362176,58.90419822497914,1735404998325.0
0.4125444280679059,227.3344725174469,-457.7117611066783,209.1819976437622,0.04123314469008214,8.3642494401672,23.034783268709276,26.92050879304036,1735404998326.0
0.6874461849898885,-1191.3959815187018,966.1317619295078,-38.70266372721403,0.019552213025034543,-5.665200966382874,23.468477209731244,-28.9289767135037,1735404998354.0
-0.0709758931004193,-130.05621655713702,-608.746491455474,1999.3456480018363,0.01102011772929247,-42.68834918082186,8.506768817826872,82.54923080695801,1735404998384.0
0.6441210723592915,-471.7164925581326,-49.77026770647683,1126.3450382623992,0.011432399680699498,-21.715361728148885,34.590243836082536,12.71754451323022,1735404998414.0
-0.4966073536591241,537.3874506225679,958.8759155460424,-883.9189728663075,0.023829089992698962,-18.04090325548232,-1.8720631142437867,74.18210916070738,1735404998444.0
0.923043505186757,175.86239085387626,-200.83070804434035,602.8621643702955,0.03292584780865119,-42.65938774112913,3.5197613557854055,-10.11609870701816,1735404998475.0
0.7605880796153307,125.4142794409347,1935.131554834715,816.1480831497811,0.0449131194755917,-9.240580803065289,39.56754180068215,12.139549107703754,1735404998505.0
0.9724456371408889,-81.16854750970373,324.2292945880036,958.1026834213458,0.01451268412035684,1.4202101212603544,12.232470303659825,57.00907709177987,1735404998535.0
1.1551018684442795,-1402.263298043494,151.0225850659162,697.2168244268994,0.0591281397346379,-18.529907708046913,17.819365613238965,-30.151253328004167,1735404998563.0
0.40129521102258503,267.58241932170586,1169.012312115422,1861.1978920642955,0.038407164979421815,4.846980737639246,20.635284429833355,95.56923716523148,1735404998596.0
0.43626588128674937,-538.1805139046553,1081.7788450157345,1296.73805065647,0.020912249888465538,77.93527170699804,22.062224921881775,9.183522359630285,1735404998625.0
-0.09129551740388875,-450.6504936871054,108.92210080401455,2454.522898595169,-0.010823410001834524,-27.956288764899657,27.217631576631238,-1.6751511343677343,1735404998654.0
1.0766093928022986,-222.37538038194103,165.10767890578245,445.80111925053103,0.06018918518331791,55.99711907344683,30.108206410421065,50.0260942482181,1735404998684.0
0.7719534792513476,21.703443215588663,-1142.184096442695,-1000.8317368578394,0.03961575048317875,9.741461027431587,9.366295284101923,51.51749207910946,1735404998715.0
1.3230105058820163,380.5224483759265,845.420533501017,1954.3246478645947,0.017249883392756807,52.30446873586285,20.61803168784228,72.80735123255249,1735404998745.0
-0.10207664277119877,-986.6317013986438,275.53170068619727,310.076214048509,0.024337315849151886,-14.231823020590578,20.64401874597596,6.131989599975917,1735404998745.0
