Acc_Betrag,Acc_X,Acc_Y,Acc_Z,Ori_Betrag,Ori_X,Ori_Y,Ori_Z,Timestamp
-0.24428342026206673,-1358.92895368675,-924.0125321330843,164.9745680134198,0.0036651887874927114,-14.128220236432636,15.93415832650017,30.235648713582655,1735404814507.0
0.969542149877401,148.64143962231952,-859.4021060720924,652.3294578858645,-0.005631677363061803,-9.014178215734564,-2.6490929321471253,-23.980203978615783,1735404814537.0
1.7085813953323545,4.959319439696998,-956.6536690496198,694.8352372447162,-0.0029894522445183657,5.794397311919924,25.87637793002743,38.18155169519585,1735404814568.0
0.9396811187956569,-232.37264977495158,-1056.2226450742705,-112.626459768941,0.03732988274366771,-27.489186458271032,19.69493442809483,30.731998595973256,1735404814597.0
2.006581398889683,-327.00915382519406,-363.7318104252771,454.58023052441354,0.010589279192447414,-21.023366614781803,9.805789558264483,-18.68017982685881,1735404814627.0
1.047750168909053,-780.3444477911713,386.6508153805778,2229.3976025628,0.017962392331964516,46.012198109853614,20.403009944727152,-18.35279914974757,1735404814657.0
1.3028302969860515,-714.8585176610037,-1788.6302639394562,204.87330379049502,0.016804750235603908,5.444164177614184,9.181323068818585,1.294383732298979,1735404814687.0
0.8949531369025511,-328.38246691318477,96.3658968756398,1296.9466739713198,-0.002225182555112875,-20.152038344889064,4.781727475034631,-4.436753969603409,1735404814717.0
-0.0009820026721714115,80.70953770055408,-441.85127830442354,891.6465779474967,0.02780108906330639,25.270189275796824,16.740757919547413,32.45827693929065,1735404814747.0
0.6008995378626367,-232.97186719679877,-784.7228083032431,-90.58756327232436,0.013946679722644805,-52.71743393195846,7.219191395544653,-20.295515157152035,1735404814777.0
0.7065537212870974,-8.02540251784285,-619.5996139416536,729.8617556891843,-0.011760688867664638,-2.441560812615788,-7.703304419885603,11.413053239700236,1735404814807.0
1.659039671566783,-192.67754024500476,286.56256079636694,1444.9455214866207,0.005555225375248838,68.44632100804574,6.411645329657754,32.18125256992173,1735404814837.0
0.7592552798429344,561.2789588170643,217.66088118090613,1597.6117736457572,0.02941947954245074,17.744614170891087,-3.17885089153868,41.942358107625026,1735404814867.0
0.7872392755760426,-680.1444051339963,132.35751715661507,811.0122218625743,0.0017225963147663378,46.93871959128384,11.906858328285058,12.910280345589344,1735404814897.0
0.7785908555259313,607.324995939958,-752.1750874124369,1310.1739693033198,0.005316852943114984,-30.421545814426448,16.91168065091008,15.90462978535521,1735404814927.0
1.1325866210922504,412.95203219293256,-425.0982483045949,1419.663183858711,0.027646426209396946,2.0876975478024864,16.639243648778944,-14.214320508790244,1735404814956.0
1.048768347298576,-142.77649808333635,-365.27222393052546,1129.3927945075075,0.038647401342374516,29.0988068922138,5.0183060384253455,-21.539049767251477,1735404814987.0
1.1807475499862392,58.518763079929656,469.196447230183,3077.1975938477644,0.01953009239518351,34.29550684879666,6.405283588600454,-0.6496060537449332,1735404815017.0
1.8102595131860575,283.89126341834327,1315.3832365599299,2418.7296026945037,0.03430690899175184,-6.70663726235563,27.397229163590772,-33.14857275076233,1735404815047.0
2.1835273438791574,108.59256676925865,1306.8444358597092,2178.269993850972,0.03159179433678279,-16.677577928040726,3.3521207448242283,-25.23049252644067,1735404815077.0
0.34366516726797436,-42.429774345031255,-68.65034570798917,-1154.7737708588186,0.06308399007476594,-100.32933990449808,21.145372878104162,-55.32433999970956,1735404815107.0
-0.21873234866350533,-448.57728371824777,1021.7062803147287,-730.9049099609634,0.05510062986835318,23.6986989472249,-14.50827428501309,-32.19140473429385,1735404815137.0
-0.2458498495206919,-166.4608099033668,686.3322737610877,-690.7843982931122,0.006216575462084609,68.01112811893216,1.3546311843247594,-6.835780095469577,1735404815167.0
0.16026006971308687,-412.2010529972033,4.027143569938133,-715.9380903652097,0.02137751844048468,3.891942211689127,19.293387409323074,-2.745830630058923,1735404815198.0
-0.24120899060299705,-156.5205615644712,-203.24410767920557,551.3866950336508,0.03936286298044938,7.353250439759314,4.0156331203832085,64.17679393021808,1735404815227.0
0.9576448604962123,-636.3992902176941,422.34434044305215,-113.99871128803912,0.07171178981427268,11.897388810230897,4.270742116927348,-57.14146663785067,1735404815257.0
0.11059615790276135,267.5212018261725,-811.2011541233674,-114.40611999418233,0.049042333800011134,44.06798662175216,15.33637966461346,-36.911361379583475,1735404815287.0
0.4098256424933921,-704.9045119250947,-1126.6833346043616,-716.5137045490294,0.05751445821594822,48.320320167569804,-1.426913838487705,38.254248860449714,1735404815317.0
0.7601291442679599,-541.8971186960205,-198.16879107042973,143.07877956687236,0.055313098783241324,44.40537538656889,14.4972696358853,51.25963631197616,1735404815347.0
0.7908803859770988,-269.5459916604286,98.71893503170398,-131.49493803279458,0.03554089565133273,1.8126382746320928,21.031071758469654,-24.77392924217565,1735404815377.0
1.8682523851032244,650.2044560371153,-2021.938506158815,1603.1245021320922,0.07823850595067569,58.68116377182685,5.553179861940443,0.5067210500711141,1735404815407.0
2.553205264026638,-495.864773967612,-2358.264006705412,-195.38396068792883,0.043287033605784696,-10.824270169963977,-11.025565481143751,-47.41529110417311,1735404815437.0
2.3061529389412705,-150.80597199266276,-2378.04829247034,612.9603480678311,0.049894601057894124,-88.13002908165267,10.109454689663458,30.313128382910914,1735404815466.0
2.066735748575916,490.64092956905455,-1741.933840227237,1347.1386889714224,0.033806303223812374,-48.38291692304873,-1.764693148523797,39.09586426912172,1735404815498.0
0.9539799891127735,-619.8738978133117,251.21622565050848,-130.1701536918635,0.0628402196524517,-19.76800791527897,23.230296300294867,-47.768160721252556,1735404815527.0
0.6445661437052679,-618.2865779054761,1.4171153910206158,-716.8343098635539,0.05285813388422369,-84.89873556576822,-19.44094891359539,-63.19598328582092,1735404815558.0
0.6886781064384364,-216.44667964356586,1798.4210061684246,904.3502302166656,0.05720412304873146,-56.79199214056666,2.6655886872477206,39.52914466647053,1735404815588.0
-0.06604508334517445,99.21441951699941,302.3722535276544,608.2057433185856,0.035708266557135826,-98.36879150710854,11.952255931036667,-16.347857892887323,1735404815617.0
0.29274188778715055,148.83979281302044,960.0858543027034,-223.16297287329016,0.041244312306902814,-73.78230588196433,14.019557478486568,-22.48962910912441,1735404815647.0
-0.007637489613828263,444.2457376669446,90.16116046629105,255.38160395052614,0.06703083478090072,-33.08602957695544,6.825222779674254,-1.2975683291912432,1735404815677.0
1.3101737802057312,392.87513202370235,655.6584747451113,323.554075209645,0.07408096999354792,-50.59063921361033,3.9414144735359837,-38.87648575887592,1735404815707.0
1.4739899440919741,971.7415755173395,1356.9483202242402,-668.9054100985967,0.07272534029656813,-25.77704713230207,-13.328866589806324,21.67255395599934,1735404815737.0
0.9282098124801477,495.8568541030657,1773.145361384611,-605.568148508476,0.03516864290511272,-27.90176976765853,-16.39180601484354,-42.25001429799735,1735404815767.0
0.8601642381351831,710.6588112739989,1553.693742445,-1015.6793669703147,0.05513024689758119,-9.536025898218151,-0.6284814014688025,-1.5322794588470323,1735404815797.0
1.0040129327827543,471.6366926681187,177.4069865243573,-968.4198330568215,0.03139433828642262,32.141128350798944,-8.61125738279342,-36.28594970681081,1735404815827.0
0.3137721810063112,604.059975850892,648.0701797686884,240.42791832068872,0.0460812249109942,23.502066873052243,17.688976981252686,-70.42830918593074,1735404815857.0
1.3283059242392534,353.7874870911453,1643.990791012369,-184.77454680454252,0.05764066454994454,-49.38650850905948,7.528562350433382,-66.39082752552116,1735404815887.0
1.3382217057987935,-123.68522528900417,378.8581723426306,77.31896874658086,0.035490644225749136,-60.0888301228768,14.301620098309112,-31.11737016049144,1735404815917.0
1.2829237579381083,943.4382738557374,45.78378291480453,-207.38347808907196,0.039991416890942266,67.08344542345623,5.4374688204586885,-34.26955003898231,1735404815947.0
1.1367012517258819,252.70015211163934,1316.5028967644319,92.1044432830654,0.05657531692654774,-37.90900942239321,7.172478721798749,-49.85421972235711,1735404815976.0
1.2410639380945296,369.0823824333422,437.6201446644757,225.67848343727422,0.03824112749125703,33.06133553413467,9.51950791124976,-52.34122825805477,1735404816007.0
0.38770897599785636,545.0947168439559,1400.4811869119303,1301.2621785261222,0.03230482331303086,14.680193760758627,3.798338014278917,-53.94735541781665,1735404816037.0
0.8647096489179273,286.30756203288456,1035.7133288837372,80.48571513555368,0.052165553109095694,17.630688846326436,10.022269869402338,-42.969372872924275,1735404816067.0
1.0860097806947129,897.6712710127076,1274.8623594096052,-135.8165411368106,0.06396213108607553,-9.22203124275573,19.36745106938554,16.93854686054078,1735404816097.0
0.2153188817424747,38.45575701881111,1547.2345659615405,1681.1544814381755,0.08792161721226724,-33.87283826024384,19.774662911842764,56.09064229668543,1735404816127.0
0.2078431087333762,-152.85376783053994,655.1135285018236,-72.71308896707517,0.05631149958591743,-23.173472705959963,23.15435243493534,50.088600097469154,1735404816157.0
0.10948009940051828,991.6874879407294,560.6110334973488,265.01957761304493,0.039775164846399765,-33.36758174999854,12.04197649666379,37.53317526645765,1735404816185.0
0.40941974547614113,-233.47026321749195,888.6296018734703,1072.9977666514953,0.004657555200833476,-12.307063090659838,21.892813958022884,-29.18185992508889,1735404816217.0
0.6512500372366158,603.7743234498836,1548.2206236948741,480.55091009856704,0.02009751852872396,-72.65647358348266,10.829455960957784,70.39807985298695,1735404816247.0
1.5591013345879863,1703.3181919904484,1782.471439624227,-429.86264625419653,0.03876540146262177,29.113504114894262,6.582100425344404,-25.10054216149103,1735404816277.0
2.4237779006083393,863.5287380004895,1033.2845473544648,349.2493285587932,0.023929346415982242,18.88614192562649,12.328787698343442,3.5493490304384956,1735404816307.0
1.6110843756116304,-37.25886913549968,1130.8495836268512,909.5674998668046,0.04493853793130033,21.182515210390925,8.726728736347875,32.78561982043475,1735404816337.0
0.6636382422640448,420.85559766243057,1720.555642811882,-645.0028968565582,0.06084833388856526,-8.533470435277337,0.971919943368805,56.98474590822422,1735404816368.0
0.5246995926434768,-539.0412561591578,1048.0131267818376,731.046437392976,0.054709948918214284,-22.976529718186256,15.882949796736886,-17.136951648836078,1735404816397.0
0.04549231287563382,-1089.5104207558236,294.26658767640185,140.54504240339924,0.022205515756513264,-63.3453552876941,1.8071437730514148,24.069151751935113,1735404816427.0
0.8556701590207112,122.29471161447364,1116.5708750808997,-717.5313297741496,0.023720097058737597,-37.95355517930645,3.4093585607940744,38.7823857453936,1735404816457.0
0.5344884096292359,-743.5315332918473,387.04065339588067,-337.8922978308635,0.011553035547533952,-48.34638169994257,1.1534625161729541,7.522133143022667,1735404816486.0
0.9395691971087832,500.1867086866511,1606.6648559523746,598.3819982058386,0.021621947892725167,-2.083343598179958,-6.955025240849425,-31.19975037188392,1735404816516.0
0.8276804349808216,8.827162709412079,828.1542365406806,-1474.9255450137678,0.013004224829031005,-34.52656616630268,-8.65222434130397,65.37612606328221,1735404816546.0
1.1007790888168187,3.5781947900888724,1298.1671454797379,392.9695465973854,0.02505191509177199,2.6747277037293458,-2.778897722408681,19.688626243294838,1735404816546.0
