Acc_Betrag,Acc_X,Acc_Y,Acc_Z,Ori_Betrag,Ori_X,Ori_Y,Ori_Z,Timestamp
1.9900239826134631,1296.6628820930648,-25.555846008423487,314.4237357372041,0.04591569864326239,-37.410013385535734,25.57138483748549,80.14415661851524,1735409672099.0
0.6185391814773864,1859.6350470797065,1672.605441907681,-827.4996041626035,0.05050225984515679,39.974626385895206,9.402233085262436,-24.708334496503362,1735409672128.0
0.9883281842868358,1079.7457553761542,915.6259924407714,-0.11402590824690151,0.02600763801208915,-4.451632680718003,12.68578318131833,-23.874196127953432,1735409672158.0
0.9351774193468796,831.3897015783288,279.26449681494717,188.86326350961417,0.03631852046092997,-22.673205613061377,1.8949617403378136,-34.731893021950896,1735409672188.0
0.7946906874470072,1119.9745579735334,696.6225806133261,6.221346222037766,0.03689231604965644,80.11882487055306,-4.861382308853387,55.495777552225405,1735409672218.0
1.0116789283484648,1042.1814845709537,-850.633998913919,-249.83371062234843,0.04783882020462352,21.51366942032048,-12.955252826916276,10.260282989906049,1735409672248.0
2.0981624957903797,1672.6417968139428,528.9606743154316,-1034.5702664819662,0.0482229584760036,-1.6979946642879185,-3.6361779335592703,50.33892436075078,1735409672278.0
1.7315646363428108,1455.5359385506379,443.82523641026546,1968.367721815387,0.048246892433562394,31.90561987850718,0.22178690276508206,-25.981653298633397,1735409672309.0
0.7815687749086574,1216.1247779689359,-197.4806004352484,-25.529362879475528,0.04024719208480518,-24.58196222411729,21.433661096996655,22.244410694479914,1735409672338.0
0.7757181793611625,461.51787614017053,1463.5739993627458,-233.60228552080554,0.046831676492787945,96.3909848929085,20.345005809534804,43.68224447086324,1735409672367.0
0.9391641252227567,1025.8921932071048,-112.54069601013285,106.32007054620652,0.04836060041974303,33.758541562472786,-1.9813242504676105,72.59395463127882,1735409672397.0
1.1381879397025165,5.848296844382162,679.5076440288701,-1426.8215117277855,0.05152692282180623,-50.553227686428,-17.06766872896994,2.4957021385062506,1735409672427.0
0.8695974566874034,446.5503482189374,-594.2558385081111,-431.5254913472463,0.033741268032529526,3.8578175817002034,-16.298061687913123,-17.372823846570384,1735409672457.0
0.03420604451542686,1183.1759069646894,-175.58317843627879,492.4959019384996,0.02850508691829712,-37.98839083755648,-0.22341205867010583,-73.46388399782616,1735409672487.0
0.6607896294427964,549.8913762180855,-498.2438172404633,-683.0067634246226,0.07261871282361206,-67.839874851461,4.173713880972264,-7.372674638409173,1735409672517.0
-0.026932655859713828,1784.049228958616,-615.218823623653,-826.7422971385547,0.034164087021947995,-65.27583476424167,7.6377181147579805,22.408249080924783,1735409672547.0
0.7420315613450487,370.73573692067794,-159.55539379346885,264.80387538675575,0.04092267510180159,-19.23648244053955,5.9800012834894645,25.885095353822933,1735409672577.0
1.414247238884017,1322.053461519708,-345.28826397213925,798.7543984724904,0.06154002604938726,-7.643083164132015,12.019357922760095,-59.56581281070163,1735409672607.0
1.8912615839507338,283.88647723809504,-201.3136624348474,-497.1744328985577,0.07764644590236812,-6.297836866758132,4.753076992322988,-63.21120700755598,1735409672637.0
2.1513523694600467,640.6378578349771,50.20679059416841,408.1655396000061,0.07750970822102392,-66.30645616043923,29.045887862839216,-14.972443030327755,1735409672668.0
0.3590384602578781,1147.273410611702,321.54057649782294,0.8378941185944768,0.056669255497160564,19.593186817898946,42.456539966750626,30.53403600159716,1735409672698.0
1.1778259911667692,597.2958434744609,-127.39904661852438,-1403.0266826569605,0.04582351135573222,33.4856359200335,25.020221767995768,-16.66128068070367,1735409672728.0
0.9068277854013016,-30.178428703264558,1262.557199479956,21.194180560728228,0.03363014484320469,8.227684859701721,24.17323583730223,58.40043763738164,1735409672758.0
1.1987983863648177,813.1583360376303,-182.37006136486417,-1117.9754992176665,0.04012183071434898,2.736068051739716,19.43482038884876,-10.998340091864847,1735409672788.0
0.828400905604425,496.25039040925645,-846.7095839857252,824.7903816195867,0.03369276761226181,39.51909706345022,11.526843455979584,50.85737742376679,1735409672818.0
1.2868204236657568,973.8498630663648,-800.705858332081,380.0367890309385,0.045345326393293146,21.930424068733984,15.742200122858657,36.302200665860155,1735409672848.0
1.3807555660637538,422.95773131241015,-714.3950849034002,-1235.1153021679008,0.05175071518683975,-1.3896061919609668,19.256430089486678,50.91709850548409,1735409672878.0
1.1017726754302368,746.2241679622598,-486.79554374454665,-580.5360584500638,0.020218172310201062,58.34472087517398,1.1934307377638866,13.609121331127344,1735409672908.0
2.055513597569317,215.40339568234106,-75.25145017160696,-222.20331880162624,0.0530765868564776,11.056883642005538,3.117203772028926,-12.22641195539596,1735409672938.0
1.7564523321835812,-98.79865493005923,-458.49025731150846,638.2247593168998,0.04280981366509568,3.2427146899793335,14.250640320224102,21.371589945800356,1735409672968.0
-0.6188188895658344,-1022.4166616409366,-633.1988868071218,-678.96408000113,0.06698044943590144,75.96798943540686,16.91043635992323,64.1898158231246,1735409672998.0
0.04470419420124885,-251.46866095095947,-409.16407690581605,704.9451280869223,0.046491232421111035,72.91853207517875,18.35516189540656,-81.94465192306848,1735409673027.0
-0.41975600287169484,-320.5435222369007,381.7061907132852,284.63827009517223,0.05540838323999442,71.8706234268268,21.130139368044645,-48.285743283435096,1735409673058.0
-1.4917830841604132,734.5182660268155,721.8160649118427,649.4218072228865,0.07670323660870178,46.09367372751359,-3.8912752109050386,-16.46518535779445,1735409673089.0
-0.23567212507523405,214.18223427886934,-57.538924273710855,-122.29333390892722,0.049989407558330014,-58.64191534734631,4.7897922986712205,-31.713426241861278,1735409673119.0
0.6790305085154145,108.15715537915783,-352.92435853553394,706.873873120574,0.07405243059846178,-20.208614435210578,-14.933785589772466,-34.364566766090746,1735409673149.0
2.557755907545512,1733.7186010454848,1576.0730759141072,364.6507855862606,0.02722404216874899,-30.20665763181492,-12.76935896105265,3.180018774476121,1735409673178.0
2.827117313473856,1859.372102325491,2091.5709058215225,874.8880304392542,0.02748217202627235,-24.467108707007956,-5.253454464760118,-44.346394236507415,1735409673208.0
3.472218239754817,1795.0243596941516,2031.5801590854749,-205.69329681044007,0.04540792780663193,-43.34041314195066,-33.33577350686418,-5.617377564070032,1735409673238.0
0.7468982828603163,1225.6674184127419,-533.383200848544,763.9104116496142,0.03768284515673957,-65.90671577723523,-17.03134401118227,35.20850278209672,1735409673269.0
0.6582255654650531,-416.82837865369345,1581.3787744626734,-473.6071481407565,0.040733762778073224,37.87140165235108,-10.04359804467561,28.950761152850074,1735409673298.0
0.4889448813521097,549.6384059434155,718.5392957029133,-208.27922523411428,0.03816402956910257,53.590930894925506,2.517784050232505,-8.095176796297554,1735409673328.0
0.27959997538336706,148.54001113521167,404.9005055544136,-200.14973300937984,0.03685114611401758,-9.204845031489754,-25.036973196530756,-45.53289028334069,1735409673358.0
2.617407240648034,959.0933926451543,1276.4679818366162,-1349.3197106092557,0.05941531712001478,25.22235208253266,-25.588685339866103,-28.959271443497382,1735409673388.0
1.178769290761813,407.34824814892886,1574.315391918376,-1282.3841523807766,0.05778386833318291,32.8909160308623,-7.29118156480556,-33.17335566601036,1735409673418.0
1.4846052759612234,1113.3256395725077,1022.9564794161046,-379.85771836033837,0.031162218083016856,-19.05187730859943,-10.542877848772234,-5.366701435397358,1735409673447.0
0.6380884079713727,403.7123393499272,-35.11691897813713,-188.48818995100447,-0.0018494900264387285,56.49598673655596,-17.305510882366857,-16.345844633472616,1735409673478.0
0.4503307449966493,-551.501293224412,-560.1772218026292,1228.2906854063297,0.05238003992374761,-73.8889726087946,-10.092967787890021,77.72005825964557,1735409673508.0
-0.3968095568439736,-276.86279104869686,66.00976279555326,-1053.4492666935785,0.044672724396750706,-69.6523434634585,11.31618826313969,21.849377216019043,1735409673537.0
2.5725006562836072,946.1208751645254,1672.9576837260033,-1999.8680678562685,0.04812932346874446,69.69268033550053,21.50957721193792,-22.451196021917603,1735409673569.0
2.3673931115862774,1215.9693686386,1438.6772161540944,-1472.5791994560354,0.06625377463628263,77.16444504489999,21.033132323363795,0.35138605814968926,1735409673598.0
1.951208792482187,1629.8617810736002,1012.0799413118851,-1049.6467989838447,0.055014905341178914,16.9589125593833,11.835219946033272,40.67372768868653,1735409673628.0
2.592856848942933,1693.3504721879085,-64.53518965698208,-2276.027688035895,0.03982430368994678,33.96074352366411,-7.15141130926105,29.516118716598104,1735409673658.0
2.259142256301523,-970.9246887330919,1078.6093765471944,70.57121853605554,0.029644405287628593,10.356763392964726,-3.70587050030408,19.55323008442061,1735409673688.0
0.8642499002957106,304.5126668267707,52.63098843415817,-1737.2537748197544,0.020103290782813033,27.614878034923528,1.1678330002928092,21.06893784718738,1735409673718.0
1.6488577335748977,196.70099403216872,58.51898806924281,-211.5089485193596,0.06059847135589954,30.786986676273273,3.022048139221277,27.585702939258635,1735409673747.0
1.140650055416759,989.2903105139555,-16.164316060504575,-502.17046274783456,0.03963158784608553,19.543668188847665,11.876071799366324,54.317544733502544,1735409673778.0
0.9429380327405471,219.53995312423478,653.2427784334886,-402.1138475292559,0.030738723915108738,20.30904441699662,-1.3507277710269623,78.81926617317869,1735409673808.0
0.7582391578669986,1425.4695140322592,443.4709186962997,14.564185484546897,0.06039923763529206,81.13221890054325,22.64344427605894,-42.83216382468938,1735409673838.0
0.8598775068157054,606.9158430747564,329.1670796226399,-2137.915514543378,0.058245421392741706,56.69605771215605,21.18432245400422,20.1785761320032,1735409673868.0
1.895273249285072,400.14814351842836,23.7685830977928,-828.3564065642488,0.07655328129203381,60.948482867695276,11.781740912569884,16.38040260939213,1735409673898.0
1.0727763210454104,558.3994761940337,145.99406349370636,-499.82987720408283,0.07494290496359651,82.48976018384784,9.908093214868941,7.325826984347607,1735409673928.0
0.11816942267137931,551.263636393549,1137.269834280414,-657.5291806537291,0.09792369758276083,27.547812509874102,3.416119139323216,-23.214148566148232,1735409673958.0
0.0032471336950128382,87.21752976009537,632.7586537038869,-1286.6941430314266,0.053459365529516,30.42855377020502,-9.141029843331955,-57.81360402856272,1735409673988.0
0.39535915818357537,1136.0627342857633,1099.4703289554006,-854.6884796871079,0.07443892961573603,-12.491476986546722,15.79448562252347,-51.46512875690888,1735409674018.0
0.5344595451785669,264.23822222623284,965.2891391532268,-239.76773698489012,0.04493108033467596,-56.90445656940981,23.198775894674917,-41.18862411225292,1735409674048.0
1.176041531166131,-203.6460521634276,49.674076479800235,960.2604379142745,0.10519869315913785,-66.38672490908824,24.56093548439692,-80.50257700581702,1735409674078.0
1.173692979943116,544.2533048571453,182.50416809724885,-122.4177574384264,0.019959642547165528,-46.048850405344595,9.874467067822572,-88.51945592902317,1735409674109.0
1.5613753017968015,871.3999311921316,643.1619741733409,-1381.8318399166685,0.06703608800109917,-77.65624623772794,12.278537764014837,3.517918277716035,1735409674138.0
1.4768327348871306,-443.98192957586286,-671.8348561198449,-1792.5565571971288,0.07652630731445093,-63.50744111101387,2.619349559114484,-33.75031213247084,1735409674138.0
