Acc_Betrag,Acc_X,Acc_Y,Acc_Z,Ori_Betrag,Ori_X,Ori_Y,Ori_Z,Timestamp
1.0129903427294844,383.3457052324716,-670.4389994762862,25.003165451398445,-0.011174946470395805,-18.591896630867176,10.154435361778313,-1.0724807978954072,1735404814507.0
0.8706395914765404,-529.3598549718519,355.1811617064801,-332.0048681845444,0.006768096700939698,1.132555864668217,13.08045507596842,-24.046406016720113,1735404814537.0
0.4226139825951689,-796.5449690931601,-1543.6871321275382,1106.1133590913994,0.025106535203943535,24.949315154513616,1.849386669710725,28.551420520294993,1735404814568.0
1.883917793426592,689.1087855051104,62.87025162702491,147.80081632434428,0.022479886002956945,-18.28855186182061,11.854450364385727,-9.943423155034814,1735404814597.0
0.3490741436377348,-635.5902349942306,-605.7802032556378,-328.06704073894093,0.044932974580567955,27.890940874548008,20.894952509261813,6.752733922692801,1735404814627.0
0.9572578961332582,-65.69085847659696,30.315280427714754,1348.442359118879,-0.038282781302079315,15.839527705441999,34.63625332521176,5.558151361112145,1735404814657.0
1.1206452151808217,-545.4004250627202,126.80474243457712,1256.7761923472963,-0.000618536875312492,4.578222858338471,27.09691892558112,-38.00617932467208,1735404814687.0
1.3924843835316354,-592.8358462689004,463.754450960428,1645.8998321093163,0.004595182251574185,-14.91436043547612,6.773783129003878,38.354621594595585,1735404814717.0
-0.06394920502984225,377.7463855027304,-554.7038203416469,355.3138234692675,-0.008837747425250042,41.62773700400652,14.250808159073857,34.76746471021048,1735404814747.0
0.8774131218547282,-24.011407955297585,282.69164920740707,341.23218193901187,0.008232409386081092,-10.521744815808828,-8.757379550898836,18.66607544118893,1735404814777.0
1.5923208737186036,-171.00368530753846,193.49894644910438,1008.8096460265988,0.05431783581367853,-18.709613179215552,5.23540399054021,-23.057845523654358,1735404814807.0
0.705966115162777,-374.97981589510505,-198.38111352071917,2307.1952004589602,0.01940269215671205,22.153109423704674,19.415496611982903,-14.505379859982165,1735404814837.0
0.23679875652997062,-260.7515142622524,724.6365382933093,1600.883148813277,0.040786912429901845,6.644138558989498,-11.186273525972606,28.517412819641162,1735404814867.0
0.9715493208690693,734.1933775886066,-378.73335386854524,1369.9884835433138,0.017461194106714525,18.860321108623943,7.357881239077344,46.06731576226404,1735404814897.0
1.5768080025395923,-348.70513803834956,-500.7213811986569,240.27798981376634,0.02001288113908506,45.23429380240252,7.907840541198269,59.7549855945596,1735404814927.0
1.5447386628673478,835.8826110599276,-734.8779848858985,31.54286124636417,0.04080935212557277,4.539244822868762,-3.1745622988438242,19.782971249709945,1735404814956.0
0.3953063059922748,419.60425232572345,-263.94795023256586,595.3264754056697,0.03880352011182395,58.37365218707498,11.926195805601001,-39.70517116174424,1735404814987.0
2.5478085572609794,-222.6387921494178,329.4157340793187,2911.261864515556,0.017558980998907757,27.982008617086336,15.178367831135528,-23.559009728433487,1735404815017.0
2.0716284581616273,-314.51819166881535,305.9869527935314,2570.062682021242,0.03241965026167035,18.09216517018799,17.264861896181337,-26.744046664785568,1735404815047.0
1.3521902683628642,-984.1626337933623,279.4841093589,1574.1154800151871,0.03347894608821961,-1.0892596803409234,21.388286972354678,-39.15299245266556,1735404815077.0
0.6311488875492521,459.4138294473845,68.79877393570442,-237.1000507834593,0.05314123357335248,-56.81508688881452,22.177224850521213,-34.819115248465096,1735404815107.0
-0.29983337624573375,-304.4503971987391,-508.52161066120203,737.193241933885,0.04156229004114459,29.19939207867218,-5.236077852216663,-29.053230523707434,1735404815137.0
0.3122155342443566,-20.949841426298747,-62.17125248494996,977.6361090574042,0.04678975906114051,30.609532902626064,1.9342901062783842,-17.218347416619928,1735404815167.0
-0.387635333113896,-381.061963365608,-144.79512457582874,-95.40237856578209,0.024580549370295194,29.63856300641382,6.739751383196296,16.42408200001867,1735404815198.0
-0.9701979488604068,542.1333986345313,-582.4415310245412,-768.5476568861868,0.053115066264515454,32.168545402124785,8.41812932607283,46.555947492477884,1735404815227.0
0.7741028983907331,1179.7202577817868,-477.52084879138795,-191.5753275941318,0.06389346372958188,23.54358797829054,2.414345965848177,-4.272334024535461,1735404815257.0
-0.1495732906601545,402.66429013376074,667.7240676652101,-36.3705640186125,0.03245764095826312,-29.60961429351015,16.914219287486198,-49.27235484363965,1735404815287.0
-0.34586988487206793,47.60701840533177,307.0235626977029,-389.89359177905664,0.017105901485970364,38.20806891090694,1.88097717691163,23.951618608113126,1735404815317.0
0.19749016147429127,-1367.4423134550075,170.0584519491901,594.4923874507707,0.026239408805330898,86.85731402309942,14.675930336676533,77.47885370591726,1735404815347.0
0.47071883246073853,-507.1857673705441,-616.3853527659396,-870.8371326419963,0.049237810141777326,20.486668476838474,7.932843063136765,-27.43233916315902,1735404815377.0
2.521918430247899,-283.39267636936086,-1899.4695060591425,1182.0943065500906,0.02476097151364303,22.632765149873656,-10.72657188363965,0.696526503731782,1735404815407.0
2.074667835825879,745.9947812552688,-1939.4489750006906,283.1888475252423,0.03697547095350596,-62.64993703672909,-11.433123764684211,-25.945544298359398,1735404815437.0
2.1864763472079507,-545.8824136275073,-2270.7638233770604,172.69650613025343,0.05540395184155778,1.835331699000605,3.3457305646286546,41.557673898653135,1735404815466.0
1.9922686547696074,-113.29495933809824,-1687.4108257001008,988.3915600212622,0.046221700675468894,-37.57144559720762,10.613132000374017,-3.497748022096048,1735404815498.0
0.8850191531929006,-928.7845241860941,619.7677436637496,24.05171514126704,0.03664595748817931,-3.4615783231713806,-3.255774871912374,24.593251015262183,1735404815527.0
1.3776846671239324,-432.6790435998515,1189.3698631282227,-204.1954888035092,0.04752821154496306,-65.64524204411875,11.073895867825627,-39.087679137709,1735404815558.0
0.9435756237989337,-69.92375380831396,401.186612821115,575.1183103921309,0.056433268640530804,-49.305549793064415,-4.7126856126460455,35.88363066971834,1735404815588.0
0.2631026661696013,35.33825784764977,-679.3255390339823,120.38476397817601,0.06729736835319247,-49.708297220317874,-6.887979846548381,-6.37822053492314,1735404815617.0
0.9995113920649596,-600.5210069582143,103.07301148377053,151.47846798785957,0.09969326935999018,1.6598101765076692,-1.1095704629959062,-20.17866483900396,1735404815647.0
-0.12898199144214872,141.03214780735956,355.0820554268723,141.03462004435335,0.056925859547307334,-89.1460500652202,8.318028243969486,-42.077905275391714,1735404815677.0
1.0058096796963705,138.76913911278172,-919.2207639486392,-1675.892859260663,0.05952884450176765,-57.457855373407945,-0.5012422170956516,24.73470604509334,1735404815707.0
1.2467138925933374,1358.6086395927923,1878.0296027100906,248.61371163025865,0.07765286459391826,26.527528745370375,-24.886252804726823,42.23895789900068,1735404815737.0
1.5624115357796924,1324.748813700689,1401.618717233095,-1178.5847363478272,-0.0003329456736570896,-19.22404436096111,-14.420458651622889,-9.859396277013222,1735404815767.0
1.2510178502917022,1188.9565270880428,1117.1744740195813,-0.5071908927558582,0.05047825262667384,-58.55256500890635,-0.7226146463227203,-35.40649028567296,1735404815797.0
1.2656183924647488,727.0715724325757,1587.3986013645601,158.0475611893786,0.024496736800729217,-8.183194975635924,-6.817963232513414,8.806777180187929,1735404815827.0
1.162430163583916,-268.1593917747103,842.0273554658382,-121.25078209479352,0.03021048987548799,3.9547853816474756,5.589523942554965,-4.259573040726128,1735404815857.0
1.1070780097775315,498.53457011875815,1136.0843840486214,101.31672268621912,0.0468175088664538,-26.03394452094841,13.886426091274279,-43.53032752470036,1735404815887.0
1.6909771469726718,-55.90445615401691,754.227979205836,487.74389854238314,0.05777303690466374,57.397354678993054,13.924523756342053,-60.76805350124434,1735404815917.0
1.2691883437623375,-184.35854793290832,1170.2570176683294,-451.3520095237001,0.04766536104887726,-2.086271509190336,7.996062084811159,-76.50624279985018,1735404815947.0
0.6499406294668604,-166.0639723988363,138.91838236453725,647.1868262814586,0.04673305510328295,11.186883569810792,8.90319755701911,-48.06451750821495,1735404815976.0
2.131387504733776,21.301383195160952,628.5216965701578,-761.3381591650359,0.028908525006292717,-24.095358946755525,21.843652887479053,-30.260167759728823,1735404816007.0
0.9624618816072265,-770.2384620874085,1141.7467178228248,-581.4720019083973,0.006504622078265333,-0.3538363939481073,18.72152608188095,-72.36432101556449,1735404816037.0
0.6950025397270942,1073.179693089381,1193.5259042613725,-179.47275364449817,0.07295390796429595,-53.767346873413054,14.36871736729168,-54.08431425030983,1735404816067.0
1.8359327384331496,379.94360474478856,606.9709517234478,-859.8122025507537,0.08112594370610231,-25.009220584935292,11.965706432973771,41.66945846851321,1735404816097.0
0.6541443328960892,-221.67975997142292,-155.84921573009683,-868.0028469656162,0.060073876998854456,-44.01695779161594,27.574256008299457,78.39787927041124,1735404816127.0
2.1216712295479088,784.3274535569847,-415.32646106689276,-556.9578838587558,0.04845112199254624,-12.807630870804125,13.01194740526649,26.781398759667702,1735404816157.0
0.535611518732676,707.862409413271,593.9881196573867,-428.1440183318249,0.032184792302699286,-14.085892694191912,9.85236158926904,54.173318296057346,1735404816185.0
0.2769968186341931,278.7238818429091,1563.4171049653996,421.39981944288274,0.06492520283768588,-72.59336181418934,24.396462264486438,-35.08566340293174,1735404816217.0
1.2225230622335401,226.45285619841434,1239.2433300815248,1671.8735462340105,0.022147824718210717,-59.676573985828966,5.575277199834407,15.185046993920436,1735404816247.0
1.3218360921032586,-496.8271062480691,1531.4238239976505,-753.0886682194475,0.058682221474971,23.480431028114573,31.245222549331288,63.493630549723775,1735404816277.0
1.4669168880331473,1146.473793474116,1372.0850341980345,-503.5035929311921,0.05996050422805441,-9.302228074726644,18.677551610857616,37.32522351732127,1735404816307.0
1.8814121246408217,-282.23276436749705,845.4660462270632,-415.7425926550516,0.050849719667827864,-64.02651842923568,29.586801615024378,56.55892758520183,1735404816337.0
0.7161296430430997,572.2447446364936,1300.4088839686456,-376.03353353180506,0.04122013233494026,-53.6786798806479,11.366568627748684,-24.559320537413335,1735404816368.0
0.5780742815711344,122.04496252737029,1070.9926921761914,496.69993575982653,0.0530904716972132,-51.42476777551243,0.8651205822213903,-22.25283618437462,1735404816397.0
0.46012729606053404,-1247.0957514698905,561.724938557304,-1338.0071808850166,-0.005306669300979658,-71.84531472872007,6.244297768872516,40.33922112215831,1735404816427.0
0.6208648763403413,909.988216796587,657.8604702347409,-306.17414980923024,0.038596289137967886,-80.2464711040698,-6.908812789384672,-2.630514370652481,1735404816457.0
0.9373090447850947,-72.86587959254223,835.3247772289612,-796.9954034034524,0.01228849265801674,-22.639806948666134,-5.444248013255057,24.54501694038187,1735404816486.0
0.7811638749545456,63.76311888765001,568.5452291049626,1154.5105274510013,0.02407356828357453,-21.197518822285687,-10.451387608389306,19.442963017277776,1735404816516.0
1.1421489596084853,-23.620813302272865,-9.800459348723848,-224.9504199987746,0.0471256822538461,-4.462369313605091,10.334762718450037,-4.873961602091647,1735404816546.0
0.09597668582630259,-130.12523381660532,1439.3456668157737,-239.88902677887248,0.05340287322168847,-54.393602071534886,4.089667919195503,-19.282295106095884,1735404816546.0
