Acc_Betrag,Acc_X,Acc_Y,Acc_Z,Ori_Betrag,Ori_X,Ori_Y,Ori_Z,Timestamp
0.6213116605368207,-1714.3542069572584,-307.27619664846645,-803.2493675234551,0.051586683432736084,73.8993517869602,-8.887922150636562,53.66645596207884,1735409694480.0
0.5560926375131746,-441.54712440526123,-621.0478212202727,468.9252200670654,0.0664305516600487,-3.3754008180413777,-12.405404189932444,-2.5277427805493744,1735409694509.0
1.385102294622452,-2198.6866871933216,-167.50814283815745,419.3344431796954,0.08910411635125799,55.786833725143595,-6.561087452281316,13.66495434727873,1735409694539.0
1.191105421883753,-641.555632938582,604.3313527519123,-1031.0077033543014,0.06064685955177747,-12.600352481072122,12.238027675272015,-83.07637837108996,1735409694569.0
1.8790719090790082,-396.6576128384818,185.49685981404076,-451.3213522193237,0.04661438458545167,18.014500391128397,-12.430603370491657,-43.07555238236452,1735409694599.0
0.047343184416900885,-455.4921183427371,-241.05800495679193,-1249.2610897555842,0.03391822490101931,76.25635669190876,1.2679987805524524,-98.2667750173342,1735409694628.0
0.8156538395043422,-1392.03096484529,138.5690112146386,-290.9892765981855,0.044188496709837016,6.450521511441664,2.40146100979101,-38.16851349961217,1735409694658.0
0.8002509711160827,-1837.891641438276,527.8048301189544,434.8503128413911,0.05628076750450863,67.10642886704281,-9.053635546643871,-33.23719665636949,1735409694719.0
1.2653655794782432,-1307.3075061683023,-223.43858646394898,117.11488055457679,0.058679804881899285,50.159896049813575,15.137608034331722,-4.709373097600608,1735409694748.0
1.5487242765925924,-1510.8591681653197,-156.77890003620638,1357.351547348481,0.06817983134634016,70.11049966084276,-0.8355777780277323,14.836358811735618,1735409694779.0
1.2107748932495384,-313.3855788354648,-40.35522529194445,-866.6375132317696,0.05219008201223618,57.4955281399143,2.064118372286898,-22.953924657596524,1735409694838.0
1.2043885522151945,-1441.2391831805894,596.5144193053185,119.35061856982932,0.03459740581321477,-52.74244352847602,-13.93439428787082,38.71673065041662,1735409694869.0
1.948796744240306,-343.7923941705378,111.51488018757709,-401.40944471845694,0.034951660855471314,6.430308762422797,-21.39360086317796,9.774933559071936,1735409694899.0
0.6019722732944058,407.06907504732476,201.58805652907603,-13.934884877565949,0.018160119673515922,-85.43691750089494,-4.604376310837168,-0.06843642145498308,1735409694928.0
0.28373307825922933,-600.3454047958073,-311.0644116712325,-1082.4269155519605,0.05318137727883566,-34.95583323303336,2.119782608837259,62.68080992342321,1735409694958.0
0.3305806176544677,523.2127715420316,-52.50499398217306,207.70689901950112,0.052913234588753286,-50.242590668059165,-21.92778908678649,-6.859090479948602,1735409694988.0
-0.2212286151811399,180.29750177575568,51.536831775131446,270.9028992775348,0.003431651459979791,-39.76149111645435,-1.1434219162284536,-11.593480540720105,1735409695019.0
0.6101964225177738,302.932923492814,-114.27534449570197,-228.16352012680454,0.059499727804089776,-20.581174377057202,8.383960104000042,27.495882199814137,1735409695048.0
-0.19527574349003324,782.9095302280161,456.66701737061436,-757.9871831522092,0.03404304508026162,19.461936758989474,9.62007523961572,-21.87732580655293,1735409695079.0
0.270542049091679,-142.11050817848354,391.02782543650454,146.0879247691124,0.056306429691570854,-64.32929252706555,0.28217919936977975,3.6116180236694113,1735409695108.0
0.2200098429232763,552.1047629196831,536.0498332991667,424.76125664925627,0.06581044124023777,-49.36502849139,19.074606979295282,-36.673486908253174,1735409695138.0
-0.580080969708667,398.05882051161893,840.8838107074295,907.2108539496455,0.023101520738782744,34.92868972886479,14.59856595851948,83.86619231648166,1735409695168.0
0.5060198787604533,-278.1362245968102,498.58452446411013,477.2626864470974,0.05387649460812529,-9.319210694648724,-3.663645551089062,-4.095476924581959,1735409695198.0
-0.6108714564671058,339.16666460836905,-564.623672413961,-318.78932329785727,0.04336349736988217,-49.09471297302471,12.129879639594005,28.570231595538,1735409695228.0
0.9252444339017063,-306.96794762404653,588.1878811548123,274.4802432794095,0.04593658285945066,-76.96518169946617,5.5726743143477275,71.22365712487647,1735409695258.0
0.05853334988881019,-561.7722355222191,-771.3396379187362,-876.5387997675324,0.04882519794379326,0.5610633012461221,15.16308444381269,-34.18576663225881,1735409695288.0
-0.6945634987405614,-69.65434129413472,-101.79107817083558,-12.414812988677262,0.04972766142324382,-17.384138661033482,17.50239112748597,-22.176647965270995,1735409695318.0
0.18318941503529526,580.4680784445953,746.0061085863472,474.0477609825766,0.06486501563939132,-67.30551477766294,27.727506037034928,3.8276515244293403,1735409695348.0
-0.02813308837213193,663.9697541825927,232.80602416351684,-1038.9552341573713,0.04208147682263356,-34.42527949601047,0.12811278451484398,5.123939788707169,1735409695408.0
0.09237697131994271,-302.7084511621079,731.5921019850098,-445.68670758874606,0.05272830249267598,-41.618303796662886,25.588223461697535,-58.0993256645927,1735409695409.0
0.2265518356233875,-577.8569988657923,-267.46235661581636,-733.1839726168453,0.034869217452863276,-45.345091995315045,12.854967170714172,-16.06714674709204,1735409695439.0
-0.43625360387882095,-850.8809837692589,722.0314236162087,-382.14723205250783,0.029606177479409555,-36.7409409531824,-0.4234094656005123,-13.10207847476352,1735409695468.0
1.1409998170290223,-504.9981045597706,299.01909095312317,-999.0532100943328,0.04489629462205455,-35.04577123616835,11.097469580437435,51.503313115651856,1735409695499.0
0.46994827170867015,1353.7692995919097,276.472831936968,-224.5384262727198,0.05671831560332293,-61.069575611016276,-6.729628153805988,-41.77958924088857,1735409695528.0
0.9221137070136809,1135.4177716967638,887.5675039345496,145.63679426834392,0.04356021509417493,22.913586227817667,-10.005008464380175,-16.29960322697622,1735409695558.0
2.8761220163288224,1131.7520667268384,626.019264380994,-366.5926171982585,0.04391908910394817,-37.2075631766079,-10.253807670329735,-16.954616429109716,1735409695588.0
1.5390268183034486,807.724341130737,681.2653752582203,-606.522721863183,0.04798830457316451,-38.65564433390191,-4.109827262941275,8.55072949354051,1735409695618.0
0.8273392669362808,821.2118110094375,1482.8073816251908,-285.04755654516964,0.040677387361215726,-30.822215120210434,15.451095517596386,-21.506933671640706,1735409695648.0
0.7491630272462382,-100.23035724558855,-7.917328469737811,-453.59195903326946,0.0665421773377951,-49.97828473317548,-2.572337607204413,12.573341889563293,1735409695677.0
1.752645987338186,1035.729599006036,624.8043074543223,-615.4805051483647,0.05498651534551564,-89.15361210049133,14.48236461744116,-9.845281829087368,1735409695707.0
1.3354108167196135,192.96036836702373,338.80646986224895,-651.7362770479533,0.06907276068871657,-68.12934120928047,6.343625903854511,41.341030717475554,1735409695737.0
0.48991703799098596,526.0391151162635,273.2748955431145,-1282.0183708397608,0.0737874074687299,-73.52031155122862,-0.20479292913424896,66.1167983692794,1735409695768.0
0.8192038419626162,110.2889884110009,1056.8467134202056,-1700.9165714909743,0.04720911003337761,-80.77645885417985,6.074786552116702,29.731942832760335,1735409695797.0
0.41470173210780803,-490.56012582040944,380.9977245310996,-331.30946409438536,0.06647772432451754,-49.017458158497334,15.54393894571173,22.254522747756138,1735409695827.0
1.5857200291552345,346.36674238241255,47.093805882287256,-1801.438099043663,0.045457945755470526,-64.19987323197968,12.841429141293098,-10.294172358226607,1735409695857.0
1.018468787020006,-270.4233176860506,407.73310188732876,-1106.0721947915504,0.04714987063221997,5.949952883394403,21.71636340929431,-12.458533395091635,1735409695887.0
1.2354143926041319,585.6541400723352,242.0097345487996,-1318.3692589210327,0.022495791832622698,-45.79661230044073,12.087979131476043,55.260270272036976,1735409695948.0
1.3422791680373052,-460.86616458748176,547.2440998042119,-483.9752388529234,0.037780302923958085,12.08425321534935,4.4257037021702015,69.61570341623676,1735409695949.0
0.7922766529529348,-357.71740530917623,-533.2800320022685,-728.0385693028011,0.05109260738090012,-47.271176091816194,-4.0422600175836765,12.302372880613095,1735409695979.0
1.6260970240608115,-79.26068225287736,117.7596691262774,-520.8154761316237,0.060597120529216994,-65.39037427021623,-5.491722769394877,-1.6660475426896788,1735409696009.0
1.793024748910252,1158.3976007273425,-111.52820502470666,-1002.5111157530695,0.02844891483253771,-57.962054570387366,9.071386953021301,0.059612811258517695,1735409696038.0
1.1088927153947432,74.90239796131584,611.7579807278696,-856.4091118523188,0.05136083833235914,-3.231931739025768,16.98829323420902,50.39131107863478,1735409696068.0
0.8547677717621255,151.20427007022204,260.8139552089084,-2141.0818754426023,0.05052783018795412,-56.0040210648955,-5.867721080956917,45.645100221187214,1735409696099.0
0.4782602939553984,365.7982891019321,575.7053633577734,-1974.9812590435058,0.029437488880270465,-32.14004294165588,11.61797694935741,25.46299253115228,1735409696129.0
0.8924635775863714,369.7566474540747,-103.00033839207805,-2007.4580441376618,0.0644640636491044,-40.209782804315026,6.629368889793147,66.96774350225007,1735409696157.0
1.336127097240594,-178.80107716898868,383.0449759152572,-1227.9660823893732,0.07654444350888384,-20.90542032184525,28.10098036977713,-3.5242849999944283,1735409696189.0
0.5525654818269966,-116.90636547558319,-128.65072898346688,-1264.8939239512506,0.05088727069361376,-7.458832256617285,17.374391955056677,48.31321920764316,1735409696219.0
0.7788594566040737,420.169984000143,303.5356826248695,-881.5989048950137,0.0816079001853477,-80.48777294909151,-4.5991315623965985,63.99863757199013,1735409696249.0
1.487051896097002,923.2523028420342,16.321812356180345,281.3594997849034,0.051181625483233135,-52.84382976577575,0.9869866871859934,63.03426092837124,1735409696277.0
-0.12142062068075332,291.9594094234021,-39.79590513891304,-2036.453835789958,0.07346374386886866,-45.88843374383003,14.484032777525346,54.609032633125224,1735409696309.0
1.453196090097297,655.4654754818023,129.5455344243259,-750.7084786310248,0.06590344816866801,-53.805071654252,6.689406657192508,-45.40850495132515,1735409696340.0
1.4217164142473009,-568.1327496117568,103.01081172520674,-867.3173091634782,0.050142683498202806,-57.63269505595947,-7.481313496024794,-84.97687777696083,1735409696370.0
0.03309646207198802,665.0254824748847,1223.8755219090474,-758.0046681444294,0.08081393083272204,-14.90143907334939,23.13981011918856,-44.619183153278875,1735409696399.0
0.943612436407166,-994.1091523569512,253.11585288152753,-1818.1438064361205,0.05637637482514719,-34.22451814271957,-10.294642747166879,-25.817281619355533,1735409696429.0
1.412609982559945,-355.78184429534394,176.653605545506,-1466.4339819394722,0.047845345163229525,-28.846578033238945,7.174256618957611,9.938925654694316,1735409696459.0
0.33994346024913025,-44.34682105386162,285.12336330899734,-1057.2590242165609,0.026284054653335158,-30.215418889645253,20.047759402048488,-68.63093148671268,1735409696489.0
1.1679781394730557,-107.50773545549589,567.357938354324,-1240.5318314484894,0.0567133484993356,-96.12523822812037,8.60744054523603,-40.69145713757906,1735409696519.0
1.2245669189088424,691.6896639766792,888.5059980935247,-1152.787308370594,0.02172288240551358,-108.63701283735037,-5.6079156179580325,-12.496336905562348,1735409696519.0
1.9462928697123372,-402.59640064540235,-3.344698779580483,-1044.2755874017423,0.06998731239212286,-39.44631093586336,7.87234661683287,-34.44007403529653,1735409696519.0
1.1058593660327038,1331.3749318581986,304.43440913319944,-780.2576602813829,0.06037158507777541,-48.29753091793333,7.023770414522794,-50.267824936188745,1735409696519.0
