Acc_Betrag,Acc_X,Acc_Y,Acc_Z,Ori_Betrag,Ori_X,Ori_Y,Ori_Z,Timestamp
0.8129154258267339,960.746413128811,-514.6467465895159,-476.2357719796873,0.06696366222095053,0.954767394849803,27.720365959941144,-46.506451002267404,1735409672099.0
2.21185195534225,1334.433949222605,990.0826065106429,281.8707351887401,0.04543449359783344,109.81448415132517,7.019244685458103,-18.202158872869852,1735409672128.0
0.9389219068786414,77.4121723721787,452.2453757754913,75.26199516873612,0.049624994917848275,46.726003244800424,4.370613599276531,-17.250482034347495,1735409672158.0
1.0425124478698788,322.90812449433315,423.1171776167671,-190.3928826715741,0.05340517504156979,34.55874951442125,-1.6304804392822652,-64.799617172706,1735409672188.0
0.7375833323822607,966.65781723244,1217.1082292234144,853.5837478388403,0.059493496054335036,46.7293205861631,0.3958316697138062,79.5289186419374,1735409672218.0
1.074420780530197,684.2528101930588,-11.826387807565823,-237.6694333052618,0.02474247492728732,34.819027176710996,-6.908584591891593,9.364438343867207,1735409672248.0
0.5648698852662613,1426.82970062008,-873.0849484905968,466.63844603495215,0.02915733087161291,5.461890015800002,4.19004069820884,34.81313612967307,1735409672278.0
1.0608816334595685,916.0087440860767,-127.63033594721554,-686.6303275854083,-0.003290828485779239,-3.8453648874840027,13.316128549037021,54.05742538969747,1735409672309.0
0.7782580503850853,1316.2244043340547,313.53466308293304,355.31180878885704,0.04061092526802692,32.79161198711374,5.088755722629204,24.06118029401854,1735409672338.0
0.6172862517408761,-229.95144870671493,730.4837425176787,1246.5357387754227,0.039289245733302884,58.12800759397625,16.600137343871484,31.774509392839594,1735409672367.0
1.101591270704031,970.8817250660223,-318.3934907714049,-663.9047844714942,0.039810489316510905,31.343761174857125,-9.474103794967446,35.75627630865501,1735409672397.0
1.5579287148527146,275.8469030247337,156.71641761116445,-820.3420533509764,0.05810535814372762,-36.53868843287086,-11.552669076651739,-9.675930528141983,1735409672427.0
0.5632405479559264,1884.0925753871152,-366.71903126618605,102.19012275597419,0.002908645072089343,-10.367468866176907,4.531313159607622,15.794493215719115,1735409672457.0
1.408666747765274,1440.831759563102,-494.33411402031606,-1244.5677538173059,0.06723168755439456,-6.879199645288853,7.69138844953107,-77.05103644083106,1735409672487.0
1.2095033342952082,1703.956613449652,-334.2112234989999,-45.32449315221987,0.04530035358684159,-5.69209245398995,30.188735071929816,12.216510672111713,1735409672517.0
1.027466947528234,639.1906759652411,-464.3784339887528,-368.7150124473551,0.06163058070087351,-26.601200232778694,12.435742921932576,-9.304479827711834,1735409672547.0
0.5468567127803099,1606.787174198892,-289.7875110522679,-309.26019093131004,0.03519303793059621,-63.36874708712578,4.753348371104826,-1.8889518312100764,1735409672577.0
1.6496484656872363,1745.7482400050617,-84.38133286247478,-321.66788569617904,0.07336083167895546,-81.65931711563074,10.473905654412823,1.79484997939464,1735409672607.0
1.4068655184812888,329.875172299077,-1373.734642710124,-1147.8802319382185,0.07668926672480322,-64.71844992704978,6.3383296590989335,65.15793117164071,1735409672637.0
1.1810946327584968,1288.0718045832905,-1195.9329229861328,-1783.2637360020094,0.04756938150902892,-60.08816747020506,30.432954513601025,-12.259049326111205,1735409672668.0
0.9502126693644847,1725.495641444421,-1359.7901598437384,-1116.6184632672234,0.03969622376579072,-57.641783255834596,27.74683580106403,13.47092011562334,1735409672698.0
1.5450378560795937,1581.4087785672273,-399.5514089904864,647.8855587198516,0.053374945176969245,9.162295536226102,31.965772498124142,-53.336627418558336,1735409672728.0
1.4486810575630549,450.01351353607043,-1088.7599461055365,-1770.374889108041,0.0600739628153725,38.26853499991193,28.378108958736156,48.70139468501711,1735409672758.0
2.0895864127320474,819.1803663112071,-336.8090866581468,-700.738029950929,0.05927345310404035,33.040815246132915,23.1540629359873,39.24153194568604,1735409672788.0
0.7324195952534729,348.349292459108,-344.1057357358919,-1433.640471634115,0.04272818729576222,30.417823316544688,12.10408017599618,74.57276451348275,1735409672818.0
1.009494334025566,908.7835174700016,-263.17829640141827,-390.2877561148001,0.06764400026103973,48.99223296276104,25.87093140374767,17.059447230621565,1735409672848.0
0.6775114219531557,1001.5919412562941,-625.3117439441024,-714.9082506135811,0.038448922720358804,9.757603513343899,5.830566926661913,1.5639357153241633,1735409672878.0
0.34811597051869314,854.933023247183,-1521.9558448846215,-948.5379577956198,0.019546016745816068,40.779340231478926,17.6774302561388,-7.951886411815373,1735409672908.0
1.177669557633094,563.2320805990614,-1065.7131887511418,-520.0867714022575,0.07589224701206332,20.425049972789946,23.14093032357799,51.023576872109714,1735409672938.0
0.8320498301659888,231.31277820263188,-659.6815418357204,-1440.301401909357,0.057523732755804136,36.19476776870275,-15.145538251575875,-13.116423967260815,1735409672968.0
-0.42728186972093785,69.30050752199665,-883.4305816258523,495.8713588474284,0.056035987897298606,8.220846861451175,9.161202082460601,22.08047671302324,1735409672998.0
-0.44665604309093404,-271.72951885039555,389.6346666235468,402.93124353709146,0.057785265988936484,39.19553725752203,15.637872518976689,-27.422788280359093,1735409673027.0
-1.0353803561023778,1040.518244532559,107.91292478011191,-532.7884820892393,0.04260855370785549,35.75428005002284,25.671126590040018,-65.92181554641573,1735409673058.0
0.94162303651897,314.69539811811387,839.7304082685855,-117.76366566223345,0.07603218052140981,43.858616942988796,14.468513332124541,15.912899299902328,1735409673089.0
-0.002097186197491545,4.254587592714845,-196.1745240981649,-1855.9637272653097,0.06163490917025437,-78.14135702894364,-0.4560702056836447,-76.03687884609059,1735409673119.0
-0.06565279942915163,-655.1974463620686,31.892592272646517,-844.0444542405054,0.05832747225867455,-31.84651440878638,2.0729712363312602,-69.77010304416575,1735409673149.0
2.4097396339276855,2095.8628919050466,1941.2758921925401,-603.8604221015437,0.034453357410744276,-59.14788872563253,-5.349996909509576,25.45935957381377,1735409673178.0
2.2016003054236024,2295.035178288178,1928.758701853739,1539.4626840978372,0.04093399008987119,-121.98966811186399,-7.062488096927394,-9.583685539981923,1735409673208.0
2.723771657417713,1007.0645732578249,1847.2205243628732,45.62837852078144,0.04606280492217023,-32.449964506767046,-17.618553512010287,7.9177112366117175,1735409673238.0
1.1300017953104746,747.7478498482116,172.66597772343812,302.9251055382137,0.05422220217394931,-40.69922175481099,-3.1093732107374414,2.7825608968547506,1735409673269.0
-0.29839535158668085,414.36045945266585,-186.64384766524768,605.2375753238694,0.07949936526184687,64.55102171888655,-26.805869888925937,45.817462248366525,1735409673298.0
0.6306614930913912,821.8157632936361,503.93462980483747,1144.4170389703484,0.038193334304570475,78.91069277953062,-13.812857904287553,-52.977190474619775,1735409673328.0
1.7543148940421722,-248.52456604393421,135.47074334610954,593.6639406885963,0.04999220728045631,27.82451320144962,-1.1599209511326105,9.32178422298702,1735409673358.0
1.9897581780128313,608.952181740359,697.3456060698485,-1317.0228086770305,0.05739406469545963,8.59765426058126,-9.692835798140642,-51.64873647472618,1735409673388.0
1.702766672952011,985.7258341356244,1593.601689161578,-302.99663371915597,0.04406180256583742,50.19229874152009,16.257764677774862,-67.20467520593238,1735409673418.0
1.5653398530587062,1725.5098170025922,1058.6189790772287,-669.93294080011,0.03894721210265321,-20.34748848372768,11.224921253296566,-19.95379632843326,1735409673447.0
0.5767762143260469,-838.8944710509268,-404.8625079828058,117.62316624207443,0.02292726131659332,40.472507492926354,-25.136805348975628,-6.681225137995339,1735409673478.0
-0.6937194080201594,-342.99017466252906,-200.2495262393474,-176.15786619273842,0.03662168507127457,-6.847456168939311,2.5196616378603913,21.0864774569189,1735409673508.0
0.2180986495028008,55.30157303179963,577.7170084051476,-477.85416013955773,0.04557978269189725,-22.09053139579887,30.475668262656665,2.970284596821285,1735409673537.0
2.525939184347187,757.8347776479155,1498.3759944992437,-603.6493012562553,0.04513895148399211,57.75362463981059,20.111165830970545,-9.103620610218604,1735409673569.0
2.9202072467967293,1557.1494442118556,393.2860971858081,-2345.2444963469616,0.052735117487035445,66.5652127275368,34.46674072402232,4.742523687533675,1735409673598.0
2.1129125113668987,1661.2103058464181,1329.434050677322,-1811.2589546701233,0.0618461970186831,3.7492311127661537,20.475529390842937,39.274595460286314,1735409673628.0
1.6980382607235343,815.6658962815128,1046.630749317701,-3213.4608225842703,0.05902247988972582,18.158585712865616,14.202804055629105,-15.095974631095892,1735409673658.0
0.8593046530924044,345.59209467154153,-1187.8873466349658,-2839.2007152698106,0.04411623344307049,-19.0842263758547,10.24129113063022,21.982575949913237,1735409673688.0
1.326929047275421,73.35544392890908,165.17875582199358,-1535.51400076761,0.05639042469445833,-35.90576600965273,0.34975464214270424,38.18634958794127,1735409673718.0
0.19031925871274458,245.7625019018892,404.279662672112,-402.5349718148459,0.051164779712274656,6.661580124243706,10.062936027289524,66.35896832493253,1735409673747.0
1.1096156637224572,103.09426751393488,-324.7836417588089,-2360.8550009583537,0.043437840982665746,40.063967079932766,23.223951446110448,67.81623699295673,1735409673778.0
1.2402113130871817,530.001042054912,-569.7396262870233,-1220.5544877327438,0.06955207459566534,1.5005840023398278,-2.12644719548285,42.13595917012236,1735409673808.0
2.0316381814850866,807.0759966542042,646.7348954316406,-1249.547318091179,0.08643176743577266,56.024984591529964,24.930108476128044,-26.89683914423582,1735409673838.0
1.073695663107979,117.50441997258442,-174.5739363486088,-1293.6097135293871,0.06394021213473332,12.651979998919089,17.41615144046786,33.4705025973093,1735409673868.0
1.0524701134310501,171.41999172810267,619.5062596569297,-235.829324222756,0.0937648996677122,-18.28296346733984,5.359878341343169,73.96008159502136,1735409673898.0
0.8407616334582011,323.90846450333675,1359.23021853259,-787.3909848308676,0.10080665632151789,55.244415892578886,22.366810995625194,64.13209465261815,1735409673928.0
1.9898260044627014,412.3405253959882,371.7818582710488,-2011.8210868768372,0.03186809144206925,44.760570553281845,12.361437821137926,-43.8138170467459,1735409673958.0
1.178182054815745,792.8914285666867,-69.91722782269926,41.873519860699616,0.05308373043161896,78.66455456328706,14.984670515834576,-50.9215000941976,1735409673988.0
2.2365281048484675,519.3715619299289,490.0638334100528,-1895.4295776704141,0.07724426629590714,-49.510320847806526,16.10885513437386,-68.5159268509376,1735409674018.0
1.6607091728906587,389.704915615746,360.28573931530457,-1067.2692730895055,0.09528439359199481,-29.80543198936899,13.936941477832313,-68.87042219446262,1735409674048.0
1.0592196847511752,1255.4887525584616,-491.2045898295547,-586.1561857138906,0.049476807595890716,-73.52578107842373,-12.004570097221775,-49.81405000648625,1735409674078.0
1.3047235698319406,1245.2601842278448,-855.9718799716285,-832.7432367938079,0.06686151460504867,-79.80980859639286,10.588642756319691,-96.93183683848456,1735409674109.0
1.1470996846329526,-175.77311848089448,-87.39877753045349,-1100.0534983604794,0.06738140344879362,-34.58396583120599,-6.5270474009764445,-43.66972245335742,1735409674138.0
0.20529913332798455,331.9001092831226,620.7870840774611,-837.1749733493442,0.06874626808041429,-38.539511875968664,8.452543129666388,-27.46881349618937,1735409674138.0
