Acc_Betrag,Acc_X,Acc_Y,Acc_Z,Ori_Betrag,Ori_X,Ori_Y,Ori_Z,Timestamp
0.819377749172435,-933.5744046798152,-66.24905743915673,2754.0182556669215,0.04617553903099167,45.07317470211396,-8.28613772836501,-45.52684771495194,1735410324974.0
1.531835459565649,-400.58660339678113,68.7849110735387,1887.407784433981,0.016356577493607208,-76.2014502157389,-7.846841739931856,-13.252958899625224,1735410325004.0
1.753973334061468,-1317.2687892353997,-932.0966404904657,919.6168954912354,0.06724278514580169,-67.35617174043847,-21.56033973167691,-10.088633468587751,1735410325033.0
0.7853250995969052,-356.3340420946457,-262.99985375755614,388.76659387104564,0.045678618268602963,-23.080424423702546,-22.86338111147813,52.40852162874015,1735410325063.0
0.4306850198196057,-320.25217557987196,959.90035471233,1142.2385372986819,0.010464380112157572,-36.73918291103216,-35.071660262581716,45.204081467133875,1735410325093.0
0.9345768004143316,846.2006390721501,340.60591922355206,65.05562184743621,0.012345043231865747,-12.272491615581767,-18.486023108639223,-50.379128486490046,1735410325123.0
1.8951378712137532,62.80981631659648,70.10812511066626,669.5180047793918,0.06905253226603927,-27.410597794691093,-0.33669005644571826,-42.08917261328594,1735410325153.0
1.0408009918819405,-611.4719785140784,1087.237896363571,-44.75798232990053,0.030148931106308098,-10.609583619854643,-21.53743866539796,9.32280049600825,1735410325183.0
1.4205839942894902,-1642.1085782829798,-927.0235988318097,712.5565180365107,0.05177331536515138,-45.67085706960719,-7.608116669510638,-6.42618801769761,1735410325214.0
1.2819259017051454,131.35147093163886,462.0668517273059,296.31092295706753,0.06750408171986427,17.585097554275933,-12.399311727295661,-4.23604374206025,1735410325244.0
0.6507221572744608,1624.2734292322239,255.72043840541158,896.5373470454701,0.04605266495720252,-0.44107852466319386,-15.26640059821575,36.96405647767601,1735410325273.0
1.4034718952901022,-343.71856884865383,1456.0498914612476,-752.0549393470525,0.03706202918703642,-47.93641652681039,-19.043833737838145,15.78064326666695,1735410325303.0
1.4424216063378865,245.3843400883852,404.6172868189972,-220.12447547072117,0.03229231162797191,-21.36749436132166,-10.81819003348902,46.63051756318211,1735410325333.0
1.8108498895166347,91.76937042272613,390.50767117584917,236.41332287998577,0.015740618003748222,-48.77916477830668,-18.05949411075203,17.386215373993515,1735410325363.0
0.8637772806082877,1213.0323026883702,879.4099144071224,1148.071777094768,0.005270386064666822,-80.00774599898483,-13.24276415436688,-29.270516558966957,1735410325393.0
0.48831001610679664,-1372.0022871089695,1107.289986434326,80.54075635762602,0.038276318112616045,2.641328037651622,-27.575183598412927,7.333334828563743,1735410325423.0
1.9692709294998076,-764.1095602341655,321.1992434944674,-256.2869805692283,0.02459975202891468,-31.430759890971032,-19.144776108725985,-54.472796655562234,1735410325454.0
1.194298151956838,-641.2253844102956,1424.481085160253,-550.5495201325981,0.08951515750282873,-30.014105729374165,6.348039326949887,-33.32402071603827,1735410325484.0
0.5518732682979439,-1958.9323853705998,2488.4652147244155,-729.1011337846853,0.08283592422840105,6.244161072108657,14.183412090441335,-33.72932989512405,1735410325514.0
1.399537662528899,677.9491743163978,512.1622510360719,-303.65849900646583,0.07017296088390762,-16.565731857135933,-6.8884674879875405,-34.81993058894949,1735410325544.0
2.6712804684609304,1402.8550302313479,1855.35913098942,-397.9650326757688,0.03232443559227686,46.47271287388397,-23.308524424226043,-1.7917677482742462,1735410325573.0
2.003965068141075,832.8485696408384,216.40877840891665,-2486.871901538824,0.06436498215110485,-37.21105035704873,-12.92526992777775,13.49236176958562,1735410325603.0
1.498823528159909,658.1087835071578,1032.5547870333432,-355.33026972045894,0.016054868850862266,25.951641505364535,-21.212528858798876,70.51124748428045,1735410325632.0
0.640581282775973,569.6530672002062,863.1486517738399,-821.1655790620438,0.07970774047597286,-82.86042822412601,-13.64656781195211,69.30141964939506,1735410325664.0
1.3576348617589258,987.4901254920828,343.6739955279285,-877.9021199553426,0.03012151124808882,58.51535438724745,7.897090636072315,31.912823604331898,1735410325693.0
0.4629162466647693,1389.3505828024283,11.125664853268745,-158.56638760417547,0.019367497526719873,61.71313001903748,-3.9078691285662304,28.200370749654397,1735410325723.0
0.9738854189117383,-796.7126427893327,872.3682972707659,296.36150452010315,0.04557473899680488,20.995468010648594,-8.073229399797196,-51.396029614863195,1735410325753.0
0.19302051028555633,1347.2421263241786,153.37425306811534,-177.0150256729481,0.0526262186581297,20.850666005987097,1.1842610088758097,-41.111444213095595,1735410325783.0
1.28693040036081,-710.4719403270642,-498.8026967999924,-448.7348914818158,0.09082703034943539,44.61363662573984,-2.7773631178662743,72.49181363942117,1735410325813.0
0.8171783824928787,669.4546601723033,-425.99450043509955,-386.0288912092131,0.03387290944252767,35.34665013083543,18.848872502380214,51.84778803655938,1735410325843.0
0.9940043956614917,363.7928563380725,-1788.9638578786798,-580.4119329714937,0.03547997542895891,21.438633377577773,-11.994366389978968,-32.75975782954892,1735410325873.0
0.783152391215451,1151.7748403237738,0.8792405564747128,-1669.0339841616023,0.03683950045244636,92.61105391086096,-15.009474870120656,16.110454433079838,1735410325903.0
0.241970088244713,-1090.507464433979,328.0409914756857,-458.1205396624485,0.06758686259028117,36.40229010487981,-11.391140303857025,-21.250718324554388,1735410325932.0
0.3182900983576975,-1044.6181487780555,516.8165557665209,1758.9868665520582,0.07511029179709423,27.433682697807342,-27.599158699129,-25.710735188712796,1735410325964.0
2.2408459907736886,483.58627071603655,-2062.1604429549334,259.1576560090945,0.06705410588480747,23.37040600985913,-10.596275730472954,-8.225604159498694,1735410325994.0
1.05109280186289,448.21044086687516,-1332.5890511400432,-395.38161041607543,0.04375993223411093,47.12345008638107,-28.281407626490953,-41.98418652044876,1735410326054.0
1.4506490584798462,1181.2984110536609,-1225.6018042179144,-364.56301928462165,0.0473297121544831,-38.184425785274385,-7.6705367694661675,-8.094806702719037,1735410326084.0
0.8089015725810562,1283.0650329424225,-948.5846437411753,-425.09177289805655,0.04790097275013748,-40.958502282415026,-17.477454456619444,-44.64879182805886,1735410326113.0
0.3031881055817812,-1004.9834688982429,-952.5475402364746,905.2199922972799,0.07523872540866133,-83.16186097434985,-19.08390957211213,-99.9938095940737,1735410326174.0
1.5123568199519903,206.64784888827273,-1585.2457069266438,179.8741735668611,0.05777927501943542,-24.275057737568893,-15.0140440458948,51.80102392984412,1735410326203.0
0.014728505209040899,99.83134125647851,-29.99194734982359,732.464504120436,0.03617346130621278,-69.53620250401609,6.697058743464989,-0.06069376542098759,1735410326234.0
0.8245964201647112,-2582.889859704815,-1739.763744822645,336.9665275645159,0.05543114232599296,-112.97043686500163,-13.124031509135353,8.549240773564932,1735410326264.0
1.1339390448783027,-970.6208614919764,-71.92462929258704,888.4271710641676,0.053059857358619955,79.5361095418341,-15.65608339403587,-36.20917649613513,1735410326293.0
0.8772648332313078,54.23965254350105,-1182.694848692358,-897.813936872355,0.05184133815094912,20.172022726826427,-18.23061319994799,66.21534654567935,1735410326322.0
1.5716524620385306,-1845.0348072233146,-885.4275582581067,162.46285767385567,0.05047808795572624,70.28337298679484,-16.344648839937243,53.84892198987659,1735410326354.0
1.834466853747144,-1551.1244028556462,-580.3432799899788,-303.57941049539465,0.019889884523391597,46.13498462083651,-28.75459746333401,16.782465625807294,1735410326384.0
0.8421167342002016,-1552.0632831175024,-1669.6439737936666,319.30368402906896,0.047269483846670186,47.69549551421513,9.234702591866078,-14.226488391467743,1735410326413.0
0.8866001669917039,-1553.5621393273623,-769.3678553975072,-553.9678813324952,0.07210312689183793,32.71084003991131,-2.2907841214391915,16.61079372369284,1735410326444.0
1.337263675292573,-603.3470870715236,-388.18534947957136,1726.1443656329259,0.039549305218934135,89.71598851876405,-17.970459212993482,54.9175580265603,1735410326473.0
1.307769318252776,-199.12288325086092,-1215.222398256804,140.6037907891835,0.03579073843555461,71.39418209298972,-18.968299613473285,-40.35332927041356,1735410326503.0
2.2839131059661684,-244.92754063525138,-1586.2133439262298,-79.79179664375602,0.07879437302579681,63.40957148324749,-4.32755910422868,-52.56339205615977,1735410326532.0
1.158778238536564,-81.84698426022214,1137.3852651102811,890.178439111563,0.05133785025132043,33.3019085648077,-7.965363857849619,49.653509757911564,1735410326562.0
1.6944906523351717,-2239.503559915821,14.670911588664126,559.6538721048946,0.05339342280477578,-61.689918156042395,-18.91362077552011,-39.91931204247802,1735410326592.0
0.7586487208650641,-2551.1014743028154,1774.5710794534436,918.1031918007448,0.04698253872178939,55.28026557443579,-17.870721884872772,-18.614776510553387,1735410326622.0
1.1946451491176275,3.428288521512286,138.03986461905203,474.2625533825966,0.06444038970996972,49.01148744578464,-8.791800200178065,-8.14480064669638,1735410326652.0
2.0884927727105294,-2293.5166785505744,765.485111343304,-215.5082871417564,0.07117587321876252,50.58128229677385,8.956040754785537,-40.33651136296149,1735410326682.0
1.4030526868141144,-2075.2455202392957,-901.1672370160395,-303.1338278527444,0.03416596207114318,4.4106655360892475,-18.84659900633124,-22.454895869683412,1735410326712.0
0.7550490977552443,-2395.433905499519,1474.0255823952693,12.558124971748072,0.05417509122488154,31.44339265827201,-44.14765970139371,-33.972293304861225,1735410326774.0
1.054685000046619,-1331.147838321539,132.9493711550179,699.8447475337161,0.07668044982964943,53.511885053814325,-13.956148261801598,32.960226393708936,1735410326775.0
0.3495526760791462,-287.52581814009704,-373.24086974024726,-1079.9922599551996,0.04576890903431564,-38.13133595352869,-25.26994396179604,52.702771921118426,1735410326804.0
1.3362276815632874,-1775.1098529273895,1670.8102199500415,-1223.0879275452457,0.03107457591075655,-69.65172376041055,-7.473791828173234,12.834111381677891,1735410326834.0
1.359007744872856,-344.24215795938767,2583.602803234893,-855.017567367022,0.07398012164727874,-56.06550491017542,-18.23079914019195,47.14539278411462,1735410326864.0
1.7073528587238034,-1532.5455030206938,1617.7868646570141,-237.70655918986844,0.06667753085889766,54.875899445338526,-26.438486030030088,-4.235460757856186,1735410326894.0
0.7845774705925572,-158.16118335183228,567.1617120644974,-4.0194176285639855,0.016374336392663297,48.98878774014395,-17.296206126924496,2.65044091247273,1735410326923.0
0.7593322698155937,949.1443379693569,1894.758633705872,-764.6523214119137,0.03791305015677449,40.03962064893411,-6.305527842152309,-48.96561141823433,1735410326953.0
0.4665244637278211,-573.407066972802,1352.0574980792371,-1450.3403142676889,0.025043247378408913,9.678972661937959,1.070714797580736,-76.14779917815139,1735410326985.0
0.7710424967723533,493.849009125237,1087.6213311456613,-77.51280349879431,0.02755953801465465,42.95175483733706,-2.6991509764350363,43.10159238857033,1735410327014.0
0.6640965788725253,-253.36653930755324,396.9946102472335,651.4408462596562,0.061952718535650195,10.59330745600451,-6.430593939436427,-75.59377344041826,1735410327014.0
1.3605457772826912,-1790.340146961231,772.9383478290741,-1741.3340743780238,0.05978316096289902,28.382582631027166,-1.972941949632315,-34.64715944386621,1735410327014.0
1.1102351645726145,-1144.4820299150438,1296.5870876295573,-775.8578777566282,0.053675941000603786,26.999052386782598,13.3304454276158,-70.79404681765092,1735410327014.0
