Acc_Betrag,Acc_X,Acc_Y,Acc_Z,Ori_Betrag,Ori_X,Ori_Y,Ori_Z,Timestamp
1.7279547343788233,1553.6935201934416,-900.7500645390867,-605.4957142290535,0.00988543518573004,21.37503769104263,9.14997790585305,58.85422265331259,1735410900566.0
1.8931690859832604,787.4417745042958,560.6078072124405,-138.5012440168507,-0.01104200567997567,-11.038398799560097,24.67626124356763,-17.144796414762226,1735410900597.0
2.677031150929066,-1655.4901185922708,750.0632550873554,-306.0517487703986,0.0021345959070685656,23.30568577700006,-0.6502488061701275,11.583807593366728,1735410900627.0
2.3723579416431937,-2252.812470765846,1535.5783797674546,1181.4370144660088,0.020303066363050404,-37.17960761718378,18.563847337811783,7.297034563123059,1735410900657.0
0.7555058625281545,311.7879826984977,2150.5606532173133,679.411481415872,0.05667688772199321,-19.765783046267796,16.66254656020827,-103.97479010981505,1735410900687.0
0.7354034550174684,-1646.1719648974954,-471.5087047972013,-845.2493314112088,0.04070364197298233,19.746357599481613,21.73863859145593,34.7841017631545,1735410900715.0
1.4157161519527695,-168.82035169292305,2315.9305395086535,1495.636152683522,0.036484427304589645,-17.35557240378733,16.304629418211558,50.46682638985081,1735410900747.0
1.3098319524698427,991.6258086328919,1590.148900473647,-331.28050453905905,0.009065842325431069,13.591589704304731,-1.6492997820575956,0.036310186225428254,1735410900778.0
2.4359252470284405,-2025.1623189249487,-970.8027632581361,1691.1990444651744,0.028069213948226937,-34.465019894912714,17.575653523640277,-7.947340568855388,1735410900807.0
1.325322275649961,-1930.2005425066914,1275.3075541122885,2172.200576416184,0.020886269545993603,-11.555423553270156,-1.5363934524113922,-44.15893431388506,1735410900837.0
2.122411007221684,-715.5074200844047,1470.9426252569233,407.3789697317347,0.04865788580782051,-32.714199256484534,-13.52355164272065,1.3616141740398469,1735410900867.0
1.750948651350209,-1576.596069484132,838.8256080884723,1062.681562770466,0.048377138279979505,-42.9043440284412,0.11681762834448861,-57.29453424342691,1735410900896.0
0.9849203240449741,438.5799915486817,1562.6577007819296,299.2420392535239,0.02483006295154873,-10.88595505562252,20.076536139399366,62.87346134090677,1735410900926.0
1.332474443703116,441.02869346901196,2122.5045697356154,-16.566898137356453,0.032740034523571236,-16.316975895432176,12.985011245503529,-5.836665507079424,1735410900956.0
1.7754322978054842,-1322.9714287520248,471.3168231849421,1512.364563865767,0.010434750522263822,-38.35993883947066,14.624252366636425,13.540993626980114,1735410900986.0
0.23269267609508748,-755.2755344155839,811.4109443665125,-194.73652109714487,0.03886686369661804,-17.77646201401211,12.666642667480772,47.897198652521155,1735410901017.0
1.461042263632089,-693.0572593521713,558.9614125267105,859.7983879272488,0.05524233730509513,-18.810830597782758,9.546519296257232,29.83020255582187,1735410901047.0
0.8754608819087876,-332.01462829201915,790.0966588328429,1162.167253514816,0.05937680736066292,-6.37114640840403,15.053157512982459,-0.028268923039100002,1735410901077.0
3.2296071134833513,-732.5444710774793,3439.061811001953,-1075.4692966160783,0.033715481839230475,-26.66507398078498,30.33617102699473,9.712868335415383,1735410901107.0
2.1981528703415245,-1851.3845317247187,840.9169038222883,-663.4175548424671,0.03896589355651118,14.683888723883179,12.387130992750407,-47.08812813601379,1735410901137.0
3.0932938201767306,-1911.0502216522214,1893.1596194490585,-1104.5818336462492,0.029330624806756776,-9.828872218756995,5.28675836435832,13.095257511215586,1735410901167.0
2.749896734138141,-2170.0342959289774,1111.1063324034048,-359.5219849393542,0.012657077688976753,0.5317562198367458,-0.19361254574226638,42.95748682431287,1735410901196.0
0.6218447312365838,-626.443391238292,2343.7101215489865,-102.33659292094052,0.01269049946289565,49.62600284703905,6.4886815414118,2.433012240068482,1735410901225.0
1.2464121269111779,2348.119943845263,-22.71750914669434,-517.1629158014791,0.06271147323607389,-9.568485539233315,9.680272386807912,11.504801000470724,1735410901257.0
0.07314162574910854,147.83412173149947,134.4903505059213,634.564590753527,0.040318467283439706,19.725577128368705,19.167087202105755,-70.59053572173119,1735410901286.0
2.9142389398478707,-3076.409974631926,1536.5667378621777,-1081.0172212404107,0.037140789308825126,-30.51981380213166,15.985397623745785,-33.53688932329351,1735410901317.0
3.072767857840949,-3765.0220069505667,1336.833480363482,-2311.1679492536696,0.055095480592915455,-50.580012388448424,-2.448806750230493,-18.402181507303872,1735410901347.0
2.4693700856255463,-839.039911495083,1284.851619273101,-1025.0462971950308,0.04297777920571795,-53.82697217347948,4.400097805152782,59.1469005580454,1735410901377.0
1.19112169672771,-368.85576214353796,-362.0505856215596,-1283.2425204512297,0.016276713827087647,-4.116924917930035,24.314527943723707,-56.09887665897785,1735410901437.0
1.0735705303438217,788.7386062320912,-1154.5364111126369,-2028.3898069853915,0.033541475915379856,-29.201318128821452,-20.79508152936132,-80.84439927043564,1735410901467.0
1.7964191990664573,888.3338618676626,203.5042923456404,-990.2859677516586,0.02905004756604534,-15.537754317385343,12.280521152946227,-48.2537716805732,1735410901497.0
2.9183171794412055,164.9338130713893,2543.6017870187825,-890.3623473076574,0.017118195196123048,-47.458469163300926,-5.566361732945335,8.232691239511148,1735410901526.0
2.2044007329451074,-1712.7766233500422,1348.1876104392622,-765.835313437267,0.0369019237457483,-0.7793375321198468,4.635632474241422,10.990087017829183,1735410901557.0
0.4920014112784818,-1552.8721743886852,681.1546864543177,-1419.893111032093,0.05695845666977354,-91.72975391480885,-2.404893413649376,-62.707242164326765,1735410901617.0
-0.24145747930173744,886.9019885907157,-669.4295130549859,-1899.3238103744677,0.06240869772858799,12.974263830460927,11.603478808851234,-51.74691516376551,1735410901647.0
0.6121650082466817,-356.7235040548054,731.0748681351204,-342.26990278825576,0.04608326186505626,-30.3806333049475,-9.797759741219389,-51.08635329605575,1735410901676.0
1.8129647742063506,-1160.541986235699,3759.978855073249,-196.77516837529794,0.07724567333254526,-0.8846052476469062,0.4719729499712759,-61.015310775406114,1735410901708.0
3.2148685019051566,-40.33719496643539,1588.6220765679166,-1433.0960581226268,0.04933304286672092,-16.147263027832153,3.898294931078331,-43.6919044332852,1735410901736.0
0.7346919370366972,1407.4786576463307,381.5743950858167,-564.5498767790523,0.04234580412243527,-42.689982064135144,-22.959464415534764,-12.89989651040244,1735410901797.0
1.1123111955426048,201.52579845874504,1343.1908385950792,555.796005883215,0.036485809364716,-50.96040548347358,-5.3447789678668425,-6.823188452745775,1735410901827.0
0.6318314217496702,62.42606745952668,525.9373380354546,1188.414265967447,0.058184074822115545,-43.547561090076464,-16.148857968831013,-33.26661211532686,1735410901856.0
-0.23725972582625476,-1694.037438969516,949.4311399990518,626.2014446806935,0.045691149301331994,-9.368041512142597,-9.801272699148221,-75.47929863068936,1735410901886.0
2.2865229631050368,-385.9589010941635,2124.8193354966056,-52.48598343915853,0.03818727317742413,-17.382080762493572,-7.56262156599646,12.21920196521133,1735410901917.0
2.2534560965296593,-2233.286087300279,2459.0690939757487,-1827.8701368708726,0.05496524081509,-40.950205794125054,5.688749149802235,-29.890829455123114,1735410901946.0
2.6990189450223316,1124.8527903931472,2020.704053878146,316.99219705155815,0.06493679295038363,-29.34303355865584,2.4218315013237355,-33.11409546145109,1735410901976.0
-0.3466277473218836,59.715972882172736,2537.2091249316427,-370.5420926733838,0.040410886567059386,-63.98476591671529,19.005748629692153,-39.923324439641064,1735410902036.0
0.263049548074556,33.971865598543275,-1019.3193992019744,-369.65195701527267,0.01705768900948344,-55.55780892742438,-7.594180603072777,-12.868384587303206,1735410902065.0
2.5778926052833144,-1184.841178719721,3170.2354287584553,-230.6624244605007,0.037301583780234814,-42.394532144988176,-5.1943861807759175,-70.41612814955238,1735410902095.0
2.1431930338599066,-1599.196733469268,1479.0472262731423,-1320.2335217941245,0.02252160894623732,-43.6505305770304,-28.45927009916963,-35.94278917578416,1735410902125.0
2.131335563939324,-97.26295230593672,3047.010229782289,-476.4624198376141,0.03487447431610929,43.62345842613053,-21.276839193451707,9.771917926859885,1735410902155.0
1.8953335845844619,590.4363390010474,2254.160258430217,-1181.0922172426858,0.04462174784892128,48.811894053804,-19.950364538395842,31.09691428612149,1735410902187.0
0.8863640168534714,-528.4390774567014,2077.854508865583,-262.57636073523935,0.0380384140942993,34.80241714670688,-18.59008787648112,25.117944110093205,1735410902217.0
1.2986019019035469,-443.820836178792,1279.544389929014,281.1371104947363,0.010525985316150177,45.26577155910601,-1.21761906816206,8.606418147146385,1735410902246.0
1.0486127443090283,-217.2691384638585,515.7517116565842,-715.2292805348472,0.030695093275510586,25.649280523724467,-38.645554172846005,-39.59906545729167,1735410902275.0
0.9612936512436672,-1490.2218029112064,-12.455288836320733,-1514.535067357156,0.019968810392777037,44.911725605246495,-4.985192926008509,-0.5995493058020962,1735410902307.0
1.2876469251681564,481.02091556616153,2043.610878861097,-1170.6028921633922,0.018492781007077196,70.01740010507999,-3.077999738668022,-25.566343825937665,1735410902336.0
0.6280827397308555,-1708.1459189803393,1718.556337022976,-544.420002698924,0.024559458901852144,85.25531721565221,-23.432150296591047,-32.78210515942721,1735410902366.0
1.281454284292417,-154.00289759444104,-130.00355199997773,-79.19243646396116,0.05598991581067096,54.468738383396214,-3.108274355287242,-11.060703334992795,1735410902397.0
1.7837744587885318,-280.6454326968537,1409.297936395267,-1106.0904015645606,0.04221798896214162,39.43160378456224,-4.134743004131838,-48.888880887840465,1735410902426.0
0.9477474145458094,-348.040065896302,1646.219346926733,482.1105745412468,0.05378651401905149,50.032476693841424,11.027571691146452,31.431143995676216,1735410902456.0
1.4695714674393345,-2217.9942570419416,1212.7889248211545,24.54414914214425,0.046399323803733745,72.5201119044653,4.5868980528846315,-6.811868059710861,1735410902487.0
0.3942485375966801,-500.17127693779116,1354.7732625782414,338.20850076084696,0.03121009965056523,67.36753393309772,-23.717233842642436,7.680614717287149,1735410902516.0
0.8827846697232499,746.4181612854833,134.8098673940156,-237.83251329052592,0.022095027323896135,14.07385096554857,-5.213793427382488,-7.932841784339665,1735410902547.0
0.3312607932588775,757.4402206445961,-1070.307515895312,-1243.3200945953372,0.0644954451253588,22.418468831512698,-8.188702538638525,84.92452694006249,1735410902577.0
-0.5656539463135088,-681.2474433935834,107.94385333808407,-480.01653489149453,0.018648665776312145,-26.484847846448826,13.852336511816665,51.848571816028695,1735410902607.0
1.0967771772716002,1357.505785205402,1048.042814705681,717.4272955714556,0.023956237089883675,55.198939061014414,11.562285965213494,32.153868840029965,1735410902607.0
1.2758131648082385,2111.667140727515,603.2675851885025,-156.9457267946234,0.00965505533152208,34.331063100106675,0.8091615528611547,38.75709790076169,1735410902607.0
0.30708399872457837,518.038439699479,-50.99469543290124,1162.976606632518,0.025296723548113714,52.54137832448781,6.626067639757135,25.936722442659224,1735410902607.0
0.6918490070483583,1202.8499685623701,40.60582397526109,-11.448590091595861,0.023879066833428265,22.025690062430378,9.703413550414014,-6.924955531296401,1735410902607.0
1.5913307728391786,2071.7596093116963,12.534928556546504,735.6626578875344,0.02113740335079126,-1.7495968541355893,-3.651216885308811,-12.964195659013718,1735410902607.0
