Acc_Betrag,Acc_X,Acc_Y,Acc_Z,Ori_Betrag,Ori_X,Ori_Y,Ori_Z,Timestamp
0.9489503817670537,242.01080783029562,-1152.540419697073,2447.3473651743966,-0.0014446029686696338,-107.63678385491103,-7.911068158833581,-13.3915213730902,1735410848606.0
0.4749777170029812,1124.2465127847615,1245.1307640680916,1285.4047982932348,0.044931713946512415,10.447269808470883,-12.521345041026514,30.01558830793386,1735410848636.0
0.9904716188271114,-860.5636365863649,991.4362977954169,1318.5466199380367,0.05524983407117696,-0.43117476403045507,-18.413930327241687,59.09497536993144,1735410848695.0
1.2091863134999523,-928.0132047956531,-638.4823810792249,559.7625729253668,0.04368670367550857,-5.60437135323638,8.857445037616998,-30.88462591769597,1735410848696.0
1.296270757476244,750.3262472518697,10.221563568717443,2097.206344435754,0.020675939721674357,13.649898239393721,2.9299197680483435,-22.11750932581954,1735410848724.0
0.4208984545563965,-1639.6491712686461,-1099.162392090941,689.6045891714848,0.02619314729157341,12.261547365956192,-4.435695814055929,-49.09244038127121,1735410848756.0
0.11666293894855118,209.4597649189618,-971.9308903319652,3028.7617716811087,0.04946232436678367,-16.509171179626307,-0.4752879911221948,44.87667665481766,1735410848786.0
1.1186080316287552,-748.4433776090432,-843.5129391081463,574.703568399076,0.04488788514642252,-69.19889838166415,3.042306435831975,-13.485897553653945,1735410848815.0
1.1058658639234684,50.31068852397172,380.2192421864504,1158.5979709534508,0.011900821127487114,-47.182662810363546,-2.503695352998804,-33.83764304732488,1735410848845.0
1.0475101771360522,-966.1636517316756,-264.1475188615324,378.2471057073743,0.00956428687974966,4.144774503541618,-31.056794633900743,-35.07511541193808,1735410848875.0
1.3132108958957578,-995.1214241774244,1317.887291653579,462.6180403967371,0.030652323610038563,7.001321248710219,-17.01086054394795,5.851711920323961,1735410848904.0
0.9704185203475151,-446.5255189705394,1400.8709788562232,872.4677868116681,0.020824374178971122,-1.9540887385471306,10.317307626227656,63.59166699284529,1735410848936.0
0.40848224644488684,-353.4075435408367,502.3040165482813,480.9024521129901,0.07319696914956372,-65.74266235576135,5.331770465042998,13.981659787901851,1735410848966.0
1.370706227305979,1047.8110172681277,494.14092958318446,1107.6208947535133,0.04160370149214194,12.157286751610897,0.9123610478925015,-48.597511686724076,1735410848996.0
1.0367578733005132,855.0792855444217,1021.8628743928421,1022.8613580473318,0.019180235159118444,-16.12014621485499,-0.774379326864123,7.423768345848103,1735410849026.0
1.3409612084791944,374.2446520223731,-1866.5593114101187,801.0548121060835,0.044852537830517174,-3.6430656986489365,-7.980983865058519,-39.00605351793005,1735410849055.0
1.7904519785416815,209.3596674263456,-545.7522964610049,1681.6319635687337,0.01619617328137466,-13.441978751779034,-8.985521864026747,65.32066251294054,1735410849085.0
0.8125707258181682,87.17891609757383,162.13674075525626,1346.888211917812,0.019557454705757076,-19.759014414811716,-14.271683853241456,23.503890838073183,1735410849115.0
1.2652421109775913,-51.79485322701274,-994.2710288468106,818.5053302636776,0.024040732980632307,9.445844318263557,-9.320017991619947,14.489451443620956,1735410849145.0
0.8947413307806623,138.94152868388448,795.2563961407677,1375.875832958955,0.02562542365934032,11.176698944624214,-10.86462424390234,12.769634613581815,1735410849174.0
0.7199144768864277,1359.2052981982433,1057.7033498320036,1873.8452448761236,0.04999830603015328,39.80729243151789,-25.941715289530563,6.486793561826055,1735410849204.0
0.5753245216780674,-349.2256850776555,734.5350756573969,238.79617381436935,0.05005292036748724,-24.943967661819222,8.26039240381592,-69.523661344065,1735410849236.0
1.6299111869487786,-1455.4765230635162,-406.8710125540015,2182.855697648526,0.08208275513252784,-7.383125856676052,-5.890232885538248,-64.7211809307504,1735410849266.0
0.43217947633386433,731.9584079241487,-483.10792231006974,762.4053157946585,0.03480706661068457,-17.851549075549123,-6.8821666794244845,-109.0462991881968,1735410849295.0
1.4507324611429766,-822.077860341728,-132.65634472509146,1377.5413822227156,0.015832964350271584,35.34517479575318,-1.861583261856112,-12.512789612378612,1735410849325.0
0.7577285721399398,-341.35129333387204,-1325.5041023361105,1271.1158885504542,0.02202748011174788,-7.508110911839983,1.497358728003225,52.92465256758118,1735410849356.0
2.0363041565571804,-841.2093783014273,-1393.7628332390389,2032.3028196336656,0.0060964131117039674,-32.66181195260163,-13.199588434706014,56.659053934299706,1735410849385.0
0.4120552860376464,945.8007579948834,-71.5600935251515,1005.007608043345,0.011963705824749036,23.82050196621725,13.588468154565017,62.5636479419221,1735410849415.0
-0.5557771323662111,-981.4634482616966,374.24033581877563,708.7916104102806,-0.01283290658274782,58.33636734257251,-25.13115988500298,-54.04340118107466,1735410849445.0
0.595568004043449,-194.0046594209244,197.30045697269455,1016.5711710878402,0.052343356296452315,-61.056488468049295,-9.615492149183918,-14.571133580693289,1735410849476.0
0.8112066257114433,143.53630946387767,1602.435818675657,783.2934756034986,0.04871114956519118,4.167966169592703,-6.691293373605849,23.917089248591,1735410849506.0
1.2928830387539803,17.112626152904525,1526.8092111060132,-330.3498580070541,0.04576926423784572,-5.074064539062928,-4.297394483779129,-10.907952238170893,1735410849536.0
1.5821194628012898,1221.0849160559796,358.68216771569985,1125.3587298846908,0.05370836370564494,22.262096762784722,8.01722898331193,-35.44510515292357,1735410849567.0
0.48507743386069957,625.6802103684579,1085.1601660554848,872.5920721813269,0.057428401134257255,4.173276464448448,-0.3295637717779253,70.7174009994673,1735410849596.0
1.289746060051002,-1248.8449374167185,119.50511981999853,1471.3566670954383,0.044912028670359844,20.933054117978667,-9.110503623954353,45.25507878763053,1735410849626.0
1.0380804738898273,-849.4475839214637,-298.291573318063,1708.470542910476,0.010010730038109275,16.80254981214056,10.112031099142683,49.26225792826174,1735410849655.0
0.4852000466232338,-727.1480780717078,-321.0344936005996,-570.8839213391047,-0.003126727609235649,-23.50948413409856,-20.52862646893785,-52.27237678913547,1735410849685.0
0.9861020102917106,312.9054287827349,269.66973484992263,1956.8375257263783,0.029628558298034298,0.7377066204536344,1.8765708835373565,-15.775547203157577,1735410849715.0
0.458774608237289,863.4074472100933,-1932.578733809549,1345.7556757182892,0.020890478024732616,-16.70812155808329,7.74492765165836,18.474437850826824,1735410849746.0
0.6921705668767013,15.2018379552527,737.6737536178604,1729.344233848049,0.006647379814627189,-4.728678317802094,-25.053595853367447,-3.5771785659864355,1735410849775.0
0.8277754134678352,-471.04136228641596,-74.62378885851118,1078.6895850722262,0.04516130452096047,12.178235304677564,-6.779351737663443,35.827743883610964,1735410849805.0
1.2789066407172345,-59.252232319387716,-326.52061730187984,366.72590486105753,0.015444414070865515,21.18013694280541,8.046183096356213,24.045432255375147,1735410849836.0
1.0987144338085089,-1318.8196784707102,122.58220365989432,1193.7097752082213,0.04021368222516161,-18.293375434769473,1.1133721243740249,19.791218323545177,1735410849866.0
1.243765769023353,319.2060276986282,-995.9655288667129,-55.581592658443924,0.030084865730154554,-9.728643678544152,-10.277681771846407,14.41075389460457,1735410849896.0
1.4662015603846172,-661.0985885552799,337.7797567778113,609.8119976702019,-0.0024704504439100952,27.824498013848192,-14.122370528824721,-6.5881694104864685,1735410849924.0
1.1024841168886883,-464.49173441146456,708.0995501841517,643.384226474161,-0.00010697580010128778,-3.529598040592384,0.1515947352846414,19.325749124820504,1735410849956.0
1.2204695154988117,342.9731481833861,-214.25860980287274,1764.4505006272595,0.01664790199920475,54.96853967879828,-13.350534059879816,-43.57258282704975,1735410849985.0
1.1645694949250067,-1211.7770341182918,-1976.2405723428094,2230.814514813295,0.035488678164091514,59.43347148745601,3.8569086140328164,-44.075866484146886,1735410850015.0
1.5412423009684513,1414.4338532227162,1705.5555867236062,1542.8136930746064,0.0394186698733954,-18.969233904674937,-8.63286826915046,-2.4999710001116178,1735410850045.0
0.528444570324967,-2279.488653429918,-134.09930145154374,840.1689059874457,0.010059555839313596,24.965896280278308,-11.286247260773365,-15.433088320152805,1735410850075.0
1.376140547758819,-142.04801711476534,456.25129545974914,-526.7070605824006,0.02123421138641721,-14.690174434753027,-22.3865532657066,22.892687835551115,1735410850105.0
0.7343937711417645,402.0527178749786,-1024.6298223039407,1462.8925412957497,0.029018866723761666,36.20477648389439,-13.328898442417279,22.134246935636686,1735410850135.0
1.3045417858397197,-1456.039758665313,-83.09772842443567,337.2820617792529,0.017943837166663097,-44.682813541720165,5.348023634079625,-39.224002530792944,1735410850165.0
1.5076678721715837,-411.8384005113752,-273.9566645669481,386.51957784407716,-0.012553187440798724,-2.3374179233980135,12.03685433334213,-24.868113477235422,1735410850195.0
0.6158832566582255,90.18046840539114,-275.6011408116873,580.1751784700785,0.06264277392477846,39.28760956612062,5.2955258502867135,-57.10183580075841,1735410850225.0
1.0728531909099235,-503.74355856306227,330.73125058425876,2129.4739502034345,0.027215675012271127,-1.5960374275116704,-17.753128069648056,-31.10835324767229,1735410850255.0
0.7422693335388163,-262.877444300797,190.48583989950032,2091.201271699225,0.03668945059208801,-7.086433854497736,-6.228049718927054,-53.42795427709111,1735410850285.0
-0.06709414647101086,589.2660985279456,-646.5682496844224,1147.0619228292028,0.06058691721547814,-17.8502474682332,4.488958306494992,-1.1018380751352481,1735410850315.0
1.2536925231292582,583.4332486483761,774.1186877983797,989.8972638182091,0.026237657179219782,2.266797152870284,-8.94253076890594,-27.648656823272006,1735410850345.0
1.1796630265163355,-1746.849519950708,1201.5643269689656,1284.8205295762202,0.01029222240055757,-56.5143941793979,-14.347047834410624,-83.60287277330457,1735410850375.0
1.922849447712472,-1011.0112855360522,-1317.9573070082358,962.786659721837,0.0070264383209353,-7.909183079320333,-14.674237235241575,42.8955618467441,1735410850405.0
0.5124653332318073,1129.2699898071276,-103.71285917316783,1347.512412017124,0.01143005888024863,-17.88952313511176,-31.639964638372344,58.600913287900156,1735410850435.0
0.8540920976535101,687.6474312295863,937.9254074182969,643.3784182995416,0.020633571050170267,12.129825008457889,0.31253988759335805,21.276689424104045,1735410850466.0
2.0437698521791274,52.68717577439571,-548.5727744613769,1550.0672108304095,0.04149062431798899,-20.995931634018014,-6.127197861975953,-49.032399124889,1735410850495.0
0.6078079491715095,678.828423735429,-343.6934083751066,-231.9041359117325,0.04828424113074151,0.7670954285100331,1.9768859439925475,-29.43736564798035,1735410850525.0
0.6103302419945756,310.97687315981534,-492.87412066249556,898.0644032785931,0.048557589346849755,45.592587178497375,-11.668903135188614,-34.44293069208175,1735410850554.0
0.6289631090068625,-1158.4931429627084,779.6109648850897,962.926297899112,0.05327287189781298,-5.815462324432037,-1.3990213206200428,-47.566123488521015,1735410850584.0
1.2831963012562329,-92.37070722907868,261.7439306254129,1172.9867352575593,0.05158921351381441,0.7011306850260559,9.14473773792773,55.65787326064168,1735410850615.0
0.5799525151975986,320.2426507285883,1664.119470869229,695.2349010573041,0.030028296150316377,16.187822461041314,-19.395262894405594,-75.94615735915235,1735410850645.0
1.6752421056766242,499.80227907606763,-1104.4745208342483,-1118.727535653626,0.042817862844631426,12.180097787789707,5.179816366064404,-44.559633469675106,1735410850645.0
