Acc_Betrag,Acc_X,Acc_Y,Acc_Z,Ori_Betrag,Ori_X,Ori_Y,Ori_Z,Timestamp
0.9269427584182724,-498.27061005070607,-572.1389022714609,-347.32929439345185,0.035581969233057925,31.15131780854491,-23.649290521414315,56.24193991863498,1735410729233
0.6613256957426418,-754.1968758735272,-323.8239154774865,-143.29570411323164,0.06553634514694447,29.063263892518087,-9.922592381407952,12.175867629639377,1735410729263
1.0270037500549167,-1078.9353855554923,-1159.6277473080027,1565.1057411616594,0.05487092632892322,-8.43970263940296,-19.16812369020188,-92.76406236647625,1735410729292
0.6156712226892759,1209.7693062188882,-1012.2135784695427,-825.9223391033045,0.03578806357190001,-25.256719106360762,-5.423706648545036,-0.15521998522709168,1735410729323
2.0071187594396687,-257.7081502883377,-1397.8225767011504,-107.06843205438804,0.07109867947172163,84.70481207385592,-28.910458325852396,37.28057111118128,1735410729353
2.572132473270762,645.7037946577393,-1486.65005949274,284.41173628881063,0.01936947794586459,-3.484128605989884,-8.89735776234633,-1.3005698754590078,1735410729383
1.3970459011187741,113.83993341719281,-474.6942782312084,-1240.0036220490708,0.03195747465714787,78.21642587699543,-0.8935828932204171,25.68682801523221,1735410729413
1.2069499747126,865.7947188783322,-2198.723616247077,191.20131514286675,0.041781728059121365,-6.080475254720952,53.66780909159982,51.06290433990937,1735410729443
1.9906245698410179,771.4063171401181,-1135.9435093974241,181.52406087972201,0.005318902409360105,46.06394715359789,22.283376016996403,-7.038200969172797,1735410729473
1.0832557473745241,-313.8870561249714,-1765.521067294595,-1065.6191564593673,0.03098203063439339,7.879276434175247,-5.441989420538303,-43.59661400579212,1735410729503
0.6302338939058582,55.96095289019013,215.0044162712759,-5.954894321920676,0.011919845074507359,-28.826208064074272,-6.985599756841929,10.010924654470456,1735410729533
0.31354639614850977,-908.7497781718603,-1372.1792137218022,1110.8949049274515,0.024935772435457824,14.985318485922713,2.5980075734967816,-21.067527132292604,1735410729562
1.7034261201329324,-1025.6514586986002,841.845172842224,-583.700969110561,0.025716321851571376,-0.609092763853269,0.45362666936216245,47.57814102274477,1735410729593
0.44317443661305467,-1336.0095857170086,-1396.2000252022367,-381.7189550094885,0.03977297454341865,7.470014805532134,-10.329109267453909,60.421134803535146,1735410729623
0.2812922803877469,-1737.1119262517564,-811.46592776193,784.3853282958994,0.06946071240128882,58.16207702686217,-5.989859347893488,-52.51776463670942,1735410729653
0.8582249605407775,-272.6353134563028,-926.0345218454873,521.0600760974365,0.04640968914353386,8.92029589118655,-9.672624541773907,21.814209545657626,1735410729683
1.3411273042444185,-1434.8332092314372,-980.6607405160529,-143.9867300221522,0.039483038196195294,2.720230593751519,14.6319339195991,-46.033316501159234,1735410729713
3.3011996635677487,2698.3147321343695,-613.4255331028567,-1505.952845487394,0.031497424992807874,-37.44765069696579,-28.503533280548393,65.21650101927747,1735410729743
1.8458538780366909,1175.7190632995319,-1102.3947018130218,-1398.4186196902626,0.04765341432298843,-15.978666681172827,4.717532823687933,-8.581501974703894,1735410729772
2.4346767714856328,1510.1051609110798,-1996.0152417281686,29.353950109833477,0.019995730643379506,-34.14416030386788,28.69821998357954,-31.128835084467948,1735410729803
1.5017491469208568,1599.4836172251325,-2243.038017915583,823.6573893409129,-0.001900157396065881,-43.411800086298754,7.014054738081544,27.21837532196333,1735410729833
1.9399086957221665,2564.346670121767,-592.1189582301561,889.8381166411382,0.009477314149810177,-12.61579949505535,-23.681297365055116,17.317484148174405,1735410729862
1.603142100025301,899.0194778647409,-1585.4803942111932,372.2604175808369,0.023100283103130226,-9.890511241119007,-14.357647724081126,-21.506883571700165,1735410729892
1.8428709998705608,871.2839685098634,-683.4156465613447,-667.3878574404783,0.03708750455541322,-13.290551201709189,-28.652067554750253,-44.75923030427133,1735410729921
0.8547917355341533,-93.17143995437246,-1590.5421140305893,225.32105637266795,0.02973030578407802,-25.137259564435524,-16.72399016851613,-38.58723679546932,1735410729951
1.4590111323453512,-105.01433527391399,-2010.6310138328033,-203.10034785570988,0.03246139732408856,-60.61874405684946,-0.05257211262545525,5.905475487733927,1735410729981
1.5921759179827868,-1628.9002674627236,266.62412813253695,582.0046909531978,0.0481941152154093,10.829535881466851,20.67209749596184,-68.4819916104354,1735410730011
-0.10397890201795201,-1717.190699267548,-23.6547377311836,1229.1851629455373,0.010732745259734219,2.2062736160386045,6.979651046501525,26.789455635071484,1735410730041
0.6452543318227254,-812.5032651595293,-36.88743797975161,1695.7319144495752,0.02746012615797667,72.33345778692991,12.22656466455441,-27.433262099575515,1735410730072
1.5210463936573717,-1094.9914834518331,-826.9612524720396,503.2372105442395,0.024395935467575333,18.212733302434458,6.802316498592314,28.88516261311825,1735410730102
1.9603572288445141,2903.071160427963,1384.2162383955776,-593.1393523206724,0.03384840244269225,44.66158840561355,-12.678452918082707,8.105907366284516,1735410730132
1.6629113537672262,1930.3480446405997,-1600.1926668120434,-1458.6154890573737,0.025849043327278,10.55107250233277,19.72625652236296,12.763493177073743,1735410730163
0.9417292804989753,817.55772905963,427.45113783596025,-1203.2493168968922,0.013609741780960336,-4.952948220109268,7.883512009066108,-20.958934598113988,1735410730192
1.7345105236036698,761.8212681633208,-58.00483238838672,-1628.788250430933,0.05344467341732213,-6.060313817937932,19.8207372933466,-25.245279885665127,1735410730221
2.8153516713250823,1519.7186315102797,-824.9066144055935,-1116.7651014312246,0.04893546966775102,-21.950122406959032,-40.37487696909085,-46.90831063730122,1735410730251
1.9332976504729669,1697.1536779995674,-1932.8154459768768,-263.5814196638396,0.04079171995436346,-13.09990160705096,-17.544329496109917,-66.55351457194129,1735410730282
2.4442304151816665,695.5103981793715,162.9183597700753,-1149.3659268434772,0.020110247570211216,11.282565228694693,-28.54785695590175,-3.3810984824286487,1735410730311
1.7420885107271726,432.4699227228465,102.97769777914777,900.2359546461021,0.04202972729044209,-20.0927648923802,-16.817044667124293,-13.558603258826146,1735410730343
1.0039269261033519,-644.4812061567986,-747.2481737923151,-558.4085471011356,0.02969223393715547,-63.20912927042848,-15.069308198492202,49.31664685680185,1735410730374
0.9537573934593122,243.32902230154536,428.1899317099677,-744.4733395321047,0.049656355457051604,-30.284291942022282,4.289983348706765,43.977147865591874,1735410730404
1.3282421359743188,-973.954614059696,388.4063465327067,1143.484072764852,0.056145823137592935,-62.67506335874009,14.602722718257688,-14.972552244496487,1735410730433
1.5367346805970088,-630.9528377917082,614.0030776109372,2012.4898841255279,0.04509953947374867,15.60251597442359,13.083195009202859,-57.49670295429521,1735410730463
1.4889364857452216,564.2845515782778,173.42121211517454,811.970798338198,0.0036794471837044446,44.6135462730047,-11.894614991995043,-13.960312051176334,1735410730493
1.9846543909111838,-1154.9211061439569,957.1462104440936,696.4778440950764,0.008925802394811139,64.03775765140871,-4.630532634411413,30.802293991023234,1735410730522
2.2788836692175636,2211.602494553687,-3062.4962674893086,-1007.7661133809648,0.025754045071492253,-29.06606405461935,1.7144748712945126,-32.360795214749004,1735410730551
2.8331908005301583,3112.902183381041,-1413.0889817777215,-1548.5373299923476,0.044826731914222616,-15.620667488623925,9.458634290347124,-37.37108971629995,1735410730581
2.546120400266912,2382.024563110805,-1184.9469770103594,467.8705680124399,0.026718130590036894,-4.719476486234704,6.0474814718878225,30.193517129644597,1735410730611
1.7051768412240913,-513.5380037318581,-957.5716979356743,-1372.4197547755891,0.005421861914854425,-36.24874683709244,-23.213387228585333,-20.235233548264585,1735410730641
1.8202402649009612,718.7920356105317,-1479.3679579681939,-846.3679192938033,0.02900337159675791,3.9632710567161666,-1.031143037364876,109.2541153692945,1735410730673
1.4789940958688368,1022.2466152618506,-1873.422129978217,-521.5735305600444,0.024908129385814628,-4.411954611027675,-20.291749259903902,-30.273110266049795,1735410730703
0.46412445440910066,-1717.5259241006702,145.3036220436628,1063.0354923777277,0.038229255225130515,33.69772527333643,-0.5548199248467667,54.7216078251429,1735410730732
1.3457099516655127,272.62716369154407,353.2954419383551,-6.646119615617067,0.06895241503794114,33.80272528948744,-4.800967657972122,41.976402017106636,1735410730762
0.9125309388234458,-687.4356670016599,-1501.2782938451046,-75.31239471626691,0.03513365007481189,-9.442512689868389,6.201279898661761,-41.60249551397351,1735410730793
0.3165120045678158,-1157.8670526924566,-856.2527066253901,261.51002333054913,0.026148907195145614,42.97763766540106,2.0212619809789003,-24.274913570571883,1735410730823
1.2259841828332445,-547.3951162790886,-231.03840300552,1115.4572275125315,0.03996894258448367,29.00259457853467,-8.864081375254704,-20.04744568312036,1735410730853
0.5297414998483921,-523.4338062686544,876.3784982607629,1339.7167492050844,0.028704571466193235,34.67959440213424,6.130219873090121,4.034692813660001,1735410730882
1.1381715720122254,-2047.3074438869014,158.01914193341088,153.06153258391484,0.04450782863806381,-23.965964682197423,-5.672379310769691,7.518448784045113,1735410730913
3.456626860753964,2452.1360512579095,-1727.9193878413175,213.7434098697281,0.057588384198671454,-32.519000399800746,-10.04108118449629,-42.338571290275425,1735410730942
2.999286022553484,1512.6677086395375,-1295.1350730036106,-979.4414366034216,0.020758681017414505,-30.72908964006409,3.583926581548541,31.828684669381772,1735410730972
3.6523132550394526,3370.9580698968093,-2558.7228900935297,-1145.8053512035976,0.005707994383987901,36.04946479014109,7.068839917080565,-4.419488360248299,1735410731003
1.721145022685431,1300.300999893902,-2402.768372923149,1543.4435063719307,0.009631074685524738,12.215276975688871,-0.8773376912248443,-8.831361193068357,1735410731033
0.2577163120054963,209.58767642652077,-897.3698020136449,-368.0970142421825,0.026362360715532634,14.908433728038224,-0.9922991411511219,60.57433136970496,1735410731062
2.4389659692615595,-1160.7839904864998,-274.1353642065935,4.349437148277957,0.02146641049025979,-7.2463152514284666,0.44426791367912255,54.655609950474656,1735410731091
1.7694279954838765,299.3282888359877,-994.0529107341656,-495.82619978239495,0.021264033606039952,-26.51277837105299,-9.570287308994224,32.57629639687596,1735410731123
0.42446323877704617,-563.2993872894307,-101.90146769492478,1263.6463840717072,0.07151690165714521,2.141578163449341,2.8357647375328243,0.4292822064382733,1735410731152
0.3937334466112713,-2747.9648804628678,156.41586916218853,-181.14341205849945,0.027486309334017963,46.33055218351462,11.038836041507256,-60.50971860783169,1735410731181
-0.3237035737563847,-117.55892764636451,112.82378481893551,913.5379398935751,0.03255851823535441,-5.7719395263280715,-6.362143113361652,14.59542921297556,1735410731212
0.7811569958219577,339.83425073741273,1419.7043134426403,-181.1305516214752,-0.0028535209185107,-25.590903469586124,-7.1324000231792155,6.004837808408084,1735410731242
1.6693671278408302,-177.3792468457159,59.06236083065238,578.3510551871996,0.03727117426128589,4.8997826608463155,3.4490047359118026,-59.11916752614598,1735410731272
1.092311788235259,1062.5693588742008,1005.00068958417,-673.5263384670169,0.04906573972511267,-35.38506788217247,12.039240929669603,-30.75246719627482,1735410731303
