Acc_Betrag,Acc_X,Acc_Y,Acc_Z,Ori_Betrag,Ori_X,Ori_Y,Ori_Z,Timestamp
1.9962685346951998,-865.3506200012673,2131.1580839130274,820.7740176968077,0.010400330990799733,-16.757452343030707,-1.338761093622644,39.64769748293007,1735411100252.0
2.2063288012521363,-813.6067233722679,1540.2244492328787,-194.5799477254762,0.018436265180073793,-65.65911602436984,1.851735957559651,-3.5037710827235102,1735411100282.0
0.4617173138359667,-426.08005778288583,1108.97291223926,1225.6459093198714,0.028478960192739263,-16.451596128071568,-9.18578434817733,43.406295474122174,1735411100311.0
1.5882744756791078,-706.0683627704321,1593.3698715297255,779.2010634185841,0.01796326608234914,-30.904489617730334,-1.1518311434640598,10.722825234197574,1735411100342.0
2.3072897246166555,-839.138145378543,1232.6549337718438,10.26336503762542,0.03990797636562356,-4.374681607739675,-11.825610217226444,-6.442088870006987,1735411100372.0
1.8285303984389383,-427.0814582977381,1297.822299232839,-130.10339904914457,0.020242029453657617,29.92296300582578,-5.3706150028059145,-26.177003993722387,1735411100402.0
1.460298433387608,-488.6300898612917,1150.1800490363516,841.7572971878135,0.039339713524850835,25.397221610114556,-13.996091970001189,-2.6451258526993495,1735411100431.0
0.8796143701558287,-671.3175789966472,1074.618116554133,197.35590741402657,0.019950044964972567,25.245833803884636,18.42766652037767,-14.467669910572372,1735411100461.0
1.1956364057400142,245.8464806702807,2077.2608562947294,-78.85953915375622,0.039409608849723686,18.407991023785275,22.918420847120945,-50.15703582222302,1735411100491.0
0.4914031947226112,139.032795726164,745.8918468499251,146.78113680881305,0.05512031874926887,9.734408531455417,21.575717644474295,-24.35782577715228,1735411100522.0
0.17640330367948792,-1556.6322879074783,-1101.2633352159414,-253.28805616346602,0.03002319082584946,-34.811722269744315,15.6023560652408,35.36832636108243,1735411100552.0
0.4775234517854359,-1751.9231115948642,-302.72737544566263,1414.9472634934596,0.010969402899200613,-30.153393504192586,1.5032530628011636,0.49885001992694455,1735411100582.0
0.5032186880764884,-58.534307039753806,-1804.4692512743668,930.676116329456,0.02470698019129384,-50.8480660081498,-5.543483867706579,11.183402396157426,1735411100612.0
0.07720382717254082,-1290.425558271646,-1602.1748158100033,1172.9612828512531,0.04889530206724156,-13.95701109503181,-13.118293369975916,0.9297748666157268,1735411100641.0
1.1838438380426615,-4.753882370862868,-700.7224443891929,503.53539801219586,0.06640105946901939,-52.465604106216276,-26.04578499056074,16.881907440956624,1735411100672.0
1.0058407071088746,-1023.3935949101265,584.8639695662663,279.4923634107934,0.04249473065071423,86.08562700723434,-10.915249316323576,38.24565390158275,1735411100701.0
0.0747868076919862,101.98100444905651,1472.7861313680125,1160.837958648742,0.08517329874996203,81.30391573111095,6.301556049130308,28.892130380203792,1735411100732.0
0.038842815183741,629.1111713659056,-973.8257356009162,-997.7948001320642,0.039569258030118314,-4.921845180015801,-2.049136852035142,16.25420850666863,1735411100761.0
1.1666633073307784,-1831.4916947837894,293.59828050616426,104.29701933061796,0.05274443064237183,22.414659602800747,-2.3159872894638136,35.06610983237472,1735411100792.0
1.1220770384543346,-1213.0524179088793,959.1496356016182,688.9713046999453,0.05139296939490337,44.03742799903151,-23.318499028871916,21.60700800262839,1735411100821.0
-0.0352672225941868,-1800.7647920950315,610.7280276964874,1276.5804049104893,0.0488961971077793,24.213435199069078,-7.078342829805601,14.252462918336118,1735411100851.0
1.6302010455028446,-2273.6462883153386,-1139.6052646914886,-17.82673992543971,0.047999454851677274,114.33119609690071,-36.73660948152997,-13.618457721585115,1735411100881.0
2.783824805327792,-1141.2591902657632,2586.661386046714,-405.00711334573,0.07155498501965175,46.70076853324649,-16.424939496853572,-67.9071293681883,1735411100912.0
1.9672815090317242,-1148.8405235909336,2060.413914737952,240.792244723544,0.045557619317309166,34.89268370238717,5.593855896180507,-81.09925838659095,1735411100941.0
3.2101230106244394,-1473.4437574572657,3168.67279826685,1085.9288256964849,0.04679775885999485,70.41795258263951,-9.224904955286405,-55.82364728826672,1735411100972.0
2.147105273132076,-616.1846453307187,2196.9818046114406,414.75925234831516,0.05007250878486803,56.1108801087436,-9.140299114664112,32.328677066131874,1735411101001.0
2.181000587532162,-596.3864627945941,585.6617050322773,466.9081285112095,0.04510619507640612,32.958360345404294,0.31758758939889487,20.358405836505437,1735411101031.0
1.4604625347679048,-666.6442447478472,1700.837976963922,-237.18962070364745,0.0543967082967395,67.23091428174553,37.86503393360236,45.40223739053224,1735411101061.0
2.1815695971011357,-925.8952194666555,1892.7415734585948,-877.6969216555976,0.043137836215223074,-5.925539748171687,15.660584289494748,54.16751682748668,1735411101091.0
0.3579364668734124,-1175.7385006616482,-366.24676822711365,-1605.4223473568159,0.019334641452893563,-23.940706334810457,-7.652145129526771,-31.485783839391274,1735411101121.0
0.5204874225753613,-1422.7352521724981,-1742.130228241866,-1826.1663519676677,0.015314133921102122,-34.73520738479836,-4.071389097607498,-2.2267393661322448,1735411101151.0
1.444639128583538,-263.589970543298,209.97401459849954,640.5100321386365,0.053321461621876905,-20.009031508265046,-8.294861474363687,66.115351493086,1735411101181.0
2.1285947299512524,1259.2201339128828,-704.9101207260477,-1077.706814227227,0.04594553274856274,45.54559378388076,6.18335574995087,80.67283884413507,1735411101211.0
0.30884519700919166,446.1038305134948,-100.10098477548308,-562.8750902843553,0.09489753067007607,83.77418004051182,40.38756111004146,-50.08775979093576,1735411101242.0
0.2989155610646672,730.613830398244,-1526.8862984193556,-137.72627977111827,0.027758454751389307,-90.73299825132676,-7.54703503109849,74.08820143366198,1735411101271.0
1.1435986748126803,-287.8389345034496,-1649.5563408201265,220.90508738217446,0.05858454926238828,-27.003519128399056,7.035798115731953,24.363392758173795,1735411101301.0
0.5824660600254691,-163.8754534473198,-920.4074883842526,-438.29076417614687,0.053979405188117405,-26.626836122146248,-11.971938312548886,20.62150117211973,1735411101331.0
1.5485456464375102,953.9348487704664,-1701.0105150555953,452.8023623363514,0.06349329805372046,-27.264910423380172,-19.262201597665243,60.802116377101626,1735411101361.0
1.9610673358569009,-1040.1450991759061,-1302.942530546338,-1234.7336591265503,0.06755366936869411,83.48832082389056,2.3112652177004502,21.965218206297546,1735411101391.0
1.070876248406389,-958.1962219630893,-353.0182678970463,-1668.094746202994,0.0571204766167204,-56.80762089945498,-4.121136515211099,21.27832470626999,1735411101420.0
0.6771017256315764,19.456333699794868,-1976.310968272717,-185.44573024493388,0.0522265822078445,4.751237455335527,23.62015377240994,28.561211287594503,1735411101452.0
1.031943708544751,-45.04226376162967,-489.33361079738705,-314.46367669525637,0.03967462085147613,-42.0802786215813,12.784986877691818,-11.631280420869146,1735411101482.0
0.5133875551142913,-2107.1889946828483,-238.6852971988003,-1569.9202479931637,0.08263819365609257,55.41761785008031,15.851055016220151,-11.229504206030516,1735411101512.0
1.0427427675609222,-2339.991635731233,-522.8500670970337,-470.7594572664023,0.056808466793685175,47.068150561528,-7.281277943218115,-25.726522497674388,1735411101572.0
0.18487987495378455,-2151.9658609074545,-122.08893921114549,325.0943301340235,0.034662193256515386,35.89394598285331,-5.110367312844864,-14.072631237698499,1735411101602.0
1.1545252435760378,914.8712022700529,0.33481351070679466,-519.2036167955428,0.05161317458529267,-16.19157817838129,-15.559134414596517,-24.145560466575045,1735411101631.0
0.8341083398954201,-808.977013857212,-152.80443161850553,-1099.3362883318346,0.05813548962579082,37.86907921036531,-10.408474467586219,8.367593902333354,1735411101662.0
0.7995686874417295,-1080.5671340343351,729.6785258824518,-572.334230078186,0.0664184251194952,-63.75923183604931,-0.8926087975114587,-9.340183040610057,1735411101692.0
2.3476226646794744,-1712.3326539659124,310.16887775139037,-156.0006496843165,0.05805459253009301,-49.08769369300474,3.732262236888494,-7.463529619529588,1735411101721.0
1.9933051603831606,545.3505291917625,1797.4106627368976,-1384.5777607048014,0.04898368296283567,73.67370571552746,-17.506318639152795,22.518963956040732,1735411101751.0
0.9960275920667533,360.8152217221731,1003.1169200936592,-1462.7452201307642,0.046143717861211686,-5.056151876302934,-7.648429385209588,50.012185589451605,1735411101782.0
1.793974504156338,-414.8863321845032,-152.45969010062026,-2363.3808647571645,0.05888407648466556,15.427831681875485,-26.87115930120593,36.45160571135142,1735411101811.0
1.0644579410353767,-1387.8835382200386,1601.5333182391746,-1027.5495226561438,0.023755137503649947,40.78277377500184,-7.1322811400951505,-9.053536686628956,1735411101841.0
1.3977145734792136,-1346.9833434846557,1664.871861174528,-1255.1824679854103,0.0468923283218782,73.04735836762424,-3.290730313498001,25.187306513028098,1735411101871.0
2.050082049151306,-681.6508990823422,1831.9609566987917,-1284.3626599976224,0.05069501441548975,59.04956140640576,-3.0976287847346153,-5.026780820433565,1735411101901.0
0.6002013095724261,-617.3020332265066,1601.6950244842787,74.55814074243631,0.07023038672649469,32.42801950070115,-7.8916315064576725,44.84993085441117,1735411101930.0
2.233224215078332,-963.8958428281069,1307.656262338367,1199.1521008862337,0.03633122084387913,-0.26972794329465444,-10.005277110773054,-42.90751780696247,1735411101962.0
0.41302999621981407,-1476.0361316554379,1376.5674752590803,-604.1976177864926,0.017128599667269158,-10.182793630521292,-18.77506623292264,-1.960094569904241,1735411101992.0
1.5124151082041886,-198.89103917119866,2138.725032331634,-1430.877608202064,0.02749158957459053,-19.246911092202158,-13.139156580209644,-37.54182973722776,1735411102021.0
1.6085764339416375,-703.2875162051246,-144.6537102191478,-886.2707148509186,0.03586265300339764,45.08419558232451,-1.6490483032118617,-3.656357024478263,1735411102052.0
2.2914733854418374,923.1639362364838,-353.37377133915743,-322.24703462650496,0.04226261532652489,30.265494626087705,-10.759041004220341,26.772479363186868,1735411102082.0
0.9228471436917218,-347.8182084592617,438.77355981714584,-1036.7762134842897,0.06519999308232514,-32.29860052383562,-15.746187795794416,10.402032613885805,1735411102112.0
-0.061028911475276115,-650.3053588698313,514.9189639077425,-474.4127229851724,0.05278828723497864,12.547262243403381,-23.018694606212012,63.72944313947911,1735411102142.0
1.5426813483940536,-374.18550819235816,372.82092456442626,-1009.5478701473173,0.04238565393172053,-48.87333209931164,-19.67041925181245,46.64694500429642,1735411102172.0
1.03478780351748,-761.150177566598,-470.3412038276361,-1029.317807436647,0.0631109488076225,57.699607898508255,0.9337651381315659,-39.38325913999701,1735411102201.0
0.5681192333416939,224.24205245310372,-1652.3221641493915,-765.9435169671506,0.04181464206354178,45.46071275999146,-2.3431325228416124,-34.9395194617766,1735411102232.0
2.460376069892398,-695.7014118371317,616.130796438295,-427.22885172944416,0.05895564305501543,66.39789491873083,-16.075586505943345,45.68228970817487,1735411102261.0
1.408260087491452,-1265.823356203754,-579.3275766385907,-408.60490303526353,0.04648376214411104,17.494283874929852,-46.352800875628766,29.18186128936578,1735411102292.0
2.9218396249761014,-396.52626306543294,-1006.6608540446815,-1471.7042875235388,0.045310399644529174,-0.6591141404424974,-9.57194803845023,51.099940147494195,1735411102322.0
2.193538042874554,993.4768223116171,439.85656450133115,797.2303575225717,0.03150096368041953,101.8951086521468,-10.283251780821066,18.42309472253426,1735411102322.0
