Acc_Betrag,Acc_X,Acc_Y,Acc_Z,Ori_Betrag,Ori_X,Ori_Y,Ori_Z,Timestamp
2.775723912884556,1208.7939111049027,-64.92712163993565,-1480.8127060466286,0.03498095982461159,13.53937604161662,-25.813985939592992,-13.087697047702394,1735410771203.0
1.8055213403738373,1347.7642947288841,1176.6849314389833,-2271.4552288978593,0.03361927430419793,49.3862014356843,-11.453510476822494,66.31529834681852,1735410771233.0
1.9521263289605382,1951.5877717006533,1021.4470396928937,-733.5658907090088,0.04918166230900953,-43.73050572945953,-17.123423956267942,-32.81297866184556,1735410771262.0
1.6235242327978112,338.33080846183304,494.26651756870075,66.20558353425417,0.0036972077623927055,17.367180725971256,1.6609195299193713,7.048572349841027,1735410771292.0
0.7902167365274197,549.9785647361302,-841.9631267964968,-341.48752882978124,0.007278661463086612,23.879155861089846,-2.687223590720902,-39.13725687393372,1735410771322.0
0.5073559286750243,-335.0996137588918,789.675635413176,-1179.414843364438,0.020946762550832474,-33.536142151625896,-23.33864027955434,87.4591932407534,1735410771352.0
0.39884343865268834,-425.38553656441604,-1619.149891531489,249.88630808250502,0.057305293926031474,-10.39890591620256,15.771598182158888,-53.73023186702387,1735410771382.0
0.35788358430878875,1845.2959764203258,-1421.4540450069915,-257.540481440436,0.039711149608171695,-16.95011577186313,-7.529722620625998,-41.91730035111913,1735410771413.0
-0.40544384748546847,-1105.0528222599319,-1168.5716817951234,-635.2218281720333,0.0015072300630711716,20.158663035724963,13.092815021536838,7.381318326749973,1735410771444.0
1.0114246835470209,391.7787503561714,239.092085730422,-844.1445708099014,0.022358454877532668,-4.111108566124905,39.193721498708186,-15.959590294333989,1735410771474.0
-0.6543574869942288,-976.9648550750253,246.9959527510381,696.2201318816007,0.07624572040990057,-41.70032467653569,14.13717488444249,-36.32191957724464,1735410771504.0
2.019068429719925,2041.8357420848592,1137.0644641055317,-541.3992555231201,0.0694695259926979,-5.399282175350979,12.546808978819127,46.22157134673366,1735410771534.0
2.8944788346502413,2053.83371658124,1976.0340760548165,541.0393535296198,0.09150781199236505,-44.249100643721945,-27.38735817767295,35.99387886353303,1735410771564.0
1.0258282257228724,3321.409647196727,2692.672593735366,-101.94026130343678,0.055580488769988376,30.085731171974196,-21.880111022535885,4.219421792029806,1735410771594.0
2.146837240061325,883.0496777590524,248.27702676163221,201.04525951410176,0.020700494929792992,7.445698727926064,6.825184637527,-33.95710225958586,1735410771624.0
1.8006990754050516,980.2725958364889,1776.7008460811385,557.2730600852083,0.015685958110463825,7.872456030027225,30.81841401624194,18.034594578278107,1735410771654.0
1.9539818641769207,1880.6739708545626,1524.3573412361256,740.0582287931398,0.01988336357709767,-41.72971199049659,5.3140284115159115,22.083458856144752,1735410771684.0
1.897317753634222,1901.6646298461606,2603.28564509123,-1669.7089512810574,0.028580790474970832,-34.85927350954937,7.924156649661104,-4.879281777803564,1735410771714.0
2.1195729087403996,1574.372217229405,224.08957777510827,-1947.0630682745716,0.023925301305997355,19.671381508882778,18.730116184140606,14.489060292781073,1735410771744.0
1.9210876040793348,2219.1496806191853,547.0840889467663,-2090.945542027335,0.054952047048431533,52.39562174223338,14.477184287108084,14.218030498771013,1735410771774.0
1.969705426023444,902.9950561143544,-98.17446083783881,-1071.0047756315896,0.03302159860040069,-29.683547970827952,14.76734714642709,18.83981321239778,1735410771804.0
1.8586362766665223,2590.6833698609867,-222.0566936794619,1074.4010001021263,0.06824919076165925,62.720879489776564,28.49645060263405,-41.67448678558077,1735410771834.0
1.2497138139738855,80.76426741845603,21.397600767468703,73.54738191541185,0.038777072763916745,-23.359278850867426,-9.470817884527797,50.16851912912657,1735410771864.0
0.31830634297522553,639.6465950651001,1374.2167472520289,209.00965535336843,0.03508286937844259,54.63889538901853,-6.679574986285707,-15.310030681910167,1735410771892.0
1.1422316437618782,296.3660649147623,-743.0864815500238,1129.2422611009993,0.026143494826024617,78.2047835933169,-2.4410785102653234,17.451441555440177,1735410771924.0
0.4599550813500094,-1142.6568367710133,-451.0219149618431,1294.8143182315098,0.03931205909240243,53.70774435980002,-4.1479760991169154,-46.6254111088529,1735410771954.0
-0.019971133699148047,38.047543462976705,-330.017875691133,705.4682401148709,0.05022549650291455,62.12390002314033,-25.180644860316228,-113.31500408040033,1735410771984.0
-0.569417899147387,-502.93554586111145,-924.9180052031923,52.48541114712327,0.04444603297805147,-24.640182788953105,-4.53895736248279,-10.051580150434487,1735410772014.0
1.501957639184692,1135.1035178166526,1357.9306142902574,-519.0070656671539,0.0644394411346754,-15.182029899939204,-3.5258566060070553,58.940981725985075,1735410772044.0
1.1366906546334399,1021.968140549069,546.5166447699437,640.8072565168621,0.019681092775304963,-30.087457085796785,1.6568299129003803,-2.1026201849380755,1735410772074.0
1.643037813781965,1360.3452554849653,2571.547859206049,547.0260567178946,0.023635265309977144,-37.848236452875334,3.9521191565484397,48.29486239070317,1735410772102.0
1.706434503124583,533.2458845931409,1452.9437092283824,-326.1293604204571,0.01330288343052178,-69.16531160420274,-17.627187108064014,-80.33644829525088,1735410772133.0
1.3600550903364779,1105.6396352907293,939.0037879992951,-917.4705716891128,0.013608864882784566,38.085171151435745,7.3318062633696455,-0.3289003272067248,1735410772164.0
1.7690382647076364,1175.655394937762,1087.0653988188976,-1185.2591609053065,0.04053490077201819,-60.43243572077115,9.2759587838798,43.02778425709622,1735410772195.0
1.4073857583232794,3260.1854516729577,529.385034716523,-1561.899522143599,0.01695930274358682,-44.3834882263089,-2.545627878241225,23.852294963921125,1735410772224.0
1.6923011534751646,-243.8662664738133,1621.4653211785273,-1919.72310516182,0.01411664121549278,29.633225521221235,11.83966986885028,-0.7070054856573833,1735410772254.0
2.2359625980461253,792.8947722720775,131.90393744047606,-2259.3840264671862,0.06378670745949855,43.77192456964688,-0.3911817218133269,1.9408010286715083,1735410772284.0
1.8419693992852286,670.5388056937306,159.7387298970644,-1258.8911337080751,0.06055931680645367,-45.30623562515934,1.6800626405999783,30.797590952127457,1735410772313.0
1.2355740465356204,1593.6507158794332,1085.2011793788554,-1452.361114221133,0.024582364095928552,46.18810548275247,9.31541719700115,-13.38792371670299,1735410772344.0
0.9232029872950206,1114.8982777174115,-69.7795469867298,-315.1727821991824,0.03729090831828347,25.149469017488226,-4.204598139228308,-61.91173317815153,1735410772375.0
0.8230915363140545,-124.23365231864568,-149.46120341036874,-282.61379539247815,0.06852202108299883,24.36895963683704,-20.34569512801164,35.46935261424591,1735410772403.0
0.3734943163201332,-511.3086009927093,-742.2370525162687,1235.356809736643,0.024812273161980928,8.9638025286771,0.09351605106848648,3.521012373026414,1735410772434.0
0.36179571550428585,-474.9130163746149,-1419.4963527387083,392.90133375445225,0.03462144410931353,1.7044859736391906,-9.743719670247867,-38.250082743209504,1735410772464.0
1.4577912682470602,-610.2698552118172,-405.1157256927013,268.7096138444863,0.04451992399148955,12.961424652139847,-27.892706431768836,50.06220336818043,1735410772494.0
2.0485501133833726,1576.9159846714538,464.4392512276029,1039.1583064554754,0.04191304836421783,60.91656858580478,-25.13715895097359,14.096025894896012,1735410772524.0
1.1733920123493533,-92.77758754280273,2672.0888750172644,719.8212468991921,0.05141056960473518,-4.41895559931646,-7.296154488606657,-87.25993500581032,1735410772554.0
1.0259729844432837,-508.4197959108394,2260.0653163971165,249.36233416224474,0.04173622520504377,-46.44294383390319,-8.348579753749489,61.826603256440876,1735410772584.0
0.8524207840526568,32.50672355852146,-46.793822219307685,-968.9629417371327,0.048454081813382045,-46.283298206667055,-4.925574826759826,36.999968274731465,1735410772612.0
1.3632162097661709,1177.4153880112776,2946.7208052382043,-163.03488213012935,0.03349115612535632,-36.84277065872118,-2.2010810026900263,-8.644548544772736,1735410772642.0
1.8637171534036345,1511.9674668539042,1076.5744075917492,-751.0364967094878,0.032561548686597094,22.577739610422054,26.02035282154148,-4.815301147365826,1735410772674.0
1.5361191147404407,2253.366062739881,1053.0920524203307,-549.6976141116281,0.031778657349298176,23.691658130151822,10.017749666344976,59.046928363025025,1735410772704.0
1.5668151176493266,1980.4011987620952,1240.920365673189,-291.0214422423811,0.027924745400030267,-37.02253896182519,-0.2618350633980273,27.62962794667294,1735410772734.0
1.8434800988485744,1556.448745461026,340.86683007172746,-2160.420446943933,0.0063377148439391,-97.6536935071978,20.395119291402963,36.45014211886565,1735410772764.0
2.2263829904104373,1685.3142012276762,1476.8455881288314,-2865.4147350423764,0.051422324330919776,-66.38205524966506,17.179562851428248,-33.25271220638639,1735410772794.0
0.7307547466134842,-466.9617518739865,60.27060296958456,-814.32908913708,0.05368708292619212,29.110956871459788,10.771414738799052,23.238779189601573,1735410772823.0
1.3116403165608805,484.58014495329974,-1127.5027563288313,0.5177218332926259,0.03236268634268494,11.819471277608699,5.781098264818242,-17.307509964440573,1735410772853.0
1.2760331159900364,783.9643830162044,293.06397130494935,-1818.517366625802,0.06463390681922998,41.72566614201169,5.582652078882583,-36.9471907470675,1735410772883.0
0.7327630331464465,959.4682094066163,644.4897587913653,-604.8344454004241,0.05575185061965916,101.70714084181182,7.3545864280382265,80.61694758201435,1735410772913.0
0.12898722755387293,-695.1342599367325,-623.7430317148024,538.8702212927094,0.03883515390217149,36.742665630381055,11.114931516965502,-9.440766962337001,1735410772943.0
0.3710502078148684,-1001.0940242353029,-1303.1355289255507,1204.4081750544028,0.0337211464823774,47.461769983021384,-6.494507988442734,-57.79239374793704,1735410772973.0
0.4762799377898334,-842.6644680253705,54.664644588369015,-702.4865272583643,0.039964987049445226,63.858233316557474,-13.713972389192717,-51.94593484622443,1735410773003.0
0.27304919660943894,1028.516806314296,-316.15801175671163,150.96823820092925,0.05825522905346101,15.653553659251042,4.864615296937336,-44.675235634679424,1735410773034.0
1.4352767573130047,463.92193922589087,1274.4747494423648,269.9942137710147,0.02387443469162514,-14.056639870148306,-12.051090411752657,-19.817603845384212,1735410773064.0
1.620394517271502,831.5421205789166,862.5140452147627,493.69499894223543,0.06832252160809257,-76.3791278977657,34.78468177210613,63.68281709101379,1735410773094.0
2.392990204265827,2131.673487101374,439.7416877259332,-595.8289560548454,0.05158355580264064,-25.905665910603226,-37.363530463781544,46.27139540973985,1735410773123.0
0.8416130711623644,-118.48123826448773,-855.4884911888053,-1462.2307701058041,0.007837911405269894,15.388044478544845,-20.936413377360314,24.775374795613715,1735410773154.0
1.0555615550836146,1750.9488492728433,942.7946723636403,-639.8844221397908,0.014759077851126234,-21.555711844197763,-19.948882182054366,-12.511383656229938,1735410773184.0
1.1094315753603157,2011.8116294308031,1530.7888792262625,163.35104693410653,0.015423502072525934,27.231694879194436,10.232249542328653,-40.72540200380066,1735410773214.0
1.015015190528424,312.40530375014464,989.6982589716011,-203.3276064460834,0.032622376838851885,21.707275449525653,6.0344595212578405,29.467505437443428,1735410773244.0
0.9366575223948981,1356.355341979938,493.2495690642204,762.9148701520917,0.029376492035523477,46.80195685931636,21.02014420335107,29.706027072849288,1735410773244.0
