Acc_Betrag,Acc_X,Acc_Y,Acc_Z,Ori_Betrag,Ori_X,Ori_Y,Ori_Z,Timestamp
1.3494415661204262,243.58994768334787,1579.117695015963,1589.571599242641,0.08548124640055313,-25.106999040042,-10.182380327720672,32.613516764284896,1735410695213.0
1.0152417079224518,129.5106328957957,1480.9070954943875,1133.1664844710967,0.005574164246383701,-5.056121097228873,-3.067739024852446,20.449574097955654,1735410695243.0
0.16060359821471626,1181.1749368636797,720.9956853558267,693.4791312585845,0.039866413600071475,-29.783733855960346,7.535457675637904,20.24045514819238,1735410695272.0
0.018220687004300684,-731.3721684316184,1390.4665434907947,-1821.9149726872492,0.015097346805010448,-9.704926806786125,-2.3823988569672068,-7.951108272362205,1735410695301.0
1.5804811944840076,-425.40092012225955,579.0502909516107,-1272.6196157381537,0.0068344260626644416,-38.312456177594456,15.4969073347884,19.16622237297259,1735410695332.0
1.109846158625336,-37.72753840220389,1862.8439241414137,1797.2292287663547,0.02552779679604233,-55.31083449270969,-22.730268758651725,25.396391432929686,1735410695377.0
1.2350810797503873,-2291.6829914595332,-61.23558696415216,-417.9259335915302,0.049927655594553866,-61.10475524928752,-18.23353168901184,70.2530170774679,1735410695392.0
1.1566861179693257,-82.90804137939853,739.4943610498533,739.6393855918346,0.04697558661902501,-64.95502134047081,-2.584169770462629,78.86414571941235,1735410695422.0
0.405394034839888,-953.0251190483052,554.6022189398867,-158.38311752737434,0.03959001869124489,-5.081867729141698,-31.211888662791637,30.853197146708077,1735410695453.0
0.8063030476420657,-46.488690006260555,1097.6922358309453,-528.4410273626179,0.011833145941956435,6.235566706160725,-22.179400780952953,-13.551296165469198,1735410695482.0
2.0162834150563116,-2141.2487581213936,352.6018040833865,141.88142072822282,0.026409779051145298,-12.62719940376242,3.5395848185356362,7.956740180719144,1735410695513.0
2.155279429950953,527.2226356347351,-650.7116707617299,-527.5330051719707,0.023026976406521227,36.9215568427615,-15.691922755959009,71.65555169764477,1735410695543.0
0.9819519420590748,-1729.3165654952647,-910.1951321873255,-873.727816917826,0.03568578145594693,-38.58309997178568,-10.462673206278598,-4.377051617719687,1735410695572.0
1.4617625465256683,-996.1340897370665,732.9949800168367,-180.48811436547044,0.05356662247612479,43.7390653642518,-16.16852793262141,-12.503430528182705,1735410695601.0
1.3597448622472437,-2047.7885426713415,1223.741987773361,927.0263171737324,0.032898878405495956,-56.650911938429964,-6.575879053861275,37.88957042432371,1735410695632.0
2.108471252409978,1540.4140030960016,2486.9342223513604,1610.3882159541718,0.0008807478881935858,11.164104075340552,13.97979747232208,8.203391170870432,1735410695662.0
0.7914506867920579,609.0114133539388,548.2197429019736,1094.8894124158176,0.040266381066283476,17.65079664861453,8.149990631296616,-28.414001579138755,1735410695692.0
1.7597892709726197,-1375.067590844054,1264.1795982956364,1669.2361591292465,0.03794545657968954,-30.152711309692723,-26.901715868178098,-52.182795184020435,1735410695722.0
1.7111921842488516,-2046.9974469014423,467.50666898349925,1654.2956065767264,0.018368456274125294,-38.29814866769815,-20.482917815941192,21.477782404877615,1735410695752.0
1.4298237925061694,-549.577101556557,1754.420847109116,-131.8901483371008,0.0001656946058008358,-15.338227068689953,26.89878281811978,-4.566167675573711,1735410695783.0
1.5022200285143725,1730.005189661569,-970.1506761147855,884.3636086697496,0.02662589919550021,15.047626810191892,1.7635886691710896,-10.74158818885791,1735410695812.0
0.5977545439137422,819.9955087528804,727.6562901059558,605.8663548405427,-0.011441898493091466,-43.49408309723583,-12.778205607713486,-47.071049786178364,1735410695842.0
2.015760818510717,1759.9098113021898,227.93437425836254,1414.269687236712,0.038625005392163285,3.9577010445801406,-11.069535006968787,-44.17685695515969,1735410695872.0
1.4837010103399226,-1058.6848428353796,-32.74808315201523,283.2146371960548,0.03621528437326097,-3.9549600126636673,-4.713316403221539,47.687112761800634,1735410695902.0
2.307609757447271,-714.4862461741822,92.83550090419936,2.1935664456484005,0.04458102372991041,-6.393572155601616,-15.535691756519853,-20.060893801219976,1735410695932.0
1.7033716542992134,-1463.5580572886197,811.906664416781,-493.6069643892771,0.018289946693971555,-20.434145270261027,-14.59409674860424,-27.558536186804215,1735410695962.0
1.2498586615245677,-1422.0430631658426,-20.481227079732435,542.5433241930464,0.02600196234447491,-54.34051211159471,-6.270246948679507,-2.5695702792641057,1735410695992.0
0.44496402422513837,-466.2880141531368,980.6503017947118,61.482998208290724,-0.0022496639236660072,-32.28818978016396,7.261196457327356,14.076153177786917,1735410696022.0
1.549868209205146,999.2103342477676,1005.8146769482295,-148.39857335264378,-0.010864617889090877,-9.20181521744105,-14.486004291243397,-18.97043340199849,1735410696052.0
0.893197315897799,1744.6302082565105,2839.335883990501,1436.425400969118,0.052542350190302095,-62.5555080064477,-5.933175783915629,-6.125048890673435,1735410696082.0
1.567722605344485,-103.9032270844807,293.6655034620562,971.7914698794548,0.00999886623916137,16.454628338641083,-9.973760113422808,-83.46430719478244,1735410696113.0
1.319543420887199,-1632.723905558006,1367.4343791620554,885.5497143081146,0.03932657123847363,-12.888532208522529,5.603560754255291,31.039939278846404,1735410696142.0
0.1424174896890168,-1235.3290741092683,-1467.0934485929583,126.10650044840025,0.020952758852923803,-32.223786571760996,-11.174269059779489,-21.915597902951543,1735410696172.0
1.420627384380585,-1716.9064112025208,-180.15917318801212,758.0270645568445,0.025576900710899055,-26.333516609776336,-7.484966816624778,29.2705752049297,1735410696202.0
1.701165777513101,-126.1098903027642,1062.691405871706,1262.5816373396676,0.006651975653414809,-34.21127364089695,-3.7507929972409464,6.609683685664809,1735410696232.0
1.6542312521706268,-36.77158867893186,1196.38555504099,744.1219757366883,0.03224427810079822,-36.874337217723664,-23.132593577472846,-57.31506500225122,1735410696262.0
1.4459071901686893,96.04762848318597,-426.67228925199424,802.291747471316,0.06953731658996379,-25.208027184295226,-13.80950013063419,-40.75608485369785,1735410696292.0
1.2408164007793614,-3508.3780592158205,-686.4062607137173,592.0527507081965,0.04764735255358371,9.588952905510423,-28.19042408958176,-73.14933759078963,1735410696321.0
0.25193023188829766,-2362.1504622174493,2222.6281269402557,979.1244914591347,0.03380182684746644,-45.5266712725261,4.925259236197814,-38.773659580263526,1735410696352.0
0.9558870144055245,191.50956739638946,1272.9097221282636,-593.9146559215601,0.013904175170962521,-6.76601936581452,-23.956306052908964,-30.1855129877931,1735410696382.0
1.6870359005874942,1248.5326909839293,428.2938317491934,1000.3554566186518,0.0228671223457669,32.17907127850448,-16.792164159814586,39.815183995924045,1735410696412.0
1.434426085081903,-265.80013597672337,380.1628290057616,2466.981363689151,0.0535190232301229,27.677609696283696,-30.253901042382278,-38.1217573876762,1735410696442.0
0.9941598817732243,1329.6946337192442,107.24537946233818,892.6726158992586,0.04071788051150694,-22.095902568479012,-1.3166187326270995,60.64875822600976,1735410696472.0
0.28242859924418884,780.3581082813811,101.71295918577073,719.5841382444312,0.040166095161835814,35.64546576388467,-11.607436354633084,-21.828958117411347,1735410696502.0
1.1702609782889168,-900.6494474053916,305.3871132686694,-786.869958274037,0.07313442227456225,-39.65569356968291,-4.589949947888756,41.399444741932754,1735410696532.0
1.8217366373453059,-1330.2728521611648,1507.0427744293738,953.4376485517496,0.023886692256904755,32.9879958059501,0.26381204697488325,-61.46798999735647,1735410696563.0
1.4311319063152732,-560.85468896554,-202.51420065231707,-951.6790248287393,0.009197178085409093,-4.6707637595445695,-9.411645632653252,-24.086658645152742,1735410696592.0
1.2078946618351547,337.62157555107274,900.517742851957,-306.858186812133,0.007458741111092711,-3.5264262725286315,-23.31856724576484,-31.61899187349278,1735410696622.0
1.5360827118104134,-262.6612367891678,22.655510089449308,1607.5503329014177,0.06270755611182943,-19.893385733849207,-2.560990184265612,-86.65970804422574,1735410696652.0
2.1610968019414276,1153.6573694157344,1288.8331108666803,180.35958256280907,0.05658854245858341,-13.7628564613345,-4.3032372693834215,51.70124622821035,1735410696683.0
1.833292411415903,-593.9139461364748,-700.6053609017599,927.0515736391576,0.02679993994549685,1.2813898797114058,6.830668297082184,14.774005846754285,1735410696712.0
-0.0756528782803425,242.28647627185512,-153.48166952812136,1063.1511433621538,0.007720955565116322,15.95209069072651,-8.086909405981356,-22.09020599706614,1735410696743.0
0.5279515199732376,2184.029182607863,-402.41952217152505,958.0386834730411,0.0125919586527025,6.039443509930665,-21.180784599168355,-30.04654053184483,1735410696772.0
1.3531223413678948,-277.9570148306003,1002.6189111743133,-108.16464218873739,0.0333424308650081,20.91940127111408,-0.9283100953853154,-18.764318370927086,1735410696802.0
1.0830242690482894,-1957.440795655892,-557.8691541591343,209.28228439361007,0.04888235547919674,-34.49475347355405,-14.017165902473131,-3.7057690489523374,1735410696831.0
1.6560756147627909,-2700.9377836039603,1899.1359672322058,-162.57145868005355,0.022159328350447892,-36.20837733382721,-14.454022860626724,22.813995287540383,1735410696862.0
-0.31384971288151964,-901.3220486266074,354.8080430683167,-947.6513572021721,0.014109453178195175,2.591883309936603,10.061869420132023,-18.353473204098513,1735410696892.0
1.6505780586399246,-224.7625207754915,893.1090784351546,611.914869289747,0.028425685592240357,-9.159531754960534,19.851468763744034,-5.1769892134205975,1735410696922.0
1.2938950738711172,-956.1805107655202,1658.0743019152806,-774.9562639585154,0.07962940556759635,-50.88512127557216,1.1330955454489862,50.19908268233356,1735410696952.0
0.8994082045785396,871.3861154869135,1577.5699686009093,916.8339383730515,0.0316576546793039,27.11337487088481,-3.382175502311105,-6.7119669688577375,1735410696982.0
0.08415672258367002,592.2174805781858,519.4020580837567,-1044.046919770125,0.05563807452562747,28.678572999418794,4.728997843731237,-43.071539505307484,1735410697012.0
0.3593206230464602,1236.0571618695951,335.82695096936015,-464.75824270113037,0.05633872043728554,28.39386896323716,-2.5669316016044643,38.24452055945567,1735410697042.0
0.4747919524112155,-917.5891676134702,678.7847699982627,220.00024320490445,0.04488276874044046,22.777332687507624,0.9962523109348602,21.75067206438277,1735410697070.0
0.009273477028320487,252.32974448550715,385.14531960689374,-613.5786116497609,0.04108571637349723,44.733085296898935,11.855385108264185,-9.490790434558452,1735410697102.0
2.296083470308556,-2815.039426899767,1812.1708458836747,-2068.4585117990973,0.022868574350174843,46.02641213573296,-5.4019313121706105,44.934990002112556,1735410697132.0
2.9174343049902536,-3967.4175442948876,1475.078012779067,-1878.2652719851108,0.026779157680544712,-21.55141896390134,-24.19720495263598,-6.2669617887003035,1735410697162.0
3.435870010756925,-1237.8684953668746,2316.2691754055086,-1691.6700136904512,0.07109557150187681,36.68143096178947,-2.4493461160499663,-22.275712932593837,1735410697192.0
2.787853102691941,-2424.288569616077,1332.2839019849362,-2074.5491694614866,0.05779822356204026,64.66303782633719,-27.02340006134223,-36.93193521590755,1735410697222.0
3.047752045561161,-2911.3810515187056,1693.6212051844318,-1464.784865357375,0.041478719582259176,65.32935528522091,-1.6471780369877411,-57.256593516934885,1735410697253.0
2.805982774000798,-916.8568392884057,1186.7194538078977,-731.5494324349228,0.04388121148460716,-23.2308196125543,0.34111111700064356,-14.558500928830416,1735410697253.0
