Acc_Betrag,Acc_X,Acc_Y,Acc_Z,Ori_Betrag,Ori_X,Ori_Y,Ori_Z,Timestamp
1.0861076057631918,662.0300932717411,1899.2941971160699,554.6928751372766,0.05651451409313338,9.153732679203799,-14.478266997998212,-8.098597245912686,1735410533358.0
0.9424588630271796,763.2528838499742,2130.349969338513,-316.8108566699522,0.02957577290392643,-52.56068643177859,-26.678392812336973,46.21909688217361,1735410533388.0
1.9722624288832047,-494.0203405475829,457.9810435981941,786.8142887374644,0.039547637471894895,-57.90531748593101,-8.394575071363821,29.337993753266474,1735410533418.0
0.7594067282914161,463.964434448879,-428.24828227248304,-165.6174222704767,0.05873585483374581,16.309555323576618,-5.773473702649585,59.937568303491055,1735410533448.0
1.4798411230522135,1055.7429251121187,691.7044297180208,711.1302591674071,0.04690593103932792,-9.68274112403848,-9.528384257022648,-87.13391862505108,1735410533478.0
1.1261308822255978,1567.5418258098882,283.05740861489323,967.2026109595186,0.02092485566152789,-50.58909373427067,-8.317905654107436,-34.026811657954056,1735410533507.0
1.7698400365511286,-264.44578747646483,-256.48276307909583,920.7089881724047,0.010747063519558463,-3.083339506914413,-13.78679611197252,-40.124313536815784,1735410533539.0
1.2564467673397748,807.7097361723515,555.132492005948,463.181666294701,0.042966783703013565,8.411936484576408,-18.27269467747737,12.020961499999284,1735410533568.0
1.414116815340216,1811.0398737608327,-1011.2798400801961,330.7386824696799,0.006795746873738687,70.77543272284024,-36.92491877313856,-8.18791328799388,1735410533599.0
0.6868319214354188,1405.8477955140115,127.07758867339601,1181.1884630178042,-0.0013395537271867278,26.113672871333648,-5.094313816454891,-31.47888509584783,1735410533628.0
0.5826007003778577,397.891251376687,218.07344047680795,1197.3517130653877,0.038496231266614084,-29.352946827378254,7.185068713062645,-16.77781268743433,1735410533658.0
1.320516416717582,1185.229603832632,1384.2116975987547,451.04616212554777,0.046405750975715115,-2.5804442715786298,-17.907495744954737,57.6143946830282,1735410533688.0
2.446848425218307,1478.1884209632663,-952.8885199367281,699.1811710278419,0.04446609877374987,-48.6543506991891,-7.48563828000866,56.570302324971095,1735410533718.0
1.634980161964146,1877.3048697567879,-722.5219964628319,682.1163044103282,0.04455911857243415,-18.27819304768569,-11.309260909030582,-39.51875274570261,1735410533749.0
1.7666823190428758,1664.220468370041,-2303.006292119075,458.97211152146133,0.031478323197768845,6.164050509703655,-26.64623311480247,5.832769940253215,1735410533778.0
2.007531985938435,2544.604253428625,-3041.8807865676617,-352.0615865856887,0.03888603247077224,-40.2649882376584,-3.019742747839855,-6.110767603501857,1735410533808.0
0.40249097594627753,-714.2083143189689,1002.8810560060697,821.4121757825255,0.014975465104376967,42.620523158285046,-2.3519550984980118,-19.69171132115801,1735410533838.0
0.26968664207323706,1356.8952132007794,-539.263851177864,138.34918180368265,0.023903127513014242,-5.548372691048577,-11.798942115170929,-3.6346012001081363,1735410533868.0
0.02709694374731675,-339.0084998541429,-1119.1685139082388,-535.9556126327393,0.043249551139614276,47.25478136791902,-19.723632356646906,31.540554666314794,1735410533898.0
1.2861869972289663,608.7781584695865,1294.9390315642972,419.2291381950372,0.022247372693534693,-15.995500233449434,4.181186969281545,22.067174083787066,1735410533927.0
0.24527971815134997,891.6477882025324,-1456.7483277015804,392.4931928316122,0.012615838474795426,-21.90397160370229,-14.60846030782201,1.7841881418725696,1735410533957.0
0.48121322575162406,594.6876130451069,-93.00028102015983,728.3011314572126,0.00534262346720615,13.244653186869753,-13.385042106757616,-13.085015060917089,1735410533987.0
1.9210375908415724,75.91745414033082,-1283.9713706489713,-703.7183474108601,0.018014803699052624,20.134021376176598,-16.731691367288327,-45.8641964498149,1735410534017.0
2.0070608212467493,1710.836876570957,-738.1441924754212,-784.1789549501061,0.016095784826522554,35.97814090156741,-3.1495631130009025,-5.995510768928574,1735410534048.0
2.5657573896211234,378.2430346215616,-1391.114827719711,850.9839502246374,0.03138116550911454,-31.11454908591254,-14.185530785556706,-4.276341197849902,1735410534077.0
1.5328989968034228,73.74051594474656,-1153.8791183842698,78.39583056595416,0.03275821946520552,-33.16291433551029,5.352210180007408,19.995180881470695,1735410534107.0
0.9748785553621294,217.91003573463394,875.0037721122621,384.36886694071507,0.027657119442620698,-21.358529293792976,-3.0704364944357216,12.324452351331246,1735410534138.0
0.3750834822856902,1144.8664942407077,1116.7219041462404,1061.9171159713003,-0.007147937475740422,-17.63753050322981,-2.9173875931426267,-26.515492153304546,1735410534168.0
0.8720568218589675,939.5162502190195,17.255620279847122,1360.9098777516983,0.028533921745375664,1.2764671934360377,12.182968393871176,4.786985089394543,1735410534198.0
0.7570516477852512,805.8090963891354,380.91158354105914,-522.5441076632898,0.010502936764001467,-32.396289452471166,-20.48895133225573,-41.7877396977662,1735410534228.0
0.7302678418215531,762.1400241218628,-57.426623820910606,251.04952089920903,0.035327170329801295,-41.2263432966092,-28.00722870907137,-62.964940551434644,1735410534258.0
0.3334437859492213,1403.020233213518,627.4049037803403,999.685420835892,0.04803716843068419,-0.5556712203113019,-26.95916776697998,3.66358785510441,1735410534287.0
1.3515790384880997,-332.4195082593824,-2196.732689898609,443.4752350417484,0.051449606241433,-45.23223764628871,0.7958672745050652,31.677239922809633,1735410534319.0
2.058570181328436,107.00971130683504,-2168.791516086606,838.4149258095641,0.03750896736396818,-2.9373266098868394,2.5354878281860183,-39.70836490413804,1735410534349.0
1.2299774493997067,319.1439500811256,-602.0407565293139,1611.3344767616618,0.019647282936774903,-28.03000631263096,5.513976494072262,-4.176823731133868,1735410534379.0
1.6536353646925814,-755.3945354547038,-1501.3955682530925,1855.2191872649228,0.023190029421026007,32.42120404356539,-12.696101206958167,61.781762409748026,1735410534408.0
0.6081295434186011,-584.9447760091937,753.7324727333594,460.74446949001003,0.024047244527980134,-22.903839823332387,-11.571135663513513,25.015326966462254,1735410534438.0
0.06612417328542053,1357.5204764265582,-1380.5436831380314,1675.6059310147634,0.04833994555417566,-10.327572724954653,-2.937322140274302,-37.978105817320234,1735410534468.0
-0.05769083875350556,-407.5994448261025,-525.8303131298777,1777.647982819112,0.037061547759491165,-55.87853519757185,-17.689459202607555,68.40295176780866,1735410534498.0
0.7359953567053767,-429.87687465013937,757.4866072868588,155.41123208180622,0.05090814351585063,-13.008597534605169,-8.41281046539659,71.38554250724457,1735410534527.0
0.9600914440400691,-566.6701756300515,556.6505417163,-204.22027624249438,0.05122384720143364,-6.527257456329316,6.58591828737378,81.34037726692202,1735410534558.0
0.8891963672266296,1028.487248678425,-592.5942313294387,368.8962358783176,0.02960186226922917,-36.92477404033523,-14.741791880941914,-2.1066821854066475,1735410534588.0
2.6221599971959724,685.7751292481835,-1497.1691383044522,1828.5779263275062,0.017141286496844755,55.6157313610837,-4.893415100189978,11.348713151964695,1735410534619.0
2.374901834447218,-202.93709652946643,-1238.6590415696626,1075.2335143673045,0.053958066241067526,-9.675867478829803,-21.74139175524266,-19.61411524875838,1735410534649.0
2.7906743843550275,484.99327231217194,-2008.296106869649,2244.6724811195145,0.04492159122226526,-26.425234994162278,-12.263388315861459,-23.162122999420617,1735410534678.0
2.8351692630463954,-838.0712228255916,-886.4771123821998,806.1941083893231,0.04045694024774212,-40.1532372166276,0.6968434720825192,-3.3859713142760004,1735410534708.0
1.6731732793540313,896.1627104991536,1113.2839512761334,146.84627490651144,0.028550981016847957,-27.367624793842964,-13.135075089356148,-88.73836632753681,1735410534738.0
1.2361340544995494,1669.9363757251103,2270.877203128839,-87.87609230568114,0.042876294788650876,-3.064494172468489,-14.042267458526347,-82.63783673186998,1735410534768.0
1.1663545326231552,-173.1708734949043,64.27592603938888,833.4561868244607,0.021929858358943913,-4.643153083495922,-9.977285694769327,23.659456381041384,1735410534798.0
1.3901334155507175,702.0482061782018,435.93994187047286,363.0464244380841,0.046235469771648725,-33.56126004870486,-6.088589385149449,88.57495901068518,1735410534828.0
2.638343648076459,1087.6563554892261,-189.1044051639389,652.4452958348527,0.03592667015987936,-1.6304935085225387,5.876411223471242,-5.894081956066287,1735410534858.0
0.41095083385428044,-466.51638785027717,-756.1794876861101,1425.49171075014,0.020383624875320146,36.320697586349596,-5.553294097695581,-59.08665871963838,1735410534888.0
1.2656034259859896,-1133.5212989916427,-1608.2953950395063,580.2418804427487,0.03294853223495495,10.05271214940925,-11.38027660046885,36.23121586048292,1735410534918.0
1.5333494654327193,-254.25436373591648,-991.8267326714252,59.39338816163291,0.015231292453261875,15.595581185154327,-8.194147883699284,16.281599849209854,1735410534948.0
1.0290701857478204,-461.2307463651835,-1018.5313241428845,934.5674624612625,0.02679193577700083,-21.370742318199717,10.970766726267417,59.254670099082716,1735410534978.0
1.4776250634759662,-1798.8265392554802,-2080.7778177196387,1759.6280760411425,0.04269532325222455,22.393332325840493,-39.86589219591559,-35.74893706720266,1735410535008.0
0.7493631655114608,561.7980842326376,-761.139039111799,-15.527479335542012,0.04111425684748045,-32.32388954078945,11.606760588266045,83.82587804239914,1735410535037.0
1.1886902860949013,-451.16204034642305,411.37064606974286,313.12081824264465,0.031905712505471466,23.707571690581698,-21.81110456595836,-10.39880564206376,1735410535068.0
0.7547485444763941,409.88608151402116,-304.9795797512191,652.4422119169731,0.034446607089037795,9.529013976459444,-7.193913778335212,-68.75864064893001,1735410535098.0
0.32785085089745913,2203.5950945245504,530.5159801974453,537.2934315188013,-0.010516770553064967,-15.718305259928309,-10.344869189128177,7.622617273290132,1735410535128.0
1.6777980422929992,1434.2116395691778,-1036.9503806858397,991.9456827594615,0.019781929491868785,8.541681417600998,9.359627054006344,49.607305253038724,1735410535158.0
0.60472890813892,1114.3128094569468,-1368.9701216105084,1591.2791789955058,0.02845497980366909,-22.802277871670118,-0.6036196099813864,42.505696932179866,1735410535188.0
2.1271628888012737,77.42350016516207,-706.5712716054899,1104.4165509102127,0.03467464595286515,8.521585267355213,-20.7517470721373,35.17313190756309,1735410535218.0
0.8752388868438294,-385.9650358173551,-76.65834509993545,94.72063739658435,0.017099518842041396,25.173762415179183,-25.21979691363046,-81.57408978692786,1735410535247.0
0.6861624801663674,-1665.1419309166013,-86.44649103036386,-106.0103920671022,0.03065912241915735,-5.66036992597595,-2.5137729901530337,-21.411993621623637,1735410535278.0
1.0535233645882267,-785.3966458520108,641.0027893961515,839.4851650111384,0.009449864622823496,-11.080828920994806,10.984698525664145,39.19358560774176,1735410535308.0
1.3268671381060873,1022.4849773296323,367.58716588534344,920.3240047087459,0.02421126904694261,-21.09757330390241,6.717291751092605,-5.193357928355621,1735410535338.0
0.2919919234460039,2243.0477885574674,-140.11257576200083,1799.0788091560612,0.015559141859418101,-24.6439630471029,-6.405064030082533,-104.06464133315816,1735410535369.0
1.0107780500556536,1033.2559776060014,-496.68368647979713,-407.2038415703422,0.03584480783327127,-18.42035060540009,-6.332607187786897,74.24485786827798,1735410535398.0
0.7846484789906398,164.44014504808968,560.7181499759195,1574.7361961918136,0.026129966832362038,-21.3654039165682,7.680575197459291,63.72456394456756,1735410535398.0
