Acc_Betrag,Acc_X,Acc_Y,Acc_Z,Ori_Betrag,Ori_X,Ori_Y,Ori_Z,Timestamp
0.8890344887618101,-771.3785841743621,-1859.1771762093013,1239.210005489397,0.02406111862903938,35.39312193354622,-9.961335007405935,-21.710558399928974,1735411057410
0.7687289152094009,-2200.422283690706,-808.7018103295405,-516.0672991907329,0.022216269913353893,-11.517877452484177,-25.923441060770134,38.564083697858464,1735411057439
1.100780830263326,-291.35419732327483,82.55930576407752,1268.6584864719512,0.061830711684906045,-48.14951112399653,-26.95659011392194,-52.141668829808566,1735411057470
0.4715828149790248,-49.974438165696256,-1614.155197274869,-33.535950544177695,0.050221007158915046,-38.32410611393232,-7.969400807523025,-43.88282688009928,1735411057500
0.4613848111801273,-1334.0045460889396,-607.7631857043318,90.54123032777426,0.040555347676886185,-47.59773166740922,-11.613066212515655,-18.60335066804688,1735411057531
0.6260258183270856,-999.2110717186928,1048.0271390923278,495.9764086507843,0.030715956134427444,-19.42286537085592,-15.650478043795921,-50.97213617847741,1735411057560
0.5142935956601674,936.6690759818471,333.0183074503261,207.389313589119,0.04840460243959016,3.896167164748757,-3.6881039111878287,-35.47792761711324,1735411057590
2.499495011390447,1683.013613020575,403.7211234497903,46.4628912331973,0.0377606420949078,-55.660098336452414,-4.408589707061354,-11.100197379789925,1735411057621
3.810395300377011,2608.362738541461,700.7468032826467,1525.987730694191,0.05980736129658831,-74.31735224039714,-25.5631838281444,-46.71313351755958,1735411057650
2.1331867204067656,1755.6218657275788,727.3374526437776,196.98226887494843,0.0838308125047002,-15.182306734544676,-11.429510736139338,46.64696748034465,1735411057679
1.6407973075682665,-2453.0717225503336,-358.14675701320414,1220.216564261049,0.029622406981611067,-52.35661166939196,-28.36308586971908,18.569478563099697,1735411057711
2.4804775243722132,-2545.3512010881673,-1403.6508150131522,1143.371372812452,0.047548761590721834,-7.259884076174043,-15.99412133628622,-15.682944121118336,1735411057741
2.1198561807511247,-3151.7181188415384,-493.6247364791991,-1937.327645835332,0.03965692998789985,-13.361281149178756,-10.95468597532052,-4.564227570239115,1735411057771
2.525933336257994,-1909.5635124255832,-219.9901368632735,-131.56771734163542,0.013974499152703596,-23.545265692838484,-1.7674914309052774,-12.063711923969654,1735411057800
2.367794336871902,3059.950881092978,568.3832716780469,1610.7926116739948,0.01589215650112743,-33.823639330003616,-17.46917420933677,21.892413019595402,1735411057831
2.0992130224754186,3497.9980837600942,828.5138429819796,632.8716503261056,0.07214475602374942,-13.467526139685916,-36.84701495299689,-53.71275863024918,1735411057861
1.7484141853595347,1158.6532506207973,2792.185155627857,682.0821942675337,0.03698003200124471,-22.40559316412929,0.30592727821685806,49.95017050025824,1735411057891
-0.20205850890048804,91.60712177389416,111.11348446658576,1369.1629929886954,0.05451529375613509,-18.673343211478336,-25.820592753385483,9.204686048642241,1735411057921
0.5495386106438086,864.686512169915,-862.2477247633134,250.42703787796518,0.04190399400629656,59.77914262075433,-4.197678395091522,41.25696775565455,1735411057951
0.0002879854212771704,-144.69860905955227,818.2280654923072,603.8057023423128,0.040451870779368834,42.9452878303646,-10.968844686604285,57.886791897518634,1735411057980
1.6699180702171252,-2072.0814735944327,-1367.8528452538646,1424.0854220417423,0.06844161316629799,20.474206605803055,-5.5838564614302495,-22.7478247723726,1735411058011
1.235413581733174,-864.5057541992427,-601.2384582820263,-260.85246391625583,0.021093301779540524,-32.30319041603634,-12.602116428186154,-78.96399026482442,1735411058040
2.179697181125279,-2401.596313051233,-1012.0085832279703,-142.9105455320789,0.04928178969994125,-49.36506138979906,-30.483890464080833,19.723809230588003,1735411058071
2.535236111637148,-1484.2876170219008,-1059.675885028606,-272.7593899175206,0.022669555584373793,12.295095844128436,5.042258740210562,2.2137423330821893,1735411058100
2.609483360015507,2818.1521532083266,664.9131064266402,546.6512560274197,0.05212548479504087,-66.20062950388035,-21.926308470824864,0.11252867187639026,1735411058131
1.706472063591164,736.2012540408678,1768.5772780839663,246.1703809186131,0.036392036019122984,-22.662663871609922,-15.179942763997861,60.86933566550589,1735411058161
1.2620707278062768,1575.7535305176787,1373.0672664131744,791.7891730450912,0.036912777436182403,-21.001623769249278,-14.842255123293455,-1.1166117488901186,1735411058190
1.3618051590598672,129.23490831338472,-1501.631558400426,-214.28166741254796,0.029656185020849497,-25.98768130102821,0.2512834898246936,62.289120266426835,1735411058219
0.42769737003332586,-453.4449508268186,61.792419329655104,109.76704325951633,0.06238340719332562,-25.908019046699764,-14.34947103051579,41.674438967909886,1735411058251
-0.4755270510375643,-226.15077381658915,536.4808022764532,322.34155028748637,0.05101554841870913,-80.10543874910792,-1.6893048943150077,-52.98002242495032,1735411058280
0.5293582826415959,-1392.3663162130624,317.8452095280144,29.53350581669264,0.04116462805002983,-10.730164945156128,-19.18095802679945,-10.120359089307277,1735411058310
1.3430460910232374,-897.3331306495834,-445.26175159339857,1265.2227985954462,0.0505860667388865,-55.11205253299227,-2.851466662571408,-47.13396210106756,1735411058341
1.5583771712564625,-2231.9785331092644,-538.7924484630919,47.512619821333715,0.04739132980647756,-37.56049636489978,1.8352916076093635,-14.555671353511098,1735411058371
0.5189467554330924,-858.0747266457875,-490.1024661116246,832.241544520432,0.04606459057873795,-12.769254708347567,2.452958291146328,55.1796299539377,1735411058401
3.180074087350401,2236.1281288148634,1255.089912614163,2428.4759655409034,0.04459299740329446,17.69093851917547,-14.049291092584523,-10.206741560628139,1735411058431
2.5095566781154424,1373.9999860505286,302.56374974353224,850.1239767075256,0.050587593145577335,5.692017803583443,-6.9226761918946895,13.508830052151303,1735411058461
1.9639445585200632,2121.1642977146316,618.2082318027378,879.2389598497775,0.017459400794585588,-4.076224053545856,-12.2402921696552,73.0965305231475,1735411058491
1.6533357711199876,-2583.030260655887,-1073.486820142403,-83.05993495664512,0.06410238520349988,-22.041208724129064,-6.384634271027831,24.941977659569567,1735411058521
0.9942290241092957,-1927.9714673443063,-492.223665264968,137.59726839310616,0.009866683457355134,-22.327269404165598,2.752659016670723,-37.869486324817636,1735411058551
1.8681536680042803,-779.8763528758852,-1242.9028294280977,1177.0700900701854,0.026940787368997545,-15.35819307206007,-1.401172670464943,-23.028192449417645,1735411058581
0.6673170761780516,784.4256828555009,0.41643764067580946,593.533642672017,0.025481902735031314,-42.2658694996103,-9.482711597837959,-40.34418799435403,1735411058610
1.5702164125448772,196.2583252273937,198.4311668993651,818.7194212708464,0.0217162419010079,-35.04244577101312,3.6347348733125937,1.208609955103329,1735411058640
1.2381377629668648,-518.4898628026449,190.33038467036926,1120.756441985865,0.04498257624878314,2.8197444979531934,-9.412732946432458,-45.17659093504224,1735411058670
0.4153708312576223,-211.82682846169894,869.748235301572,485.2208946061686,0.039411425930241335,40.88758969132854,-0.12894124445995025,-27.283767791742612,1735411058700
2.00416356354969,2056.1375051915747,710.254234259789,-74.75972077036397,0.06599414543241852,54.005532112404566,10.649064646700566,-70.72228727591963,1735411058731
1.3357002178304858,1771.5629533006595,-816.780947795151,1052.0580864357953,0.04945481575416472,-11.775826152963418,13.793876961643027,71.15676305799775,1735411058760
0.6710350874133306,1110.0539964565553,-685.2847564187306,-659.4192221881358,0.05922225090492217,-10.388867983319114,-9.073403862284371,41.349300632631085,1735411058791
2.7473170702172176,-1250.4714945503479,-1332.0492937027807,-3.587492937049852,0.04274994653181945,-63.252399218740955,-8.577408257444183,-75.60160595584232,1735411058820
1.271973140487133,-2035.6812801117114,-1304.7907864184758,209.60845762702763,0.043941244399991586,-46.23860294070937,-2.378186066156009,-72.92203794069982,1735411058850
2.011170861214347,-1438.9896690831529,-1091.2420078728364,-329.768170061033,0.03322782829966203,-64.19455310041737,-5.36759314373993,-18.73405659984216,1735411058880
2.230059894479947,1522.3068467651674,894.8517863209582,-610.1770675761844,0.02682557637156671,4.568076880711043,-2.760484873792251,40.80469501595993,1735411058911
1.180220592280036,3284.0629996671605,515.3860462938997,453.0871020520798,0.02446118179192721,26.80963631825864,-11.029602122023318,-60.79639152700885,1735411058941
1.1205079137548193,2514.017363727543,847.5048485016362,-313.6706856002462,0.03410143281373405,-40.35687593033393,-10.629690774414314,-26.944786069214388,1735411058971
1.7720900276071498,1109.0312760013971,110.98107693042908,-0.492655665194377,0.04511166654550477,-16.542378684734427,11.977823612505318,50.96658692470187,1735411059000
0.815732536811921,380.3041108732734,-633.3976187269311,347.9853430440112,0.01934199147937366,-21.651244030056297,-2.5144109930476777,10.177181284166767,1735411059031
1.1992603215345954,-1109.1496263290292,-761.7716329843497,-205.1820600709459,0.04468911461899774,-13.677570563832202,-27.604630718418793,68.28440507076485,1735411059060
0.36902803894716907,-781.6688699797712,1554.5825517078754,-69.50805036835465,0.04298673440193262,-27.461469134137896,-29.161685661975305,68.49438086873676,1735411059091
1.8532707378465232,-1020.9124739006681,-113.53198417684229,-339.4160544681655,0.058313095099734105,-7.63515446493585,-32.17787920652441,-38.44112350615363,1735411059121
1.489458798999366,-1421.7315896420744,-222.12563520225524,1459.3894220131947,0.0657136839510124,-68.19380117400348,2.91367134764541,-32.15137135196118,1735411059151
2.0085439343918177,-939.7320736150443,-1354.8885544580737,-642.0111365688883,0.04112597387845887,-66.1060001641631,-8.01595441110593,-11.540108617930377,1735411059181
3.5653936304617337,1486.6674197819964,541.7526878338639,1324.6889529101536,0.015264670583500721,-4.74605418870124,-0.1058344550488215,-57.323329546246676,1735411059211
2.1537553972866004,1278.025781895214,2349.0453433849193,1184.327986261766,0.04585058969229583,-29.181863084825423,-8.30851282635654,-3.549748388321838,1735411059241
3.663879224052372,1842.2390835706553,1612.0295318325643,492.62464227809505,0.02757938133750626,44.45667223061861,-7.236186802859333,41.85887378937072,1735411059271
2.6811371911504245,979.2552005236572,1338.0626392179308,1465.5556544081087,-0.005755068427773707,-15.317510512961158,3.9192392434009973,11.601263928092562,1735411059300
2.2159538901044913,-1408.7382734919786,-100.61504079628548,-498.27210237508075,0.03358908866346408,-35.991302205557986,-11.415574428448846,10.450296321487007,1735411059330
2.6216438808752516,-1947.4913164961154,-1478.2368841190937,983.7941132204116,0.07384437315382797,3.938499974072357,-34.28296386156619,-95.98463756207082,1735411059361
1.3509809739468344,-195.55689132898294,-1449.112688659021,314.34862038572606,0.04110926394644553,-73.64028259922765,-18.342355083730787,-33.44638506251434,1735411059391
1.1491711710245403,-2221.72967648789,-1792.2861656745706,614.6854925413436,0.03470643198921281,-44.799786195192894,-3.980056591669431,-32.844885857393336,1735411059421
2.2153366112317974,-1778.8680132143977,-714.3591774411759,1333.896815822068,0.043535150353794905,-7.033002938545026,-14.546157711028501,-4.783005601534391,1735411059452
1.794082711737048,-801.6751286549882,-1111.8212177387645,-186.0757541130206,0.0316271595214825,-7.999382620017556,-2.466460805200632,30.03710289342354,1735411059481
