Acc_Betrag,Acc_X,Acc_Y,Acc_Z,Ori_Betrag,Ori_X,Ori_Y,Ori_Z,Timestamp
3.3974023733857637,-167.33137145742384,-1030.151036803965,1769.6518856820608,0.05094516505762773,-37.46820047450161,-2.5672523781798198,-60.19433788965857,1735410595105.0
1.9826228925101046,-736.9852130345748,-1125.6612261874807,1807.1705939121064,0.05917397287154611,-21.784696118496214,-5.245056242574143,20.11684773668692,1735410595130.0
2.552125908576176,564.9072514207672,-1623.9057302507465,1428.9025271854566,0.02747195741654758,23.905608136326144,2.957157141011086,16.802056172597872,1735410595160.0
1.2593566257520368,104.73095063001426,-993.46162791034,-976.620981301296,0.04555974772765442,-9.887502075104543,-14.216843615388198,40.22265262764783,1735410595190.0
1.6967852683511755,-1100.4230024832755,-360.2869762870024,-286.5910311121487,0.022141460385731563,-20.180144705011415,-29.506604401466447,-33.65573974270485,1735410595249.0
0.5439819609463046,452.747100832821,-414.43730260072306,477.5924070090098,0.03532091792409853,3.1411376854203112,-5.900678488789536,30.502897294734904,1735410595280.0
0.20219154360986313,681.5342954184417,-625.222252645488,1789.9417224223782,0.04401741806272693,-18.723601270085734,-4.570796305712605,-26.02930619377188,1735410595310.0
0.5226086368955078,909.6981909944899,-520.2529539229724,1913.1502293208673,0.07004419047121864,-55.08651978153401,-31.61937286829727,61.738178104810224,1735410595340.0
0.6597693922576893,-853.4871858364309,472.2097254264139,-373.1280849342029,0.041140514144952844,-10.921814207245125,-15.717979573338255,-3.595728642498777,1735410595370.0
1.1687952136838282,-351.943752110785,-436.8535192226411,1570.0153529963309,0.048274219582950285,-42.477073560888044,-3.4750017437885514,36.129454730166,1735410595400.0
1.3401092805714574,754.5895854934381,281.17481225562665,302.41991208449775,0.046730350825876454,-14.968862382329558,-37.021205752845646,-17.669148553211897,1735410595430.0
0.9201978970327017,-1435.5304227842066,-818.8806154142775,717.8925630085536,0.03745378736827113,21.466535109816817,-13.868836408555154,-22.730739214023952,1735410595459.0
0.6242438523464101,110.82786160365725,-633.6102415715945,-161.17372853446784,0.06557757232150452,27.207704650445606,-17.244933867775906,39.73923962289532,1735410595490.0
1.4895576501600039,-1033.5001137809702,-46.258876338523635,-1369.6879829738,0.05249299057006048,122.74949048353197,-18.012815556918405,-20.69012816633942,1735410595520.0
0.757355189786917,-1096.572818191642,-1332.5033195675885,-1696.7464876972479,0.06401596469396566,-43.3709259735157,-7.102852655946846,11.039886013483489,1735410595550.0
2.3540857376050437,-1083.4482430294074,-897.5217280221202,1633.649416497015,0.0428910495649972,37.96653237383254,-3.350351525673677,-24.44806801964566,1735410595609.0
1.5235669116094956,-170.83581104216887,-354.2415583759267,552.2308874670921,0.0435876504102067,41.701221204586396,4.583399146672359,-35.07316314343312,1735410595640.0
0.6792249244462165,645.1959157855823,524.5885409345912,691.2150093428277,0.06201965964772864,25.391355293167017,0.26187337471032546,31.10137814140964,1735410595670.0
0.9507140254561302,1001.1235396137447,973.8441500209237,-1608.8339144505196,0.034326901015777886,20.550466555242828,2.59375831663478,-6.902361661548756,1735410595700.0
1.0568884013599484,-667.5700060276555,-900.730615623592,-938.8041641735316,0.008542693224737212,15.666791629066935,-11.238760355071449,9.820702787547571,1735410595730.0
1.163532143125821,-516.4575775536821,-82.07159919933471,-1882.5353548382307,0.037410136612470724,47.80405503305008,0.8200576048940977,-36.46478983463914,1735410595760.0
0.6634732314138283,862.6054605407461,104.00634337922818,129.91645585889455,0.04854615465017359,29.013215362058865,-6.441664098451016,4.65615849559687,1735410595790.0
0.21238121550655603,901.6580082046789,-1202.7303132505374,-362.87140551071855,0.03191236189313734,27.215340069720604,11.671545644998792,41.8513223529132,1735410595820.0
0.08225720024513833,980.4044552142736,1192.392825461668,-898.2771787987625,0.039009147801503774,81.19036810619524,19.377296099284543,-25.65489682257846,1735410595850.0
2.2038043338007065,-956.707907704662,-379.5763540534098,2064.2456681193817,0.04993394382971582,50.82448955114093,17.1083606726719,-12.052097826870796,1735410595880.0
1.120089918177688,-1892.0525606010467,-1119.4667062932558,-745.382638494126,0.041396705121159734,14.24201763029967,7.97068004546322,-4.440802534771237,1735410595910.0
0.8489110740070918,916.5481088676381,-1600.207190960616,1787.48125894806,0.02951300147759319,14.221605933771343,20.34341409214634,31.449272678425444,1735410595940.0
1.465626169574087,-809.7682505861471,-379.467619920164,-1162.0071322100848,0.05056447105528737,-4.448838352875935,13.76973552271231,85.48022537593172,1735410595968.0
1.6909010452056294,-1328.996562045521,170.63023205752887,-1928.7165240518173,0.018214994537627476,32.25767360050188,22.53192705305058,-24.21251673128902,1735410596000.0
1.7116623652471263,529.3320499275175,559.1118724327736,-1221.1580349842225,0.04056241334446584,-8.038772802624912,22.673819137459482,-40.28641325476171,1735410596030.0
1.5819826723977521,34.65053684789058,1822.7381453276396,-824.7863376649312,0.04711868984714417,-10.342312126077417,3.572752693324782,-54.9112844403455,1735410596060.0
2.554619511706996,-395.7277368057474,96.86184831842843,2469.2668958342606,0.032889088406953274,35.78482358799675,20.998895946674995,6.9913610151852,1735410596090.0
2.6250838445902227,-604.8647246376397,141.91266813365178,3051.7674141867924,0.048149800472776325,36.539671084225816,5.198897646554236,20.120544247159607,1735410596120.0
2.3678217050123327,-2054.1634846255056,-1913.6111868512205,2265.0990481551657,0.049388634078633885,-0.9607559170155469,32.138194422444975,50.46447204757561,1735410596150.0
0.931363055876418,-498.89357905181487,180.2511215658398,-684.41755342566,0.024723136768496353,-4.187205439338303,19.725908219565312,24.34653477267815,1735410596180.0
0.23740481482265652,326.8462849914022,-481.18233653960544,367.52353209653427,0.03867190474231663,4.199753439402556,-3.995281685554838,38.69320409591362,1735410596210.0
1.1020946198086854,-210.25828926610083,-488.21609529304874,-1149.771912378288,0.061695693739269114,23.596578487275654,16.873894833238623,-57.248064269820375,1735410596239.0
1.0445804388560882,42.53038903428259,-834.9698204723725,-1267.609456176639,0.052520277147390285,48.20540316267673,28.07345064352986,-14.155783862900284,1735410596269.0
0.21274012788731644,-1247.6172956355233,735.7386414777532,-746.4409353142825,0.02328857294879236,69.65110859381298,26.07171213521998,-39.06098488968252,1735410596300.0
0.7326975639349681,-294.9640853460512,1787.7145037396676,-602.9885350029554,0.06988338772990943,46.44290423289769,9.785136011258903,-19.532192208723,1735410596330.0
1.539205885076246,-951.408369279105,-1083.8377428685794,930.2443936109019,0.02278941424826928,30.825324827348265,12.655693245093564,32.66821305347096,1735410596359.0
2.9235917394052056,-1575.5278785798587,1585.2893908684136,2891.258955932452,0.031683981215731086,65.2432839889484,11.667956844056171,3.3415587654671954,1735410596389.0
2.4904721281841056,-604.347457745703,-1410.3531344682779,1725.4625227180165,0.04164523845628616,81.08430432035237,12.478938805790367,27.762738445923652,1735410596419.0
2.566139433887038,-2043.8286931207535,-1673.2936438133622,1717.240886912367,0.041390113428764974,18.69399457300243,23.79967507893707,37.576661133126315,1735410596449.0
2.430934549867681,76.47333377759742,-1365.1916374494865,-631.8013317349837,0.021848927874589363,40.05126641274731,14.878945313477502,63.76588690469602,1735410596478.0
1.804218646843279,-924.4438251346608,1389.7169911467884,-951.9244634950606,0.036130390724006714,49.97598049064603,13.032015096358958,-18.43796574352782,1735410596510.0
1.902372207780516,908.4220694954399,211.88212128880576,-619.0391348423352,0.03567618077554309,2.073573279949148,17.963571993821166,-24.626854356406884,1735410596540.0
1.431594836435557,-872.4240474711269,-448.222562464435,1581.3368898557515,0.02834278177316394,28.421598964255896,10.80986667007314,-15.73340515341162,1735410596570.0
1.322987092099453,1063.1865396051862,-979.0058722898228,-309.268973784041,0.020294855123031343,20.83190270232547,6.820311244351255,-30.84827883020301,1735410596600.0
0.8643112285060706,1661.7570561534028,479.53900825914775,-895.0278078957908,0.04566157900867503,71.57386798799638,18.583467397078838,-24.583886956986394,1735410596630.0
0.9666086846069164,-1898.396988870127,-1209.3174174805795,-554.0624077490663,0.036185899238242177,31.38903568894714,15.012412596143008,-4.247561358585405,1735410596660.0
-0.550247948481124,-2247.3133650431214,-529.1562216909649,105.68379651234761,0.016631539750362766,2.549856718827602,21.61160905358781,-34.678395095041225,1735410596688.0
0.5535519216179763,-1596.2963353110795,523.1763669983259,649.119791992509,0.028628376678837206,49.715776541421825,10.377809263080657,-23.34094822429615,1735410596720.0
0.6173932465924079,69.28268960120249,-2498.1737053242155,807.3763367867197,0.04064369094387638,41.42229239283119,16.04185521677664,-17.053007561593116,1735410596750.0
1.4962238003382555,-150.7466963866969,-484.8717026137422,-1436.1096895179585,0.046583542187345756,1.454582601629136,8.224380054099644,-49.49714067364495,1735410596778.0
0.7518784683251857,126.42001973029315,-274.85056280967046,-1352.7808523796505,0.046929843342451254,-17.301967461199357,-1.3528128974441684,-69.16977168151435,1735410596810.0
1.6088361720977702,-25.783847195975,45.290690766151926,361.5203154136018,0.05715577546194309,9.468121114556755,-2.353471933379086,-24.592959538094195,1735410596840.0
3.03951416663832,-2229.9425234550667,-1995.7544326110522,2045.1376516869498,0.059212081293110855,17.57426975305612,14.894079177690468,-10.796509435864497,1735410596870.0
2.1285805336214723,-1976.4724131346934,-1238.3104202045238,1698.0316318561167,0.025376150267846852,90.41651097610111,-1.253323646116705,-41.96278386545704,1735410596899.0
2.8345937313052247,-1320.8394658890197,-2134.4242359963487,1303.4066155133341,0.03375416063087906,68.93219197631589,-1.3951835783372175,-39.9830303641209,1735410596930.0
-0.04687527633179478,-170.5659713963522,434.57731502821696,-512.150158496504,0.010240488725123391,16.64234282800389,33.83304292958044,11.037230602914747,1735410596960.0
1.1654168008037216,563.0349672150624,598.0542260735732,-561.870031230221,0.027604790474495888,22.81521014275318,0.4608724511436231,2.181549961475376,1735410596989.0
1.2084540592385073,-148.91502111217494,-1070.720478983755,-1965.244349744214,0.05054529599196999,34.154554341328264,-14.359615305063064,-49.841647284443404,1735410597018.0
1.3351769583815203,248.8379034423242,484.1260304242825,-1258.506542387918,0.06298840241962725,2.603333006178964,3.0810412412136117,-45.90195385516042,1735410597051.0
0.19756233543738824,-75.43812059011154,18.72492657167558,-111.67106718484843,0.027110706985446917,21.518871309235085,1.2718124871866365,-41.42387474442243,1735410597081.0
0.5469416720516784,-225.663518469783,199.19293944056045,-370.213285831796,0.060879048865581625,53.580384941639466,6.53967555009451,-60.5790704528864,1735410597110.0
0.5038199434506263,1390.73128105134,-211.93287066776293,-267.91454961149384,0.028773001398626735,2.3507726049335815,-5.246622229196335,3.6263311921168366,1735410597140.0
-0.5161729329709659,425.2258578891236,928.1003916377683,-1076.3084084394413,0.0636904664082858,-6.740786454538551,10.844666966465194,10.455288186461274,1735410597170.0
-0.0912622492345393,105.52970744675463,-263.45366514216994,347.1546129798964,0.03484761977571094,63.36887818728722,16.26183747925174,-46.94353353448244,1735410597170.0
0.7086572556302053,257.6746667314061,-1455.9953886662004,-1227.5153304346566,0.041371777786501036,53.499833554250685,12.126962756117093,6.556819395567235,1735410597170.0
