Acc_Betrag,Acc_X,Acc_Y,Acc_Z,Ori_Betrag,Ori_X,Ori_Y,Ori_Z,Timestamp
0.4437199623609637,-391.4950311011043,-1143.30256982141,363.1516118807494,0.061144352641324555,32.207807811812955,-5.8002716975870285,9.897807001130833,1735410729233
1.4481864436894405,-1184.3419769047923,-296.1265795196583,79.50479416285576,0.040093230197230365,-65.43962007243071,-27.25030733917813,-25.723038366848826,1735410729263
-0.1008301919041632,-740.6458948911162,-510.6414939103933,-674.9214991989961,0.05684752717815911,-46.34181565363207,-25.945103463747667,-43.50382198654359,1735410729292
1.2257418504984847,-919.0219110605764,-340.50574652782166,-1223.5760039836464,0.05024311382848447,6.4778935720315225,-23.081444263567448,-16.29034231415202,1735410729323
1.5257136792126114,1873.0634659593572,-1656.5210534976277,191.2887895490761,0.03847558195659066,-8.652317210183035,-12.49788369164523,66.35252805435559,1735410729353
1.768193322153975,377.82604087851837,-1205.0871256387102,-1403.2995257133407,0.027889543519331313,47.518249786941674,5.846852406245637,3.8305183784361034,1735410729383
1.8378605397739542,578.4348846471883,383.8063262550111,1394.4449992795758,0.03659924106276316,29.33084516038059,3.940854870378539,-63.775113558148504,1735410729413
1.3708946341455115,-895.6039145256539,-1134.5945506479836,-338.4499733789511,0.04608123822547096,25.866671809697507,21.88348628081657,-8.290899355840521,1735410729443
0.8138958501765078,-404.43465483103046,-1265.592011275603,-464.1966047349363,0.00851911925810605,-27.519116944518586,34.055270609177796,5.598904576283159,1735410729473
2.65219601224749,-189.26751933237836,-317.73224719777943,719.1600612969704,0.011103965160581424,16.886972768366842,3.5087323929318726,15.22886392729569,1735410729503
0.8088693822636126,-907.3337820239733,-1144.381194074872,-162.33979015457032,0.023958630699237853,-39.067442634494476,23.214430373813446,-27.4397368478309,1735410729533
1.4781355602852397,-118.97771530342965,1056.5373576625657,1181.6400962624834,0.029818456057537465,-31.689511961120033,21.81852616747487,49.85824816860123,1735410729562
1.27072586507773,-1472.262442919031,-773.2987114425366,6.788473436943605,0.03601360068562515,45.62796955161474,-5.560593015506202,57.25068236950614,1735410729593
1.6379307566587284,38.07374156962487,180.70341813511072,-10.980928315075545,0.043402820691794505,54.46407168657057,-12.380344283826346,57.605237347786066,1735410729623
0.4897800169685028,-481.1552340307986,-975.3203003641748,1197.9821822168701,0.0389648607637569,44.0235951872914,-2.382309761489412,-62.17849020200453,1735410729653
0.023987384971724035,103.60906686087378,589.8911690930785,-55.10939422129775,0.042976134618941224,47.81911224839944,3.8500477352084133,-39.53521684421595,1735410729683
0.7787015443039742,-1256.190326039302,344.1474863678138,873.7715103086784,0.04582683651463635,10.377681451769725,-3.609287333762282,-20.45068488707571,1735410729713
2.8059488502163874,2747.018876830195,-208.6240431020484,1519.121575344332,0.06876720039088974,32.43372546021209,-6.004085841993266,28.711389661493126,1735410729743
2.2970108095360597,2909.473036662457,-931.6389476472979,789.4580339489958,0.029725682580939806,-12.923451338199849,19.74839293467779,41.95674800645847,1735410729772
2.7000925427474445,1637.674850227879,-1422.7512747437295,-1281.0694030624381,0.009457737067525994,-29.283836566209423,18.25487083223296,-14.099710851036308,1735410729803
1.8817364316544334,1038.7649512001644,-1659.7615323889943,694.0123933001356,0.011704397185579012,10.040498898662838,24.39184502063853,-28.31908910493686,1735410729833
1.7457527814206113,2797.3789796641736,-1344.7645607465977,1583.2132912464322,0.019567873810248018,29.284731271506978,7.080219958836236,-0.8876900907540701,1735410729862
2.106558336313448,1630.7308241661867,-1207.6207077345525,-348.8461700047926,0.02594829649155159,-22.735716765168185,1.4264470233673823,-103.99474412974888,1735410729892
3.4365199170004717,1988.3495965467068,-1008.995109652569,120.66130334224891,0.044208788727720855,-43.067122557586195,-5.5896940478349215,-33.715326763137625,1735410729921
0.42517579898609853,1449.7231134963997,-1144.635046010415,-624.7640591147695,0.0007720502597041712,14.901560195601306,-10.483105122190974,-64.11128123290706,1735410729951
1.3288734410523897,1372.7480541110815,39.36028839696087,149.39439764850607,0.02049090517295277,-23.192696564272545,11.66189462246027,4.282031648957339,1735410729981
0.5107935369659902,4.170538562724354,-869.7509181029111,65.72221109611985,0.008325934634739322,31.063894434026896,19.375835909832887,-4.024809405068407,1735410730011
1.301633590376054,-811.680664617852,-1551.8543055524333,-1208.1398703731672,0.0175116124333654,28.474954853060552,19.343216534888665,-8.83892413147724,1735410730041
1.1426622300585334,329.05032750725377,-135.6201498361977,1092.932570151705,0.038109075373427025,47.91173593965614,-4.867953738076347,29.72072073991684,1735410730072
0.9327686504963515,-1217.3418784421906,-23.04243929571807,674.6313083370405,0.05076599948773708,45.9084518225406,-7.853651239160477,39.836299114369524,1735410730102
2.6588918598099864,283.7034347668075,-2.320261324695082,88.70976056151915,0.030676707652127766,9.131430327734234,0.4142161106898161,35.945562992571304,1735410730132
0.8594617627266972,620.0389847924537,-496.7679164199682,-58.0790425999254,0.023479621920231175,29.464794256012496,13.584801557569588,17.289650978801568,1735410730163
0.1780760796569305,2066.338626210204,135.6331030657774,-949.580048288467,0.013795396563554637,10.443863713085094,-3.427464849963375,-36.6297791616283,1735410730192
1.037491222518627,22.574949670054025,-785.6183287283033,-1099.2689039846446,0.04150999069272741,8.768166304838896,5.768974708931251,-21.798912276993033,1735410730221
1.6110096292550486,2727.497692391222,-1607.401347076439,-299.5760724861393,0.05104599417951654,-8.593313496724372,-29.58740155445901,-33.610412630180264,1735410730251
2.663138984129168,221.56799113782904,-948.7429162643826,-55.7586346960025,0.04237363319494754,28.491923699193816,-6.855440249693141,10.628826919155113,1735410730282
2.310173323132622,1059.6667190827047,-2174.7992032609072,-1134.737932572344,0.03312354991601142,34.98487407774889,-10.035829300709704,-41.69092760350786,1735410730311
1.4313782986594104,-918.2357371049887,-902.3047842942333,1234.6772489374139,0.021497841914166996,35.6198464867599,-8.06845305510237,-39.81821927354169,1735410730343
1.097749632306036,-611.7919223944109,-1375.806603049657,802.8321178550318,0.011071847898213586,14.50679489404937,-12.835251574279344,70.01784563424621,1735410730374
1.0026458708532424,649.7685892149768,-510.5055919935891,566.6178474304045,0.018848491821277666,-56.2462746732809,-8.480429017845509,32.15754526169115,1735410730404
1.1600398480788605,-1911.0557750586488,-14.424538652257269,893.722729566371,0.03347676129411423,-59.21117761812357,19.329311764031143,-35.89887628837785,1735410730433
1.4321257146195412,-2578.627508864759,937.0247956681487,1847.9214879759027,0.040000517547709065,46.61213704733229,13.046728713128203,-1.4898858303026294,1735410730463
1.0750291541508874,-1334.2732536719934,-365.3503266658048,-330.39376000213156,0.019069408994878436,3.716981268475136,-4.90851791739491,-48.1453368386266,1735410730493
1.290439863927231,-1951.2092705761343,-888.6422387510793,1819.378881442447,0.0405115405055734,-22.623304963775567,-15.842141621116431,63.991292076058514,1735410730522
2.226533692721465,3064.549305491545,-1714.520517671723,-305.7505678027791,-0.002894578224973441,-3.051923943500281,-4.884589129850014,-69.73754948193107,1735410730551
3.3668096515508195,1622.8700668144331,-820.1282514377122,-1222.6785689428762,0.05699845312634877,18.275632002240734,-3.96497883381147,-49.213808644466944,1735410730581
3.3894765422443296,2595.3547386958426,-2208.2402563514056,-314.17296187158536,0.06846168872958588,20.7137426424691,10.992438578651257,27.579569562738712,1735410730611
1.5591704155950952,531.203745209355,-497.23824456934597,262.68851132959225,0.03261447199814739,42.77926004953092,-13.395037677951896,41.998748676774674,1735410730641
0.8786406175585241,-1270.256787433335,-566.18665143585,325.3872615051842,0.02994684604596872,3.761014812487443,-12.051316506789224,44.069173213167375,1735410730673
1.7433635209897536,1388.623722121034,-1777.0904430000114,805.1014461758328,0.04058826096555977,66.84499705654193,-1.98416359527294,1.612988227668449,1735410730703
0.5257698669083425,1104.7736749944254,-649.6708577534406,757.5380817970429,0.019146415596199836,-5.499051061095316,6.767092225171932,13.305487897347632,1735410730732
1.1446280229022732,-1134.9508844986508,239.16936729272743,-199.9787520424673,0.04391703068628427,-14.024013733642544,22.699764959327265,91.681903525058,1735410730762
0.6774888399587466,-1939.587401497526,773.0350712003442,34.91478313154474,0.02887495792623058,26.61308877678131,0.5567992063306773,-43.5112852637045,1735410730793
1.305243717532791,-999.7983628786226,-311.26067134289195,-185.9441652471042,0.008688990969119407,34.896760133579775,4.720572864332592,-48.15523542292241,1735410730823
1.7406561650477939,-708.2447204245261,-408.0511075330487,480.2386837590568,0.07020495390126136,21.855766671188988,-4.223415690253625,-72.95715428756591,1735410730853
0.13347822458867264,-1190.254019472918,1277.3456236658649,599.2819746479508,-0.0008173295809561949,-1.9638758404982237,-2.2629877993877425,-26.559268426447325,1735410730882
1.1920442570700978,-1320.2548004560788,-1598.5807383860201,1008.5816992245824,0.0011934212438407324,-10.006613821093397,-6.888760768924813,-32.02153791858804,1735410730913
2.5961380921669157,2554.7372350517194,-1696.6800992342055,-368.07796546730094,0.03748855936922493,32.62256980560997,-3.7488769178307932,-65.93253890115693,1735410730942
3.394252947644438,1405.400213603671,-2239.8591132734186,-1320.046168940822,0.020209148327645886,-0.40989615079359965,-1.9434839426958894,43.071668700288626,1735410730972
2.5780648315223256,3020.7371709484796,-1369.3359368269453,652.4319675279091,0.026933771636032375,-10.885284862045898,4.192696769598086,22.341426488265135,1735410731003
1.0965659706705544,1564.3875518889008,-308.7229787789728,1112.4571737722101,0.02482073916111066,-17.806680959561625,-13.50264663545885,54.95682356322635,1735410731033
1.6903146792090045,113.65241129305457,-1016.6685657497178,1147.0312885128565,-0.005926263506071093,13.47160545280686,-3.452825685196414,33.952920416680506,1735410731062
0.33103553548602294,891.61122098481,-1267.01045954345,389.789413080707,0.012469069055159602,9.431941283231065,-0.26565483274146473,20.66280454994304,1735410731091
1.1103455737440668,-732.8371349650674,-771.3724830346409,455.3829591003392,0.018909782770997287,-24.329828646052828,21.219117134978838,24.505042342077346,1735410731123
0.3061197405994878,-360.1170478397055,333.3086076550936,-286.4596714734307,0.032833503746827995,5.38525417262283,17.9367769235102,-7.893716423659427,1735410731152
0.6276747729019168,177.09610278339562,-613.3042107966505,581.4383924312629,0.0486654039377129,0.3226260177825697,6.6426966878398,-37.83315480459389,1735410731181
0.5388824823295254,116.4562393798576,-1173.1268100259613,-1100.0704378064145,0.024916126173056795,17.866008565500827,0.6102295768465433,-48.48067664994795,1735410731212
0.08814265363706075,-1216.4545668681005,-119.48632250289522,155.7258978165283,0.029912575572030406,9.783748300155796,-6.15636972257133,-29.420557179106826,1735410731242
0.4203402221607993,-621.1293891029696,-176.00024039998544,1429.2676801874136,0.05012011776204661,18.819667044751803,12.682062329568307,-15.628811887400111,1735410731272
0.08314186008518343,-645.449713580939,-1090.150597356836,264.39103224715205,0.048395577977904516,14.626833928160075,9.295814469555035,-29.68435246589884,1735410731303
