Acc_Betrag,Acc_X,Acc_Y,Acc_Z,Ori_Betrag,Ori_X,Ori_Y,Ori_Z,Timestamp
1.7829782415897115,-3047.0441031054543,1539.6232323256177,1216.4447975831858,0.06951581333471082,1.1078731759433755,-20.98197318104384,8.28235754732708,1735410695213.0
0.787792107312603,1132.7443372490643,1922.8187632243464,2134.5358897721976,0.028519664209430265,5.529936836248011,5.526629792623484,39.800776536304525,1735410695243.0
1.071279850700854,-1224.9469637300285,581.4259902988648,446.3851629781884,0.011019144228760802,10.491229965863809,-15.667353793547258,-29.82373183232376,1735410695272.0
0.6226896200962129,739.9508701117098,1827.9921475776976,940.0636452308897,0.012130845165176221,-17.844979585239926,3.1190987049461194,39.593986698050124,1735410695301.0
2.3670583307187254,-1191.103125725622,647.7154749673346,-211.5424307303012,0.013239905513272683,3.8267511445639073,-3.65773650125277,1.1650064184332027,1735410695332.0
1.1391220908127782,-310.6070115846401,883.9739224169731,37.73726564643178,0.0015670180654007507,19.47781861255277,-12.066562426387506,-21.153245713453458,1735410695377.0
1.6980849049094253,-1070.3613720094897,1296.0401920813565,561.8006914786401,0.03904147872701212,-24.733264020190056,-4.508062206638551,22.00881329148042,1735410695392.0
1.5010405511233225,-371.7956806292552,2585.8006421810624,1518.7175032232817,0.03476579446008858,6.977752283310791,1.52735711288903,16.9112589622166,1735410695422.0
1.1236437765993126,-621.5382246174383,-1300.2684531993332,-184.55690119983467,-0.000993738544827729,19.570114321896902,-10.194171480121543,36.12582372093875,1735410695453.0
1.1516593994868307,-673.2576237609462,-652.332932118984,610.8768561025818,-0.0028817611094719125,-53.36237960794084,-15.051943302776124,-2.5475793629602337,1735410695482.0
1.3986424395278387,-1247.6055049046436,279.807507180564,440.09433029631634,0.011299411037652559,5.055267105117703,-21.17319030514357,17.340102774919412,1735410695513.0
2.5653458748807245,-2347.4601559174143,324.8223116856572,-697.1142115700457,0.0171216863064344,-8.368078448359613,-8.015875817169768,-2.8944811079847987,1735410695543.0
2.2886499250858465,-840.1867575330609,268.151535285109,-1959.5221217906847,0.04115484264602252,-6.5508759410029285,-7.989250205378375,-1.2504089561079752,1735410695572.0
0.8685863958280963,-2913.917353052175,266.76635000415314,174.40117720959432,0.05966986601481535,-6.7238651504246665,-10.685842639269556,-30.962245410963963,1735410695601.0
0.9904701162203609,-26.231865639073078,1665.136325311527,1748.5630579179144,0.03195545057946545,8.966535940943437,-13.381021182836616,46.00642022455109,1735410695632.0
0.7753050471082658,740.6029713716605,-148.947726516712,1616.0485100366886,-0.0002793969673860891,-28.553025420389922,-8.490103392984333,-28.54315491325313,1735410695662.0
1.7961923129415598,521.5883828086126,-1012.6062978894283,1554.0802346899766,0.006958204944271917,-32.721236063453865,13.65892824963714,-3.3040065201381594,1735410695692.0
0.5364152454199633,-724.2972406773499,186.3204476380197,1576.331512016489,0.026751338006063795,17.21063809315132,-1.464506471141366,-17.087191580152627,1735410695722.0
2.0886910398520464,-1846.3479875960295,-1335.0748060747735,-576.6809539022935,-0.014184444786966621,-21.62077983839213,-8.152680399325629,10.70091267400367,1735410695752.0
1.5407168851210755,-1947.4652359378001,1192.9411088398826,587.2230248371783,0.006035984254656741,-32.75169781247224,-24.676912248207874,8.391855487677873,1735410695783.0
0.7529087679097574,50.403977294199365,1469.932122785422,2137.6869560766386,0.04555679437779441,23.094155092417694,-1.9628804411660496,44.23662534070577,1735410695812.0
1.6877943929914325,-588.3927457697573,1424.5676335659637,1778.4549304574632,0.022375422126543386,8.536735364334309,-3.5074740829862585,15.599302432473264,1735410695842.0
1.9985455834369283,1582.4546718804777,1272.8408060222755,309.75844593011584,0.0469882882460745,15.043949306885928,1.227875956535044,-25.024741762739595,1735410695872.0
1.6417768982657341,-15.062705867429258,-1119.396876947342,391.20186816702903,0.04672908434297015,12.996167019755228,-8.132501696489427,60.11583207041994,1735410695902.0
2.135733575372101,-899.0456876520797,-353.25040998228326,2329.741052077681,0.031541430135803614,-19.881721979821258,-14.4762135577232,-32.58825927845445,1735410695932.0
1.6954964604786502,-2245.747921138641,-310.292912901215,-195.5914718848968,0.0035024451216763945,-42.211058539340016,-22.20728102542865,-22.76952594013726,1735410695962.0
2.182637320632823,-574.4651055302513,-99.08511684105304,-151.88879202872948,0.03905896402082392,-18.95650950660812,11.84911971753772,-11.061651029944262,1735410695992.0
1.0021754088866293,-580.3476631986789,990.9919440782098,791.4104523677627,0.02336400968667398,-27.1881497697951,-11.211343418127733,45.89335577763998,1735410696022.0
1.0927459901973156,-677.142444443962,312.2260632155708,1559.5063835603924,0.008381819540131587,8.20630142748812,-10.63806711047808,1.8791971887004961,1735410696052.0
1.3062360315355264,243.1224825862812,1243.7449049776983,1448.8887566651117,0.015544010151776233,-21.600383202564643,-11.8854757319337,5.604849102832905,1735410696082.0
0.13690528154233428,37.449267186852694,-514.6208868426236,1310.8879559015436,0.024239452825799736,-22.48610296100538,-12.47568236306465,-52.373196417237146,1735410696113.0
0.8794393510364695,-351.1650576692264,698.3362203735846,664.7985658640752,0.023557079639671998,16.930722205146274,-17.028506297848374,1.2432411912221042,1735410696142.0
1.2331539188640752,-549.8918786795537,-45.021405841380044,640.7639101582574,0.025391391558459583,17.79461501513313,-11.977993626722622,-23.658572698716668,1735410696172.0
0.8405466557924375,-908.0061680321736,777.2304109482989,1522.5227210825012,0.01662546219228983,3.9767902590503557,-17.471155298225256,-12.426720241107574,1735410696202.0
1.8148933545164012,-714.3382950824091,1654.504734786417,1727.07125391971,0.026955572413976236,-64.97069571068785,-7.887386864844712,38.028747176928405,1735410696232.0
1.7265338580634457,-1116.5441408769857,996.5199808712631,409.7872650561888,0.002867259101793595,-29.03899276235493,-1.7106036117123633,-5.095804401699834,1735410696262.0
1.6888175552074065,-581.4539688430375,386.07068005160716,139.61173735188174,0.0415956811286459,29.96036225438571,-14.795840375612453,-26.90146563094224,1735410696292.0
1.7742249778667543,-913.1243829976811,-242.3469578535461,807.276536459643,0.05640373169006463,-17.323451850225595,-17.802583637224643,-39.15321435081323,1735410696321.0
1.3989883179559501,-2666.023434096477,897.4350965604212,986.5111427962589,0.03527775523553429,-29.897130462859312,-27.40623379215916,-22.551005314007785,1735410696352.0
0.8094766356879828,-2401.314969024631,429.3051879937401,1284.4888114842431,0.022895297643792955,-24.84235688516631,-14.729606575317336,-47.12397511458165,1735410696382.0
2.0028844875726386,262.145570755291,1295.807438930858,646.7296727582543,0.011543169116237907,13.595082116944717,-8.890778416963727,-14.03171997846819,1735410696412.0
0.3818695425220182,600.7700963360661,727.1237887917209,73.89686773270682,0.03932423654712966,10.640754229277082,2.868997361344423,-102.48926335433998,1735410696442.0
1.382091607538111,-140.06887098209216,732.944396896221,1318.8479404824639,0.019539015880497893,-12.370351714244158,-5.165475176640345,59.502647036988385,1735410696472.0
0.9887950098151634,1136.524954610833,1691.388770908644,-372.43841735098476,0.028406635562495577,-52.33568464372179,5.022256153679896,61.89841651300975,1735410696502.0
1.991593915307199,-2064.1289094985054,-186.86486104847927,-664.8888765263605,0.06524255582463742,40.74149855571184,-10.705231514524694,81.890933334963,1735410696532.0
1.3003676515255937,22.113554525260042,1185.1111108488233,-845.2890738564796,0.005603012306218354,3.154351953625852,0.78268054502347,9.454755535754817,1735410696563.0
1.906011257534356,-888.7769467512413,921.9266385915978,437.82925483888965,0.010341234511669812,-38.040026391831546,-5.789282980244758,-26.76250806136544,1735410696592.0
0.5413696717316449,154.0708859464275,715.3961850038502,2165.0318903864745,0.019481689451401538,-27.3455339547611,-5.988762296920751,-65.22897882371834,1735410696622.0
0.925595261135782,-130.89663317800589,1544.1695543619935,886.8763318254655,0.05810930564531424,31.009040886048457,-13.751616117780657,-44.69626271771603,1735410696652.0
1.8843505318080536,-441.6984406990503,1661.337309919781,699.2937163194792,0.016923100846047277,-34.786909892691796,5.035705302056249,56.0559805765175,1735410696683.0
0.05605805365108063,3.6468243009816774,1577.1012471338436,-22.318125490539046,0.034769714479209866,9.976295108259883,-21.102113909073374,10.48670037836543,1735410696712.0
2.0680988229963675,1800.5193238944435,1029.5972330049763,279.19604685209436,0.028317361986809217,-35.84308221178182,-7.4762335535072335,5.597306899520351,1735410696743.0
-0.11744624442622964,-527.320782145306,-1029.3108594450493,323.8688704615305,0.038965326113462415,5.459068540472455,8.044858624620412,-20.55897808509219,1735410696772.0
-0.29789670630556153,-587.5480953850758,219.94447912742703,372.36935675827624,0.04667560022254988,-29.953675307554782,-5.211121712207187,-41.5642011478336,1735410696802.0
0.8462643582873217,-1479.5745109567945,255.46176352215593,123.53100712035592,0.04386721681850963,-49.54955155478926,-11.183053657395543,24.306050544556747,1735410696831.0
0.5077275360245987,-1106.7692676199529,946.4766148575312,-1092.5003207961238,0.06925287225642288,-29.876101624341608,8.650326169546386,-42.20858428024401,1735410696862.0
1.4178357019936036,-1285.231085104394,628.279270071897,624.4468306749084,0.052736178047637264,19.41585251581782,2.4603135049631604,-38.515528373282926,1735410696892.0
2.076134122806109,-404.5729784779918,1163.1437525283302,278.25698957275523,0.06757044054227737,12.35465909823147,4.7588673615271535,-72.79306042881362,1735410696922.0
2.2061759430611767,2012.2608033288818,66.9814892489585,217.9516211629542,0.04062784537139945,-50.31211966606741,-15.745006706792227,52.66320817436339,1735410696952.0
0.7824344072627746,-608.7156565619397,1401.120040332677,304.2603600491262,0.06338745572336887,16.079404671095674,-6.360818748170688,1.8677324403571092,1735410696982.0
0.6870876226396792,71.16620204510257,81.87529864303508,-851.8308922065164,0.03560659262446692,29.621804505573117,-23.827967291983644,-2.7237739377787946,1735410697012.0
1.2651954096146167,-110.61273087589524,302.41514413214685,-1102.1573904026295,0.03578915990735487,33.78560694111896,-17.76883936322965,71.42683008580534,1735410697042.0
-0.31989285640630244,-198.3885218577043,-435.3065913280651,-3.365456126094159,0.036022297586714346,-15.75238225083725,-2.248377693160451,24.905670822306917,1735410697070.0
0.9537167110292719,80.30204828157801,-1635.656607667627,-253.98364540192424,0.02736518818084071,1.8602189130988123,13.809663008472592,102.39395162174603,1735410697102.0
3.443917711021495,-1739.5804835957392,1370.4410387776059,-525.1395322994765,-0.006715986146362877,3.759128142537797,-6.4973672299845635,-6.77561746866444,1735410697132.0
3.5615084605623086,-2871.45261308023,1914.6719927166293,-1189.480754066691,0.027834943793085036,49.114712007811846,-16.071971220885814,-0.6354830875996935,1735410697162.0
3.993483673099253,-1377.7294560227815,2270.513524709876,-2172.890764439221,0.0531624042451973,71.13713126003415,-9.486461069964818,-18.454955469583375,1735410697192.0
2.1635918134857075,76.67399833530021,2280.718171756552,-1867.4429196397573,0.04528121840985662,74.08809262101687,-6.930634716156327,-23.62427325116506,1735410697222.0
3.2060911735178474,-2823.189685916688,2227.196892990296,-2405.5071806818423,0.015170417960210791,-17.5033546737005,-23.08398045009458,-43.59781037568378,1735410697253.0
3.7151508818090937,-2026.1911145850474,877.8645525520709,-614.6577335451574,0.022496751081911254,-0.6956106067735064,-3.7464336571777883,-75.9055001591816,1735410697253.0
