Acc_Betrag,Acc_X,Acc_Y,Acc_Z,Ori_Betrag,Ori_X,Ori_Y,Ori_Z,Timestamp
0.7840590525274294,-1516.289873348497,1026.4002334439201,1331.878376159755,0.05120181688214232,-4.836069219600681,-1.8998408168883953,-12.941894456474202,1735410533358.0
1.608872357381635,1390.4074239557967,1249.2970616104003,-587.5410154978805,0.023793670919391385,40.51434941224035,-20.052415979463483,9.854913747660376,1735410533388.0
0.435363978911943,98.7403821362035,580.7880456483314,771.6277637219481,0.03767966485679756,57.76075617686136,-10.453126219710779,62.14345024665287,1735410533418.0
0.7097695633479204,2952.902942452065,698.9711184659807,791.1814659438437,0.0805587169434158,-70.75880520523997,-9.4248491131992,74.86701610961597,1735410533448.0
1.5861011253511426,-347.3640047534616,830.2414424993332,357.9257803635272,0.03383871269805871,26.082210228729544,-2.315913653409087,-8.452873954738767,1735410533478.0
1.037775916240621,189.59162145306618,-1277.071406548792,-408.64043647568417,0.012022810172666735,22.140136519287637,-5.78882422989428,-23.842824655756942,1735410533507.0
1.196283323789447,1349.1542093669552,1930.8037582002712,213.6354568178774,0.028234446169336548,14.165862228091038,-10.370516783902598,-65.70787662869049,1735410533539.0
1.5117321722042718,589.8228623245486,-463.8614267954665,2087.9501570223065,0.05047110501300132,-22.578921883338474,-16.685886896407396,3.912577978580309,1735410533568.0
1.670908674243447,1749.4235540554619,-991.2420239265348,107.88629839394639,0.04492931988795125,27.80567431406515,-14.914445905768744,-9.210921308924704,1735410533599.0
1.2100490774522792,1028.306382985868,541.6041715970648,779.2098726431983,0.018176346936365887,22.591648292893048,-15.735573736134748,4.865650358341949,1735410533628.0
0.8077217607227628,-442.02645765173713,611.1977796494716,-533.4841009733573,0.045860639234526636,20.45255266998109,-10.181972946379148,-38.06494555575959,1735410533658.0
-0.3552685782241103,907.0477229441043,-147.22001759974341,677.4361398664339,0.03756464170638445,-13.011480722985555,-8.407938537099085,36.084580312170516,1735410533688.0
2.0607989007098464,68.65373883412724,-2578.3568990033727,1054.4623521685444,0.057479012672494306,-43.135349773452546,-11.662178155299078,-4.39948984308073,1735410533718.0
1.463289718484797,-667.2355572473534,-2003.883342404726,117.3744374505145,0.032280819417198035,16.990542802298886,-2.43469931658956,-33.80805539034483,1735410533749.0
2.104366588305854,-83.51526221941799,-1172.9512964483915,-367.42646741858175,0.034825953096843124,-22.158765939470783,-18.744077801536424,-55.64683083845733,1735410533778.0
1.2756531123600734,532.0195705316901,-1863.2682268415163,1522.7602762661622,0.00963465440384228,-52.707307742956274,-2.9432634252579826,32.640742576351904,1735410533808.0
1.0428242893846449,1175.6414284828018,61.00110734456574,-663.3766014142711,0.006146308208407917,34.901982671706364,-3.585501619143553,3.179570582875842,1735410533838.0
-0.08339570117825057,-68.06745118881838,-268.7672709980706,2004.4995500035739,0.031396712580685035,31.580463507779548,-3.8792824873782603,-21.02488549770188,1735410533868.0
1.0923430922920605,1316.268454570288,-594.9066243291568,617.0176674334722,0.04795872886702828,40.5951354766922,3.1589694227691885,12.937662612938752,1735410533898.0
1.03706049322712,2265.4951129012074,346.6253127732485,633.9013733786749,0.041944937578061676,-23.875109982482652,-7.952866174136155,-10.46672505764721,1735410533927.0
0.5354688640114145,2159.588058119053,465.7562779669464,834.5881924939599,0.014065373225108382,34.35782912905235,-16.150477694465938,21.923411311959782,1735410533957.0
0.9193516604126273,-821.9705297412004,637.0011355214702,-137.81756834755538,0.025799239826887276,8.17400345057296,-9.636750890309013,-23.448287441079703,1735410533987.0
1.4404637597920333,497.3058362976118,-1512.5996440865902,916.9692096557151,0.010819318576593427,-8.353848426300878,0.64852932129698,-49.29110077893117,1735410534017.0
0.5927898929315648,-819.2040133210239,-954.8401145786174,461.26340047958524,0.008668607899490265,-2.1421462147542467,-6.476928246400632,50.91512979078154,1735410534048.0
1.250413148262977,1043.018386337106,-555.7946506092551,560.1694001671167,0.03481444634990774,21.161927908540715,-9.479984077585803,52.091337500054294,1735410534077.0
1.5780052426410869,1245.9386159443634,-1733.194756746197,243.81873567329592,0.03774091870960032,25.923428552554263,-6.968328734024942,-38.323843926277064,1735410534107.0
0.5617029408662293,378.37665473172666,19.964975374291924,-96.07932693984912,0.04644980530379035,-35.68568416584094,-7.479467084185421,42.295424321580384,1735410534138.0
1.7377697896901285,391.9393699494907,-636.1718779096436,1400.6419896111174,0.019204659068252725,-4.33535514540775,-10.447089339172166,39.73759620790743,1735410534168.0
1.9498299258458702,183.05386867388825,-332.28441238844044,-1982.1320925200366,0.018455744053566814,17.202280044127487,-5.262315450254493,-0.4009889958510442,1735410534198.0
0.6584451784269816,1450.6405283852241,1041.2144728352532,193.31367433403216,0.0475506303726502,-65.1524367215822,12.348068572127442,-15.997272570360508,1735410534228.0
0.36884979132849915,911.836562216356,386.9262509476466,-666.2823850052973,0.022449659488226723,-69.89685734181572,-26.429816773404063,-52.34308109114442,1735410534258.0
1.1099236705487894,712.8027952747444,19.41294308126851,486.75919579898994,0.042378311281749216,17.161827003900925,-14.323017528287403,82.20772930621774,1735410534287.0
2.862095388750241,-1684.6251334620392,-852.0489927474677,1715.9967208726043,0.04394474820249942,-20.025421517692934,-11.406671970572415,58.278116868116705,1735410534319.0
1.8760851353269399,743.1423173923465,-1312.4537846446767,481.7329933643301,0.03631352654784632,-45.857369790675264,-17.53615590334967,0.20448569840369402,1735410534349.0
1.9040157278002474,-69.9565156814067,-2856.8228298759886,657.0498820370907,-0.02354847350169293,-34.44099021523312,13.485091450173229,-103.12888310825126,1735410534379.0
2.4736952564424817,1601.9427670150596,-2373.242122823813,788.6457897711347,0.031557559357131705,22.60350957607503,4.076462368723709,-15.89299735216104,1735410534408.0
0.39046656093747234,179.03366648479664,436.5568394879179,1217.4469197607705,0.008233506007690012,-1.7558317466312419,-8.758166156080348,8.020473660522391,1735410534438.0
1.7486121625452715,22.673042633741602,1815.0606666131523,-383.17120779093113,0.02340205444962755,5.7652560147695935,-9.217449174537514,-95.01663616042818,1735410534468.0
0.6806616783617465,11.13940750101699,1419.711874403043,918.3868804689707,0.05177372812613151,4.168638956151911,-17.262075172145217,102.19789614292803,1735410534498.0
-0.050371313084145664,-570.5500814307125,-590.676205111438,-1180.5343883465455,0.03938070068267231,0.832385385454895,-7.927092231385305,54.142059546862576,1735410534527.0
1.8212742383731735,1240.8022021156737,358.49812998954985,917.0669017899006,0.03667542794225425,-11.166476104572208,-13.06471300854133,-9.019665490033397,1735410534558.0
1.6947988691216018,1398.24321494759,-155.66135952406285,555.503174601763,0.03527369108231689,-42.74006307110387,-8.858537036400069,47.075170818275765,1735410534588.0
1.7905424748287646,-1658.9199987640136,-1543.891777543337,-8.270713218246328,0.03524558151577583,-14.001360164980456,-5.177576062774477,23.66792579259664,1735410534619.0
1.9478546442883098,115.77989817503192,-1174.5447055792138,-10.542352529805385,0.03870364942283969,-37.81941924079338,6.658497689887516,-62.67022703666784,1735410534649.0
2.2974132874404933,-420.94998258602595,-1238.2492723576988,1061.7329394604596,0.016592067177981475,-23.263643021141895,-6.861150431206697,27.217781744372594,1735410534678.0
1.604221153096144,-537.9721769722618,-2906.130648189078,437.25119354483786,0.01730822058698592,-16.488901817047207,20.085999189605097,27.708580922715797,1735410534708.0
-0.15335825847662055,-1282.4224668120257,375.13268622990836,429.18020568307577,0.047980307272000075,30.321276467452826,-9.514668116145014,-31.403819717842183,1735410534738.0
0.9481808268101076,822.5158448686097,211.84387788181218,-85.42222566492899,0.033276463839986045,-13.31949025830749,-5.633083943731098,-37.114875273498455,1735410534768.0
0.8521348194419424,-388.55819148956266,1029.6788393240654,20.767296696547533,0.041287293500273554,-35.95157918172926,13.821011898997352,64.70598479346273,1735410534798.0
0.794833952648215,815.2079401335967,1738.271463888305,786.3592939815717,0.03644184830919566,-24.155603103161695,13.195060394514236,-14.673576165880817,1735410534828.0
1.5595876587360054,1444.3938878179329,-622.4355884296118,300.9290487556022,0.04446406203465158,-76.2660793576659,1.7643022746178205,-50.912266061557034,1735410534858.0
0.6088535961162986,896.0222230960126,1959.9866473215827,986.282026337659,0.039020679183571286,-11.510695395525744,7.106942643065077,-25.664700468136378,1735410534888.0
0.4657067862265619,-525.2046332398352,-2056.2020345739784,413.9863356941719,0.018480790466886884,28.404906267846727,-4.456092736952031,-24.031158148683133,1735410534918.0
0.9184968941432222,-145.05359485960636,-2100.479293938939,1356.321449779099,0.0203675110454302,41.22173827227872,4.421338616809933,-20.922229308296334,1735410534948.0
0.18120135503412582,-355.929206720079,-947.7433180520943,-170.2838755262593,0.06211909568899905,-7.181855785445238,6.216024606082124,49.99224673576541,1735410534978.0
0.9043085875566973,-1436.1803916637784,-1187.4741689076918,1226.1423476178381,0.03753559672264248,14.168475842164089,1.2117571514806489,-39.2381285168675,1735410535008.0
0.4781656241175091,1176.2307961649858,-1782.2771126114117,656.2588902575723,0.04025768949924316,-33.06300097977609,5.829422969539822,24.240465329746147,1735410535037.0
1.2902523083941668,1308.7474936013114,531.4207154961362,1438.4780617393849,0.020975912932849512,0.9657524523357139,-21.567193985225824,25.83836160370061,1735410535068.0
1.5279421549939056,1835.3910560794861,279.0978356684865,-29.16358098386786,-0.006644303964872169,-43.45742007544683,-13.67574612498367,10.200340619561349,1735410535098.0
1.6815002809251482,39.1056152890942,71.06419952399568,882.5449936608484,0.007739488652026505,21.708873605009178,-7.640369787657999,-37.78051548840048,1735410535128.0
1.772013948505923,467.001748319351,143.4701005579135,68.64816378051523,0.03147984913933047,-10.432991749371531,18.502519832604953,53.35069521230798,1735410535158.0
1.3440653556811768,1867.8843845286035,-927.9344243364925,-523.4117886531066,0.032054045947739467,8.646826206024537,-10.273497868940257,-9.23390659456902,1735410535188.0
1.8084576960143885,-975.6848798425334,-318.8258556028551,391.6341329598677,0.06437709718366597,-12.83301952375539,9.927815413538754,39.814680262518124,1735410535218.0
1.5578348492369347,-78.84596507812603,-52.515948845194885,462.51199886940293,0.029399101988087394,-17.032166623245086,-24.062389716286408,-0.9675591533471,1735410535247.0
-0.2956998992424329,-1419.8939288503525,-228.0034521744351,71.41758581956196,-0.0029587273202069456,-91.18930068314019,-18.94218682556525,23.170958247515852,1735410535278.0
1.268988920620099,-853.9464375580781,-690.8345955012909,739.4306949255322,0.04574318635030203,23.92937294532214,20.594047863941558,68.24048580673421,1735410535308.0
-0.017062433970487567,249.0605135542947,1845.14723696198,1422.9430575788856,0.006021577324990092,-0.6291302178812206,-23.531021833929277,-40.986199160674225,1735410535338.0
0.7234897076580558,-206.93067054590563,548.4405743456786,1151.4863586375104,-0.004228598498069107,-66.47058929158979,8.990444418452709,-16.98253867208637,1735410535369.0
1.4065092794449252,1503.9349313365221,1554.0204206386345,-535.0478931222144,0.05137528965500717,11.086529452554968,-0.5770432425715368,80.23830628649844,1735410535398.0
0.44405187781649086,838.78500291205,-98.30770109413108,-449.81021856360826,0.013526121018977849,-5.411551678304275,-15.804698440507433,7.696548399459331,1735410535398.0
