Acc_Betrag,Acc_X,Acc_Y,Acc_Z,Ori_Betrag,Ori_X,Ori_Y,Ori_Z,Timestamp
0.3804560979335828,1183.7470477922623,-1468.977017266451,619.4493825142538,0.01838276215842775,14.675815634299731,19.985561751277217,0.15044456634643488,1735410973828.0
1.122045035629333,951.1840511325597,-607.9999808449713,-590.5603701713648,0.02257875256740454,-13.80058698111414,44.63663714807362,-9.586706732898275,1735410973859.0
0.5692319712496315,-632.5526811854818,-859.6504871396997,-649.206569585932,0.029922486545123046,31.47134165802567,1.9775686006535764,-28.054866740066764,1735410973889.0
1.6772885072527401,488.2244803554762,-2666.1042011382865,370.7197160148752,0.023270854631402355,-12.74357652574492,23.262872929453536,-126.45826332802889,1735410973918.0
0.42890549992116167,877.5552147637302,-284.77811007540726,540.8787818875716,0.035164410957693584,12.46068523736756,12.085043389877413,-32.30917579067065,1735410973949.0
1.4492173842841112,-39.200594984596364,-2380.3926616656927,509.59974386764407,0.03995354800935412,53.60811073642738,8.038047131570211,-19.101625875654456,1735410973979.0
1.2606477917309102,682.5120834008078,439.69013845542304,-443.0348631508451,0.04729059012936896,-63.89918906270776,30.154641783639747,-39.202729700294405,1735410974008.0
0.5373536888236614,768.6879196520325,-1530.039252733714,-891.3650600568512,0.05530235109987163,0.3564255744942848,40.61790567099611,-117.97606955913773,1735410974038.0
0.6187607159865433,2123.8368051899265,-759.844939317724,263.10182834669325,0.052573459180923585,-49.118371958809895,12.526793338171142,58.53770648637723,1735410974068.0
0.7473407632915947,2193.9750221287636,772.9932341233994,915.286649127298,0.037976544400583734,-15.742212499165442,17.23882122739238,26.405683151723217,1735410974098.0
0.7665141515159826,-1382.3885838459323,-1870.6992568483658,-493.23943693094895,0.010705294513781372,-40.1135781585469,-1.444869594786752,37.99658670573771,1735410974128.0
0.12164164599902438,1998.481383118625,-100.3181266250266,440.78867935063647,0.03513262602597472,28.91867829545727,1.0008059424842735,29.707274210013107,1735410974157.0
0.755913270088067,-361.3154194462235,-1663.2553255364792,-560.1665877480863,0.04425300798958283,24.7165915240081,10.625481157020626,8.57616422131275,1735410974189.0
0.4161986106511173,117.14863203490529,-459.7172499296435,-264.1219727346147,0.009221055371207182,-24.039476685725457,22.53926713712823,-53.87511797274035,1735410974218.0
1.4603953345384106,-81.61879860205227,-648.6388907495148,10.318511364249282,0.02332015548582741,-34.84619903123217,23.154047026274924,25.61723042785148,1735410974248.0
0.7707904152202891,-13.219827686730696,-704.5907368400259,-1193.539576484661,0.028897589056864806,-13.658401025475301,11.798556778322213,37.00376029781801,1735410974278.0
0.5922384442386236,-94.06657898243475,-1056.4299155365202,255.54982491546554,0.007054635449918417,-43.734566643273865,27.262485380265616,-23.22779158043557,1735410974308.0
0.7527766409126486,-574.9031004192191,-904.7440528830199,-466.2732238910935,0.007580686920273336,-4.106837169570268,23.57742915750407,-2.8021960699938866,1735410974337.0
0.46114528103786534,-48.23032754055521,-2075.4220953028753,2368.9523505109387,0.023147393294658453,10.751138175048599,13.92781311059273,-27.58515639495635,1735410974368.0
1.5720357265501796,1002.5273937594983,-168.06675676516227,-152.32284594212672,0.03371116861757885,24.60646163195199,19.444644533631166,-49.45696517428165,1735410974398.0
0.9365045743104278,-171.38387765658626,-469.6735016046784,54.45731171813506,0.005384493352580396,-36.76186646855588,24.461287470679025,-26.995450551769515,1735410974428.0
1.0738509424300842,2100.0995403577667,-293.01909502836185,281.5010319958203,0.044683098987815466,-31.09377217893659,28.294696411044043,-11.13647638877983,1735410974458.0
1.6787212097545852,361.9092797341412,-636.1247936413716,47.627743264469004,0.03784630142461857,-31.426381854078855,37.34443402587931,0.4651422282949653,1735410974488.0
0.47396523463515694,815.3380418455035,-818.3779229054009,-769.6606050724062,0.06781010578655386,17.361428612812382,20.387135104418153,-97.6011875876217,1735410974518.0
2.3994213284540535,970.6715069545114,-2135.073492304692,611.2600742743351,0.047551619769931955,10.856010929856598,22.711210503331703,5.551936788606433,1735410974547.0
1.622872163963811,711.4847287995408,53.05875351152838,-664.1757307606866,0.04561401255382424,-3.909499319357934,42.4882841032323,28.902684811429722,1735410974578.0
0.5223920546664726,946.9405440956721,-33.186624216072914,-746.67484374832,0.02720619336311092,-22.019390706094754,26.68189033993608,19.054373700826524,1735410974608.0
0.7080179358465277,-117.86766780622247,-855.8055474066124,-309.8848950648907,0.0663592048483948,27.050504707697115,23.040881664904585,29.088546042623165,1735410974638.0
1.41848417649218,1846.7791580498965,-481.45390762217073,340.46368202206077,0.034254014572842814,1.303960619912849,27.37997757036187,22.486995065434268,1735410974668.0
0.9995324288149139,-66.81432941609398,-2623.425777013001,-977.593855609182,0.02592720527245585,9.836794673986429,23.59339905589201,-1.5487376657086145,1735410974698.0
1.5573602165625706,-71.07612708543627,-571.8460600220129,-413.7923154648675,0.004059705588735682,-6.017247742816794,20.893478398629853,27.137976778683253,1735410974728.0
1.4249332460394362,159.2189229617358,-1036.2293447061797,21.306682826137248,0.00958322038137192,3.4004692087305237,10.079627061865256,22.88953706502571,1735410974757.0
0.46568142612632946,594.3215374729523,-906.1621037435132,-958.3865053339044,0.011277760033005839,9.569267057759799,14.245626940920335,-28.26688228080612,1735410974787.0
1.0337379585385555,1916.328851679701,-304.46840130556626,-177.41220762455615,0.039883799645189504,9.267009859042284,27.45241939730647,32.51934839035551,1735410974818.0
0.8223038454355819,1021.1875826166411,-397.68736925470466,-341.21120055863895,0.028739770094219706,-20.79785378629063,10.833599866919315,-41.7306713433526,1735410974848.0
1.4625350991487696,1637.409624894252,-840.3744483095893,411.82423608300263,0.02213346086803802,28.05325439195469,1.2521056366217742,-42.76620656924552,1735410974877.0
0.2949914958473737,419.1971272934136,-1273.4349647947386,-1018.299345272006,0.027129854325078084,21.70011048166695,28.955043926206905,-5.614051793891457,1735410974907.0
1.2074967412586797,457.3857087482728,-775.2299944203108,140.3456793944713,0.07109460186069055,4.787870884856154,24.20723392141983,-8.67438266847173,1735410974937.0
0.6179559666334375,956.1724381222928,287.0267493376864,-627.8936719393273,0.05022214278914818,-1.736796547475815,23.67346211464486,-51.44941600046119,1735410974968.0
1.3704276479129207,834.6845684013153,-316.57010128357996,-425.66068341520787,0.05519174962158415,-9.677572576905488,19.693705499505015,-72.37452457534351,1735410974998.0
1.067508309331848,1790.2818693577785,-2350.568680520305,449.2698682710832,0.04195020531259439,-8.234863635034552,37.81855516867307,-57.7495452167742,1735410975028.0
0.5160578120934625,2165.8399904253247,793.5360239625024,-143.68897494472333,0.039958025013077936,-26.779789046558832,25.76181724051449,-23.322116378736478,1735410975057.0
0.6188028457044954,559.5411396997451,-712.9521247144654,-624.0580440606755,0.04211455677137325,-7.108772502737517,36.078647198497706,76.98808216172752,1735410975088.0
0.8892738060924568,-136.29724482396728,-83.99360131101469,-338.280786521157,0.037561307675752956,-4.428523069113279,3.7807276987389145,76.44495127144677,1735410975118.0
-0.15370017272864134,1147.420922823023,-1820.7176246348135,713.5269160451613,0.03871486851715011,-17.103712528413176,12.331430187247015,12.413399324866266,1735410975149.0
2.3183281324174096,1071.8103691873189,-946.0259430540343,897.4594921656499,0.04187663599045055,0.1241824437724377,16.615370864933592,70.36888246910763,1735410975178.0
1.003939996115472,-474.51627181569825,-1856.1063143679175,192.21777193675263,0.030419737217747458,-37.9296221716614,24.97642556700698,33.58819432960854,1735410975208.0
0.7512088189807389,568.8193187566258,-1046.8705392685501,-261.3811613713307,0.03157420858023836,-15.665114575705651,11.26328270948383,-26.56479860973327,1735410975238.0
0.349591952733458,1165.9927569651206,-1817.8177817377637,-529.396089842128,0.035405848643187264,6.957606918237485,24.139137221986747,7.492504208837143,1735410975268.0
0.7467394624400769,-398.29803414424214,-2057.901184546662,149.60380476891123,0.027066692908549232,-21.440981550615952,36.72898615061777,32.43545286510782,1735410975298.0
1.178294912321407,1141.4281808278542,-735.9759150581449,1176.4551762142019,0.040227960972677314,-15.562562539454825,6.303905668245717,-0.6116255666627223,1735410975328.0
-0.5410507725405764,1785.6148666437748,-719.1254736412735,-113.358928583948,0.03251376902126109,9.42017689928526,19.42025013957962,-7.6251158535401515,1735410975358.0
0.691568727554963,-574.196847080522,-1386.3434258646123,-243.98957734409632,0.030004170829101826,63.287514278333674,24.288903895707907,35.036238887760994,1735410975388.0
1.17681346814066,975.0621457976697,-153.0254865858085,837.2626089046728,0.05598432678411246,-5.482011771603755,13.338378564178694,29.41335575551654,1735410975418.0
1.1314998315106097,588.3724991481207,-317.22993746473594,26.908391558674367,0.039983121125222704,-53.74522629965386,39.42617216023484,-14.42826751095474,1735410975449.0
1.1986407009900117,1367.1166350900507,-660.5717911488999,-945.3762623315616,0.0439093406441682,0.5318155514113236,19.410719134136038,-26.480505159883695,1735410975479.0
1.129323080710232,499.540105471423,-1005.4593537856961,-361.3796818346732,0.05018352950073376,-27.794052718649674,10.328615986241443,-35.26455809496622,1735410975508.0
1.334009316898261,2164.119536441175,-886.9011220335904,11.96303014759252,0.05305865112559628,41.95347922569728,24.878764085350635,18.557781258353828,1735410975538.0
0.9160975660760113,-700.7198437179129,-813.0610409588049,674.7251588623946,0.051697584662852965,34.340264272319494,2.6303016210217507,-92.8148557056847,1735410975567.0
1.214737552476266,1483.1329569280508,-1861.4256353622422,101.19062121806795,0.043281629872882525,-59.05895260757568,16.93519289707867,104.69398807208722,1735410975598.0
-0.05963776711140012,1864.1813191430706,-1583.3902659864018,-1027.4403196819808,0.02343268850555387,50.19931294929136,32.220033978475506,27.31753004611248,1735410975628.0
1.2161816510624823,214.25685491181247,-1690.3967020465566,-1527.2411477058315,0.06589401575486012,30.101345607734018,17.68315493874791,30.980443629202675,1735410975658.0
1.5265963811401033,1161.359038371671,-865.0047070956733,-599.3668221778092,0.03258390026900036,8.30988658487373,18.056275611338783,-0.3434958672770634,1735410975689.0
2.0376718686114668,250.21620678927025,-1559.7630506971298,-160.59387316678004,0.028170205554381017,-16.618863305340312,30.346463359205266,19.75680744628654,1735410975718.0
1.8067100431621788,-160.27694497825587,-599.042806037842,-114.20214086231272,0.0271493870795067,3.1524027014726634,6.233446639257,-5.270836839136136,1735410975748.0
1.7372972059703768,-27.238594183696364,-1974.0197932797928,-10.879032406358931,0.02518174330058704,-32.85402017583398,14.3312123493481,32.14876525409301,1735410975778.0
1.4591777392063052,-418.88489571770674,1.9982781260968068,561.5661912677195,0.029452636803456625,1.0850075561415586,15.197438409451706,-32.57222374698523,1735410975808.0
1.1926308060478887,30.973521309622697,-1502.1482039761868,-957.1419777953375,0.03200054930269512,8.527246854059017,20.586127234262047,-14.486119555386166,1735410975839.0
0.8717027773514594,957.0546111712613,-1168.5817338591098,-1644.4793514580324,0.01764066034759662,-51.00539140756537,18.74156629339857,47.22183125452663,1735410975869.0
0.752113583735864,168.1586003575287,-684.0612404505855,-455.96617227256746,-0.0066315509493357,-57.26831278051965,15.67286871175022,15.86330164656165,1735410975869.0
