Acc_Betrag,Acc_X,Acc_Y,Acc_Z,Ori_Betrag,Ori_X,Ori_Y,Ori_Z,Timestamp
0.46891338346914935,-394.57388371771845,-1343.1822269232716,535.199365945561,0.037649870136321865,-11.061740782412311,5.540698576743177,70.6470431350649,1735410614840.0
0.15240318894804722,2836.62876280138,1004.244479485088,-232.4078360160385,0.015921030167362862,76.5960568992223,20.013057828352526,13.043974256655606,1735410614871.0
1.5721765028464874,1529.3533518956854,1701.441367558806,978.4407015730028,-0.01223928062989461,6.5653401693365785,-26.14554955454992,-21.209903070055894,1735410614901.0
2.1370322002011686,1332.782422763912,-970.4934913511402,-2492.4788896829255,0.008249193723101081,35.959711073453676,1.7955611292794984,-38.01432115414182,1735410614930.0
2.710732017685887,248.30107084763318,-1790.0905208581298,-2674.607833398052,0.03342938230048367,13.655894185014066,21.997608505741514,22.487644242717217,1735410614960.0
1.581772119717971,689.2671748227024,-2670.498436337687,-781.1416587920819,0.06298070628925768,32.44103355017002,-6.7274550833110025,22.241335289188118,1735410614990.0
0.23028853642936398,335.458309293694,1193.5188700764822,729.0606848155376,0.07124697639232005,49.08289701977351,8.363158643688202,-43.255849185031636,1735410615020.0
0.5492753739844203,-178.95902665344886,-237.14023642886957,-164.58407107689612,0.05392763504213027,24.232792168709622,22.99257013539905,-65.14695822993053,1735410615050.0
0.3167158819560648,1731.3246804030166,-739.5177145518526,-753.4229370250647,0.06433351294543381,-14.57506308236689,32.148002885686395,15.169670944985526,1735410615080.0
0.717354502961297,1367.7081897920211,-393.14311901857025,645.0321570484202,0.03436658874336369,-52.22221095225564,-14.706452726144112,1.3443979949018487,1735410615110.0
1.5756996669379735,-1390.5416648963308,-598.8282875651897,-1286.4376324849613,0.049030866220480224,-54.29127813337543,-25.425122869716198,-5.4392282893122506,1735410615170.0
0.9531538846793853,-688.9523701787248,-1105.5314374354998,-805.744719405281,0.06105487927390373,5.427979078191086,-13.575498243144459,16.820502190796663,1735410615170.0
0.26277837090303513,-1400.8629297653806,-184.05767701620994,-248.1864051292829,0.05858233271725878,38.07451754220196,-13.389869107631599,39.46666784811116,1735410615199.0
1.372397929314801,84.00544144238286,-49.58126333597386,-314.83275623626116,0.047790902554953635,12.538937415378651,-2.6520539503849365,22.91179244642896,1735410615229.0
0.42325284886382564,-372.7051241901938,-254.58510043927396,-838.4749133853545,0.03279200443262177,28.91724133853565,6.37338051766441,19.818571060676867,1735410615259.0
0.8097686360021858,-1630.5928557573031,-1414.5607910096937,-369.96457835931153,0.06961654636561879,60.12888011099231,31.084482789814274,31.32086792085806,1735410615289.0
-1.0463828986982364,825.5048161538733,-135.7942755622489,-21.588495478796787,0.06581134390200165,-44.73644787056057,7.683105231358588,-27.011657518507484,1735410615319.0
-0.45450968831227373,930.0986352861955,-891.0703299246945,-12.557021946028172,0.02707196269210917,-45.17126790569569,0.932743535330566,-12.707460153817394,1735410615350.0
-1.2645919657456022,-1127.0868437159902,1461.5882942138167,367.472845924439,0.05214140182780448,-38.081292468807405,-17.800217988270948,-24.10246289662129,1735410615380.0
0.514439504397803,-382.1692704025601,60.26928880555964,467.05841306323737,0.03246406945663881,-78.82477355024014,-13.813963453708844,-17.762317882650326,1735410615410.0
1.014777177429472,-309.788730275142,-1206.3895191306005,-1076.495378565152,0.044722704924265305,-10.809206691939725,-13.256228926307692,38.67690917042347,1735410615440.0
1.8608317777945769,470.4249937701686,-1876.8984295725427,-1272.4392599623384,0.05706618666337856,-24.395266842570834,-21.308604183215117,-83.41673040069897,1735410615470.0
2.7212121561491927,447.1990471703631,-879.6566695730709,-1309.2117708711598,0.04276453776101964,-10.751182215674811,5.593993449028348,-1.0286544707259893,1735410615500.0
-0.5904114571287802,902.2251672745621,-1466.302377096171,-515.2013892914249,0.0448656877915952,14.4316053979834,9.990942648328636,40.854095559268494,1735410615529.0
0.22264907356139882,727.1765632120778,679.6426506069616,327.3698010861814,0.04332019063202563,41.400551501320685,-7.740137885665025,78.37876126464823,1735410615560.0
0.15840293395813754,-255.64305841487874,-466.3698312786739,-527.5493450026787,0.020679583137859534,18.378122133770905,-13.385663022708073,4.467202686265985,1735410615590.0
3.0977195016643657,-467.2894481015725,-1426.6591195979818,-1748.9320521334746,0.01631533123167427,-24.41401369655351,-23.744951027876013,-15.864191645652022,1735410615620.0
2.2410598842785365,671.4409726112046,-213.4725754437095,-1292.7575249192682,0.020865632402951743,-1.4771327645573182,11.90643452498535,-15.253810552872878,1735410615650.0
2.017276735869288,-19.12232081764546,-349.53162316223006,-2647.8449751036474,0.03252175906700672,-9.424067109666225,11.664027897604006,-11.609346558171685,1735410615680.0
2.153865217287877,1054.304062690876,-1579.5138027156404,-1869.479250654621,0.04015314664717526,-37.352045415960255,29.632485059621462,-62.30036760777184,1735410615710.0
-0.05205815528546709,448.20828092457725,1473.6125341084291,-259.7743276475081,0.026112357205037573,-19.045740165464444,10.57699880762081,-3.1936211080651065,1735410615740.0
0.5500314954959884,-37.431815243136384,292.6805150148763,91.88156042941964,0.047484512054191214,-29.00381904688657,3.870561146554761,30.207851135068577,1735410615769.0
0.4256368042496551,1109.500665404279,-566.8911570572745,65.50805096084369,0.0568394139584786,-14.622922607127858,-4.454168872295443,14.768954645008446,1735410615800.0
0.9530759934999316,-1635.1829269849945,244.26975179735314,-220.12946026094085,0.06963445274600408,-29.89073644066474,1.8769670847189062,35.23001349503463,1735410615830.0
1.2392517844308895,584.5571251094512,-1077.434465093386,-743.181849840414,0.05012171661139866,-33.84472817992646,-22.026206982028118,62.93064218153252,1735410615859.0
2.1529930758367675,531.87840840044,-1671.3857736166883,-2385.4418388719896,0.01567774825041128,35.739375074403114,-17.70791652637331,-44.44037198789013,1735410615890.0
-0.2223841725250807,-1008.2086108043891,-1417.2335425505498,-1219.640403283689,0.0036620745653317757,-17.392543447301154,-22.68594278995996,-37.05966593552033,1735410615920.0
0.8435217373157227,-861.9469330687336,980.7727615180399,-289.4378051291483,0.07634378412466962,-16.64355403144466,-29.78029565128164,1.573403046685101,1735410615950.0
0.7396401128981509,-715.8949443903113,-545.0780407060615,-1121.052302751294,0.04892625980478823,5.751072088461505,-13.9291355616235,6.96924793809827,1735410615980.0
0.43447229531010567,961.9850650923256,644.2997735297197,574.4965208620883,0.0350193203810336,51.454740700647605,-0.08827099513588221,3.537990172275471,1735410616010.0
0.3559531731897748,1895.0763209400639,619.2104229929917,940.8872380035582,0.05006425875095903,3.398140182632524,35.56952797308581,-3.2975382125284014,1735410616039.0
0.41894283644009334,-1770.058698105492,455.9317091506979,-575.5053277779525,0.04016754634330134,13.131518125228608,11.295410466775722,7.12873688444077,1735410616071.0
1.3008437756709974,641.1727217571583,911.7353164388729,173.90766829790164,0.02686913808074652,-40.81008025717062,2.92222500341377,-6.78483984926127,1735410616100.0
1.6058615792615796,-80.00885317082708,144.69315438611125,-1949.4751146122303,0.02591319913564306,-40.70986437011356,15.564484433771458,-2.902403331489017,1735410616130.0
2.482174242946838,281.2455442257847,-436.4247830690699,-2095.809413314977,0.029991609724922277,-55.015303150000605,19.76763146669557,-57.83780002696378,1735410616160.0
2.1917193332004956,-1132.4730639888785,-1283.6133748251616,-1816.4219958559688,0.054795657155547794,14.55688518500964,-8.080461505368227,-28.579010343253216,1735410616190.0
1.157395618248096,647.5727396120246,-331.25707551663515,-443.4243827263613,0.0712129549031176,-13.641664922348951,-21.01533251849112,-40.349662909103984,1735410616220.0
-0.1424780706291553,208.29510228737485,255.67454198452975,242.9350102457322,0.03443877668809103,-28.820946312014073,-11.23770452239685,-42.84747408343746,1735410616250.0
1.0216417486019922,3145.1183284140957,-257.6847432154582,-473.85422078866554,0.011728821005910106,-34.7450976088636,-1.4824342752337154,9.340748879559207,1735410616280.0
1.7284078501273163,1988.0238843530085,-88.48239434102015,-1824.1240600986653,0.042908853426555774,-40.08616321902017,-2.0324154694359393,40.42042938831604,1735410616310.0
2.2125373701868405,1222.810009891082,-2137.6854030706672,-1749.0368456478884,0.0611532451632812,-0.7618340992110859,-7.800098002375794,-23.715054641069656,1735410616339.0
2.3554592615056382,1424.7608141379333,741.1554704464124,-2021.2573307754994,0.05467059751061186,4.582462338829703,1.4475775109457043,-65.44976978706242,1735410616370.0
2.0335567302399427,2271.165769951589,49.27494805112599,-1275.5801946095407,0.0429443493450706,-53.05077570993808,-6.405293435399894,58.4755298410618,1735410616400.0
0.7984102907454396,1259.0968974148598,-822.4567879670277,329.87936764641137,0.04590198548953986,-56.71946460765511,-15.087701221604844,-27.037446174539006,1735410616430.0
0.7468396118820698,1676.5234976669874,142.74656548632186,-196.2618418340927,0.04789153796901505,-0.8894711476658728,-21.48662555234885,-24.94474195124876,1735410616460.0
1.3154581646750174,10.338333756972588,754.6496247501766,71.76275235815706,0.05980458273840497,22.162267208704094,7.873598135407344,9.550041368821866,1735410616490.0
2.3487842690081338,-204.4369294061567,-1681.014032403485,-1909.4299463116067,0.05379876417686854,-2.154968315540536,12.713316442179789,16.27957802702948,1735410616520.0
1.2872172404147588,373.240887024196,-2471.0450828737703,-1388.821318751051,0.03379899178399816,-83.79680858612919,1.161635934349838,-22.887085334124997,1735410616549.0
1.734320309575425,-837.9839689739557,-466.6711046450996,-498.818165208447,0.03238633866525862,3.448789961015663,-13.747089180295628,-48.37987175212815,1735410616580.0
-0.2750346290887308,802.2828129338039,364.34589178957776,-1066.266614869306,0.052825453335975554,24.464856942388977,-4.928945257170071,60.49918303765295,1735410616610.0
0.8580380373535041,527.3571444415852,517.3113100965913,312.6829094571418,0.06673880709717325,59.61552382335868,-10.368803779130221,12.590532035649023,1735410616640.0
1.5852570042544964,-2501.3323468599947,172.11047795672042,1209.8404631329597,0.054235027019102586,30.785151902406632,1.0042219702728001,-9.341152243324148,1735410616670.0
0.5803474848589423,-1727.4149213346575,-912.1235345692464,-1061.8732640069932,0.05383226459460687,-76.4681707288495,21.2347060246046,-11.303406222530306,1735410616700.0
-0.3051815085219256,1035.364181667867,-421.9830248956688,-556.3823838349933,0.08198226120053079,-67.25676738935685,21.290032473523762,46.33280810610091,1735410616730.0
0.0499932360534005,-323.86125941505554,-145.4312212658852,81.83617368729531,0.07985419233401099,-35.52522142242888,-0.9884985303122207,9.624667221522614,1735410616760.0
-0.41075410367168963,-767.536959225199,1035.3921115562111,-524.3884786086833,0.08001026503267163,-38.501944788444305,6.42475781794388,-36.97326971774176,1735410616790.0
1.7175050097823221,855.794940984384,-501.49440368435654,-1650.9788623752308,0.07658578137145818,-65.1718517587868,-3.705632703082661,-44.10491328987695,1735410616820.0
1.2698064188184413,16.185940049374324,931.259469841425,-713.3515727199856,0.03604401738863677,73.39207232862275,-8.425012597923407,-14.967539021461231,1735410616851.0
0.8520252104413051,-536.1943322953455,-708.4760253558619,-1679.4020971007094,0.07027598158650938,-6.886341863540601,-3.881229198142865,-29.66933631817434,1735410616851.0
1.210162714418719,-322.3458637742459,-1367.7205641173516,-429.096656288341,0.05365016775170313,40.58662758764792,28.246620840173954,10.916140887105165,1735410616851.0
