Acc_Betrag,Acc_X,Acc_Y,Acc_Z,Ori_Betrag,Ori_X,Ori_Y,Ori_Z,Timestamp
1.5215226486802569,2414.7032247562565,64.80973098875546,1281.6229870106977,0.04674830241396239,-2.1773764033332696,9.770429311524229,-19.5294625107157,1735411024080.0
2.235122740355083,-101.49062693873748,-528.8208487055969,-1031.2516815520144,0.04270551633066989,-38.762768055568856,-7.423623118384848,100.70521692358383,1735411024110.0
1.9734960708627962,1487.8278038861692,305.55020342015575,-880.0234334183244,0.03526459631104756,1.189573934388477,-2.313167745875975,-56.036765524821824,1735411024139.0
1.9357433852481223,2163.724061871465,-372.1212783769593,-251.16921577651,0.01843438625671179,-6.7085680205115885,22.661285098719894,-18.6264564391941,1735411024169.0
0.9548883800201983,-278.76720005028164,-532.4944509626301,927.9703500068549,0.028311691581514392,-24.934212900428296,-5.6599637451032425,-48.751459347394245,1735411024199.0
1.3365226114808384,1577.7171118484391,-1327.3646713772064,-1498.1440654667997,0.021143445919178067,33.6235504713589,8.064422772919412,-29.27393432305432,1735411024228.0
0.7981782633310106,775.9512741103007,-194.0753614090154,212.16363090859477,0.061508916869844284,9.396582666681931,17.769759152566756,-54.41815946595281,1735411024258.0
0.35694007825258167,3015.324562923999,-1666.5583532201165,-160.08669055710055,0.033447417512916695,45.419255986927055,27.841191527496928,21.060791411926576,1735411024288.0
1.81574271680068,763.7145410627661,-839.6207503592725,717.0698887208877,0.057843638851865734,8.96860491176288,20.957049029794813,81.4971864642892,1735411024318.0
1.1061723936943668,566.179947578672,751.8482382691118,710.6498939314945,0.029122931651297437,-36.99682120736829,2.593114308342123,-24.364316160158552,1735411024348.0
1.5984321510711599,714.5017376560079,-651.7502879393073,1852.851226084845,0.030232523459687535,-32.8243174669086,2.0961215095758066,-25.14219696047529,1735411024379.0
1.2144739636683588,250.5842901693178,-468.1335675745413,-240.97275352942776,0.0104329432236979,-34.16499341846381,4.255340488810063,55.23345945636932,1735411024408.0
0.8891227033251585,4048.2725427294085,39.06942041415596,362.0144590204605,0.004905549352142935,-13.552552759521255,9.922735922374123,18.54870288965261,1735411024440.0
1.1226715340914077,1480.6221884998333,602.6281690891192,-600.1230807774551,0.04940921390250442,-29.901027918463683,1.4357337970756188,-21.755706755250806,1735411024470.0
0.5182020146385247,945.8157641033713,-365.78859770252933,-736.5265955426917,0.032369959239301735,-65.94246643194205,-1.7024976921220265,-16.481251449869486,1735411024499.0
2.043330329658035,867.3610182240037,-324.42972692445164,28.09050810239475,0.04747204066133128,-37.22000681271706,3.1115789895411297,30.895365871314397,1735411024529.0
1.8607691896273657,2078.4197184448576,-1944.8840096064907,-217.21527132318062,0.06694628227699498,-25.482107217621078,16.363153925351398,28.61650361383303,1735411024560.0
0.5555964699726896,861.0107197010016,1035.576950303265,-890.3734470711561,0.07236252156626642,-51.469266446338615,-2.62270862488732,44.875908580255114,1735411024589.0
1.6191684339579098,349.3317782589388,2291.7148065941897,-94.89580451539723,0.06624879756537046,-57.35626963132793,0.5936135641813607,-49.895338632834665,1735411024618.0
1.0728051600009392,899.6397896394544,932.7338396563717,734.662345726578,0.05275819975762543,-22.658108142899163,0.5077172760494508,-31.200223390128656,1735411024650.0
0.7243430148361591,2038.3076755387056,1439.6799304787437,494.3813723318749,0.0361332091456724,-52.35396522152984,-5.204702990468447,13.162226169156403,1735411024679.0
0.26748705543572715,821.985659754316,-279.82217780871355,-1023.1794173009789,0.03943172927744527,43.13826106807724,-2.324830780770772,51.540153278436215,1735411024710.0
-0.014185562491185522,1645.9362386310024,1127.6547546615056,411.7688068423994,0.053443951180006714,57.92667067541285,22.292088422850824,24.058268615526433,1735411024739.0
0.647351966245434,-688.08467441483,-263.85651413198775,-220.34708839562657,0.07020749226108655,-53.84099252688745,21.060831172303175,57.988182341578906,1735411024769.0
0.2662866775185888,-241.0981622546285,858.433467939614,419.9943859530923,0.04411139299830192,-14.815924385978956,13.547352770780808,-10.583672997899487,1735411024799.0
-0.17567286829303919,1324.2784310441953,702.4143361809734,484.1292440601943,0.012999651442253015,-10.603504018023985,7.905410167898173,46.50089319093956,1735411024829.0
1.067940190277595,-215.0074842184274,226.39014089033347,835.8322686988807,0.04019875646835963,-34.9290039471441,21.40067746319638,58.879397928043154,1735411024860.0
1.5063721452104275,1041.4247928742711,348.74988711141566,-152.99499016458776,0.03869139169604143,-12.993295234574386,14.922804022319916,-0.9994319900251583,1735411024889.0
0.6218929618567207,1718.5254124488524,704.8463363871953,-485.05118341430983,0.042708130600639375,-35.57235105107106,-1.364914805702787,-46.43743497500229,1735411024919.0
1.761252386108331,-1643.7406275717103,298.43536243919266,588.113918116723,0.005569309166735641,7.77184085673249,6.70961173061733,16.35879915459948,1735411024949.0
0.9048746337985193,503.03741166494945,-81.89477887797341,1408.4353206432593,0.02834206340928586,-44.980816832820004,3.546436748719505,-51.29834435174449,1735411024979.0
0.4290228228533596,1436.176885836086,716.8843155708815,189.30296675081289,0.0395041482904265,20.860231380757536,0.9267199670907162,61.693401950932945,1735411025010.0
1.7328971692048896,-1033.4730547639765,1038.8067162451234,-1024.3755479268907,0.025228913326964746,-57.51670121944919,-14.631014651767236,38.76775928142463,1735411025040.0
1.0878717190356033,156.58086202890559,-519.0039623522691,815.1116410915065,0.08268841216557508,-14.348978528301476,-3.0334200186039806,-90.0382023902252,1735411025070.0
0.6430263788683802,54.98386017564076,-244.21154713430076,1004.8658282112766,0.04509892825387567,-46.99048764709072,7.457556237737584,-81.6160226196975,1735411025100.0
0.45367254223976794,183.70727369989555,651.5135959968759,41.05633311206239,0.05755423677704554,-45.97368602711883,19.41551501455251,-16.76587089197779,1735411025129.0
0.6173755169612862,668.0834685740714,964.7397918536896,-339.1453018824808,0.053831435820709164,-55.222866056564506,19.28625610444039,-1.4983613053959175,1735411025159.0
1.3864774819398205,-1332.1064968684573,841.2662072806139,-149.78429750773947,0.020009526180166583,17.076789095715498,5.29852046849329,-9.677426095732933,1735411025189.0
3.036317032318562,1411.989826307178,1086.524427886977,510.8645753396526,0.024411233562288498,-4.575823884301248,-2.08365370614844,-36.44690492461069,1735411025219.0
1.5361310111897277,913.8719196409795,-549.0476102041318,255.45966120642424,0.022882867988571292,-7.693897992987246,-8.697460788563953,-20.892918606869305,1735411025248.0
1.4731090086302445,2288.7807961587987,609.4104859498385,1257.2661212127641,0.03455671321727977,-8.568855403004317,18.346428618293785,-4.99158637998044,1735411025279.0
0.8921925933848595,-501.26637449308987,-73.4635073247498,-843.9305365946288,0.030682936578324084,-12.192152134319501,3.1554082376826638,-12.101530022612497,1735411025309.0
1.5736026420904774,-570.6860145522732,714.8459565593084,919.2700122501872,0.03156445380532804,14.707016621864353,-26.42198142108204,21.15144170117091,1735411025339.0
0.9415884063023152,447.5902148740651,-313.8758188858608,1272.2037573811988,-0.0026532296581174442,1.0290957728165642,-9.325471618086048,-38.72553837617673,1735411025369.0
2.2527279768771766,2849.96588081709,-576.7009624705863,-1843.9089153430505,0.010776495847930369,1.917878329468882,7.00742171740462,-46.59102187384172,1735411025399.0
1.5099882114385832,1217.5054854102277,169.0880582256998,-923.1531980209661,-0.03521948297881351,-7.621584155748508,-7.038694644734202,-35.82464097904318,1735411025429.0
1.3699072463071569,1369.33778609826,-654.5776231020545,183.4913200232105,0.012561549074528122,2.7617122396750666,9.281420253452929,72.19795940902331,1735411025459.0
1.8010886980011578,1945.431917811687,-323.0813793268256,445.7261115846825,0.012944221868077171,52.271615024935535,-11.890791466091285,7.588212090126184,1735411025489.0
1.9646297152446528,1137.6555399227407,169.9673943489396,-1262.5378335739792,0.053194751210616426,32.358588436121124,2.742945533857354,25.002657406067236,1735411025519.0
1.0313323098249143,1828.2917309715579,-1821.084834128925,96.84134090370476,0.08099285409502231,-42.624544537935066,-15.313862822761712,-28.870021813082623,1735411025549.0
0.8880649970553411,1322.870121358727,-863.0005487021525,411.66273016769696,0.06339968954981201,39.388181626438254,-7.326820898694956,-28.427898245922226,1735411025579.0
0.21322048942288385,516.8279824293388,274.9870049729119,37.27398219322629,0.016828900221385154,49.014419364579936,11.090862012528065,78.73239182908111,1735411025609.0
0.38811643026954523,-806.0205759143917,869.5293092892392,-103.6002583771508,0.013934549397717974,18.569749891038185,8.157981541005658,45.436972798903376,1735411025639.0
0.18088150541702774,501.3703496191651,1005.5328613052276,1504.4339354030953,0.05613397244576441,43.43847369019134,-2.033846119057265,52.267039937853355,1735411025669.0
1.4825190256366443,184.15420318227336,-465.6911474062092,251.18382197135747,0.05677154373244819,52.41227979975483,-2.7473238996221228,-15.574082266785194,1735411025699.0
1.6450121174039047,-159.27722862543055,400.8305069851773,-592.6517436688778,0.030000875964780516,54.61730897020756,-7.247641177912651,-9.170143825311566,1735411025730.0
0.6991324138949486,2008.102838473841,777.2731272490023,-1936.2845170730598,0.021124774419579235,45.26334643568726,-26.467478666584423,-47.49587809276976,1735411025760.0
0.7158038665967432,184.98523662973025,-1330.1946445265646,1395.0214202735071,0.018626759268832303,-0.2855539856991989,-5.717849785605687,6.951460221355781,1735411025789.0
1.1446551862617065,-423.272897574976,-621.3398814691499,767.8157187306948,0.013825926342994364,64.6132403400035,-5.388592856232156,-8.389361868537085,1735411025819.0
0.6975534740070567,1674.3116456101193,1529.683625484313,1187.735025582471,0.025908272562229977,47.23411047465443,-18.739076770892225,-25.5953305791401,1735411025848.0
0.6307479840159712,1831.2324763337983,1877.1092702197266,33.43220338292031,0.054901021613038066,-4.400476247478167,-12.651631238135442,25.602844181872737,1735411025880.0
1.1337489305356536,806.08319287985,-414.22909421204554,-1176.2935411907454,0.027700192698876813,39.248600505807914,-14.39422092929156,-13.339508456098775,1735411025910.0
0.5106704819869146,-607.5288978987535,816.7664707991833,1197.1249058422002,0.07174175455880323,71.6970726903921,-4.580935396113646,-4.43859746049017,1735411025939.0
0.4211260756144676,-508.3105961140752,-810.0038121134746,-698.8014616421887,0.041627431161535035,-74.4482646301052,-23.039848887473546,4.507360687892001,1735411025969.0
1.2652158619195142,1412.167637116444,-690.1946736826729,-2082.262450392692,0.03964925735031165,-36.14755841693648,-25.28440759709568,-42.57196580667765,1735411025999.0
2.1818596525006826,2307.275915974211,326.5936120693691,-2281.1574036133015,0.031065174559942507,4.432476800198088,-26.766144669835,-65.47120447184471,1735411026029.0
2.0945344270857738,1313.3922810630343,117.02628550632943,-171.63038629524476,0.04559472560568821,-9.441956737160314,1.3988189971812064,-55.10141342114908,1735411026058.0
1.37643768839966,2565.7739585045433,509.07869455038093,-1123.8453546962498,0.03636198012591257,59.06663874230392,11.563021310334486,-9.89066324197988,1735411026090.0
2.3799621463952434,278.6676913064663,903.7355977100365,-2440.9323260683495,0.038161591501794795,-0.7341762753589407,-0.763337958782135,-26.069702224963365,1735411026120.0
2.817532064321289,1131.488536954244,-720.0540409526747,-2080.620464953779,0.07112801802223437,2.0120296614839575,-26.758945909366744,-85.03013819779252,1735411026120.0
