Acc_Betrag,Acc_X,Acc_Y,Acc_Z,Ori_Betrag,Ori_X,Ori_Y,Ori_Z,Timestamp
1.6642355102359367,-570.36440037647,612.6761941705191,889.8309604710098,0.019676347254312658,-55.97753540368811,-38.67082820512596,15.256042548407855,1735410848606.0
1.1392846337632425,-948.1829376320679,727.0401851265198,221.0277980552986,0.01117956612546497,-24.828389414263604,-4.583431028029074,28.474105658491148,1735410848636.0
0.8268648998651539,57.27862271986589,552.2667172539307,579.2197386579637,0.05472597723884939,9.914431105413199,-1.4329847054561229,19.76281764272172,1735410848695.0
1.0786935224196135,1211.5113983320502,357.7354102570703,-408.2776292356491,0.026299123917919238,-4.104427406997069,20.428894108302206,-51.46283311306583,1735410848696.0
0.9496630903104122,183.38184417001673,141.53675740233467,1929.7995511315362,0.021889432047523763,1.2589050864541838,4.6555910716665565,-55.50980898387525,1735410848724.0
0.7401505774282788,493.8128367980242,854.8112381496533,1391.570888341973,0.029001011819701702,-11.290331868282774,6.588541990838392,-5.912256744027697,1735410848756.0
2.180535428635652,509.9395211317876,-1209.9331504889415,893.191674337943,0.0472387729049607,26.39686861247839,-7.248013305714432,79.4520296092283,1735410848786.0
1.5198527521952305,473.57365740116154,-226.5596096876921,517.940976473835,0.030316445527590424,-5.6974495184308145,12.65915471808214,18.64469917084858,1735410848815.0
0.6382291207123393,1271.1835523922468,-382.62272755744686,825.496185557435,0.0005774105144146172,18.521789778947404,-8.460884519829557,39.467291555525186,1735410848845.0
2.410885450790974,-504.5560332994016,372.1709328741375,-45.150082219022465,0.02833384609314589,31.680577119643225,-21.009613697078727,33.97886339851456,1735410848875.0
0.88588072946717,1134.5494904523282,382.26415137278264,1103.7465948102363,0.01034824951400481,43.63630418247328,3.1272432551691143,4.397144486413405,1735410848904.0
-0.2658530117901712,-679.3175271960513,-976.1963833893446,2166.727555663016,0.012778911879344443,-4.795188520357741,1.6023376209707276,59.06456513694428,1735410848936.0
1.004571916314801,-747.2406122595039,988.1270889176603,2390.6346227783333,0.033226445790543034,-0.8201787615012202,-6.214269203803777,66.00091991415374,1735410848966.0
0.6990893780463248,1030.9119998377346,329.309053169977,309.56452392007566,0.05711057140056354,-5.727004958190005,3.1809388630167446,10.554998196856616,1735410848996.0
1.3133358796404395,-879.3959661319366,424.3538841142577,946.8173908657901,0.02294519833573351,-10.789788642518795,11.6721670949057,9.335102875186763,1735410849026.0
1.4600611082854766,95.12652089319731,-465.5016562346449,646.8805541295094,0.021549603525824603,-12.082100594750301,12.318597063259812,-77.14817105523703,1735410849055.0
0.38357352212688267,-344.31487627059676,-837.0481496458603,814.9570965565451,0.02390638114388112,-6.881324139440878,-10.978809845041205,-0.3332211552491131,1735410849085.0
1.869324691572705,2812.862032112597,-118.45191779901216,-505.19872848375167,-8.186592275317463e-05,32.551546987167676,-17.83721658658766,63.36516102845902,1735410849115.0
1.2430287743465396,-1052.5430889198879,-138.43916498068558,753.9720559153373,-0.004664360306084508,29.01000981233047,-4.8281240427317424,16.367690864686573,1735410849145.0
1.0944282678451849,-977.0579721481422,-920.2453510621443,901.4065383604014,0.050126797799955845,-3.1209155340953405,-25.87804087015399,56.334966923653184,1735410849174.0
0.3794047032851594,-40.30224068833655,-960.4429125226803,1144.658760488527,0.036903421822010174,-7.8664559518504635,-7.508073534870227,65.28760623471956,1735410849204.0
2.1141104031299864,-405.9487445173444,473.7479847277909,1051.2550897980807,0.04079335326006171,-12.414575235838674,8.286101914568647,-36.54627225640665,1735410849236.0
1.7013271246594717,213.71678739254588,1120.7958738481384,433.8878361258811,0.04801371956799759,-12.811780352773155,-2.5531911677789587,-25.50619540741799,1735410849266.0
0.8381289131959629,-1791.2467617431387,-784.2776239663237,757.108457888992,0.0657786442249532,-9.668843995930974,5.486828012032081,-79.40391009719283,1735410849295.0
1.0335736720215056,209.09622202401601,217.97782460291648,805.6910116617753,0.03240357766084524,-19.88282675860292,-2.3836707469429297,-43.766465770468415,1735410849325.0
-0.46961022175217715,-985.9540207927041,-481.7082190331975,1191.6295293594033,0.028667295714569746,-31.616162835266735,-12.28972982364292,30.21031840382947,1735410849356.0
1.655307008885789,829.9811725039585,473.49139476315577,509.30752138850494,-0.0016141797805330135,29.101871022882793,-13.684631100962376,8.928735160774636,1735410849385.0
1.0016935772751916,1716.7415111132714,-541.5100055373603,-261.12243915722956,0.008314680881028217,-19.663590491670327,7.799125425931855,-6.035481512844954,1735410849415.0
0.8129929791734762,-1444.4035616515887,-528.421755478722,1267.735074533212,0.004510215236266411,42.97240364687911,-7.318079848713709,15.368459060955136,1735410849445.0
0.3575035171310528,-358.34814061089895,-246.67326090500086,1547.9001073949466,0.03474982107651201,-1.8286651757784103,-19.47686213198316,-3.2581856557204425,1735410849476.0
0.6677902308387866,-85.29562046793586,-85.03950478093233,1072.1041065541592,0.048682345022692114,32.069567966127,11.870469362746475,18.539751287521,1735410849506.0
1.7240385270577416,143.7967851828813,624.3381119274811,321.7056756129098,0.03345433189519189,11.203346702371396,-3.497797169543656,-65.49739182225375,1735410849536.0
2.0842617542501616,-1370.0013130117075,711.1525831594042,2062.0044200503744,0.04988573760482888,0.20658117538916088,9.950653073683437,-36.117010305974,1735410849567.0
1.8234506994433235,-1246.000048107831,731.4896256084523,-607.1660992438917,0.057326621722582155,-51.41475179610323,8.613250160080897,62.3773827946578,1735410849596.0
1.4199155065791154,756.9570318858565,1466.911632844722,423.31556431449474,0.026142889885544564,-35.5974780745527,-3.544472707258774,25.091309218574573,1735410849626.0
1.6649908922959882,1186.951518003227,-1128.9385756767642,144.1168215000249,0.04207754251928951,24.815240748083195,-12.087246041514303,72.83019807435724,1735410849655.0
0.28684197900484054,-227.63236045501554,595.9240082298361,964.9042340146555,0.0009033033022211763,-32.12489921898997,-8.338066154035797,8.01954711907337,1735410849685.0
1.2512840134747127,226.4385678248685,6.9563723261292125,1329.6503346294685,0.019732248825863535,-19.580890102156616,-13.133751477443852,-37.55901977840943,1735410849715.0
1.4112669785474141,648.2646988104269,409.4315270052132,2644.228416694151,0.0032974712032164486,12.06443746763958,5.51923089774942,41.01362216868083,1735410849746.0
0.9087014392610241,159.6909175771268,190.73751287703084,128.60257083993542,0.0033841506737498717,9.081181691224277,8.206934433963925,23.97209667629005,1735410849775.0
0.3741898102190554,-163.75128582076482,-526.1632064935695,1145.9419997398302,0.007121608144081238,23.01771072678132,-16.477748072837052,38.19512180191121,1735410849805.0
0.9266659700928385,284.8767142614476,-278.6661210908582,145.21502508794572,0.027870422228651222,25.11057082956429,-2.434629513834362,64.07994360778609,1735410849836.0
0.5604982907187599,-598.5744143585509,382.37910873356,498.12101915309063,0.02795734050050399,-21.442314366646233,16.6627800785349,67.03016411209776,1735410849866.0
0.9167339699110226,-599.2408297109503,1197.7480359703493,1060.5875044001464,0.03887873152044316,-55.802663926530315,-0.8956491098360755,2.1515907587199408,1735410849896.0
0.12143800916042002,777.5872957725472,947.9904830751324,248.865780535441,0.005059773527257026,-21.841602440835842,-6.269279717729212,37.75743825237343,1735410849924.0
1.0758097011895054,-1695.2711864287355,-1730.3130990170587,1239.281453555241,0.02909512607292629,-29.815266986683703,-9.545064476254156,44.67857247384584,1735410849956.0
1.4742768898046565,273.3701492123568,-555.9198559014852,496.82597724601214,0.03133212707911545,-5.782523884348647,-31.89934485461084,29.884573161026843,1735410849985.0
1.1238389641374475,-332.1050043283663,-1028.6774356956641,2435.1718581169166,0.027383263054358044,16.77954876120955,0.18539878932144926,-8.816021358212137,1735410850015.0
0.8598066421024537,-2356.7691401719435,510.59442348328827,-461.65866883577314,0.020187079123528677,19.039060873357233,-14.259745731771176,-29.772163908723478,1735410850045.0
0.6484569023622607,-1130.0179379180418,-777.9888705794474,2190.7219805453187,0.03169131555070238,-2.5177817750527227,6.104765391746533,-48.865682668609466,1735410850075.0
0.7759398524764952,-682.657615250509,-484.6688379791947,1111.8153877905102,-0.0007253332886931647,5.199981708675829,-0.3910253727819035,-19.87907464246503,1735410850105.0
0.8027217115261384,-178.91534357455646,179.67901710227528,1345.5443049218693,0.03647115655479834,20.924981303678404,6.166556893599219,67.48936463061015,1735410850135.0
1.8224598364795805,-613.2070371242892,275.9993106526019,1794.3902058917026,0.023879622016371893,-51.81922541772685,-8.986341181366795,-44.21873423790967,1735410850165.0
1.4124306249872403,-220.4127760069752,525.5356073878106,109.85207518300115,0.03286749762948751,5.586622223503558,-2.1999268583803016,23.663600545068515,1735410850195.0
1.0833597732769364,560.7415428317968,-1143.4567532052326,350.03923467022776,0.0402057087338309,-3.493216575505181,-21.41748498751268,-24.434619317761737,1735410850225.0
1.3483672683921706,13.395214156489672,124.64215371826788,805.6903767150889,0.06586496007395193,21.275773508715723,1.1869171998787609,-22.172863349633253,1735410850255.0
0.6005296057372599,-203.67138667377185,-1091.571968710993,399.3807319111885,0.02903437715326563,25.015433652619965,4.29451860922795,-20.196354283811953,1735410850285.0
0.756680441779056,373.7865509828156,-1647.09955305805,1000.9643156498935,0.04384252212034824,37.1173007667009,-10.084478303970066,-25.448157934844104,1735410850315.0
1.5176981472969893,-605.2750771640267,533.197653083515,2128.9095023162013,-0.015785070627974955,-0.5060424344150851,4.159908590078953,-65.07592395712763,1735410850345.0
0.8537474299504086,38.66031849798338,928.6175725588837,585.8781658909625,0.0025126633137433465,22.930750805328632,9.46750367476696,-19.301800916703396,1735410850375.0
0.8026751286332674,-115.71803265566007,83.93069240864878,451.14952814403534,0.042424134007455594,17.26843476282749,9.529632352262103,-10.727731479908496,1735410850405.0
1.6525207682413119,856.4131316173408,591.3063147248916,1167.5644444574164,0.020254414725207465,-26.74958871096247,16.334984601538963,52.661450656050846,1735410850435.0
1.378284082202074,-113.28529388683421,440.88506759093247,78.09091207625886,0.010008872901998077,23.882513356759617,-1.2530046755148128,1.5622799070170101,1735410850466.0
1.4743469378712593,1593.6427629148466,-1295.239833498621,229.88912322048373,0.025419799761550062,-27.94867443706488,-5.049288431243516,-32.29345855764019,1735410850495.0
1.2185857405558254,883.9617954276872,-440.873988704043,131.385740924454,0.047679480529547694,-3.2147528606302385,-2.023990357629686,-58.17813532152834,1735410850525.0
1.4635071978178276,440.7554270185647,-1549.8689958665502,1062.9713288379098,0.04836315586064353,-7.027537782703509,-0.25632274337085836,-28.889476230297348,1735410850554.0
0.8630359593968298,-595.8782586088571,-776.4992751492614,1429.8017727358238,0.04264359777919396,-7.7506818031126965,16.493164927854668,-65.76874284483553,1735410850584.0
0.8389595352146009,1711.7603979417847,-1268.89132359532,463.43345488007367,0.032345546841500296,9.443627475335322,8.399505215414845,59.46939594394389,1735410850615.0
1.62655324712425,372.7819007983379,-605.7962772858386,1205.441538065231,0.019072724171806527,38.92482681071137,-7.633323091728533,-70.2607570825621,1735410850645.0
0.891690742773658,-1360.5146828639502,274.87078395201934,2030.0356486334886,0.04069044027921659,6.017061491671344,-0.2539613694967713,-1.3289979146978368,1735410850645.0
