Acc_Betrag,Acc_X,Acc_Y,Acc_Z,Ori_Betrag,Ori_X,Ori_Y,Ori_Z,Timestamp
1.0266395878603305,-246.03048366397957,400.3423326172047,-739.6990613315745,0.05943369591060557,36.85819738369622,0.08644538350394959,-36.586118335513476,1735410568429.0
0.5055826762401359,1540.4508954878268,253.79855589831556,-85.09028583967682,0.05016352696252151,-11.948470008837027,-9.890558267371844,-58.377366341332575,1735410568460.0
0.715800843578597,-512.3789460917435,687.5036048993404,745.2723112232861,0.028776388922014704,55.774226535145274,-15.274206146110298,20.318205729282003,1735410568489.0
-0.22800148132690456,409.7877098200696,2038.1193629301374,-404.0546460100665,0.02580672929599554,23.811500837970506,-3.3099740437258918,8.393024971479408,1735410568519.0
1.5018943067284203,-1330.3579624018455,1070.7180498874613,556.5903976648315,0.025560793876459872,68.90581139993343,10.892068217114229,24.85413075003995,1735410568549.0
2.035761132685151,-166.39391983919654,1382.2608149303092,188.7957719230185,0.07084276217261731,2.308916035414093,-27.546107128573357,1.1541358777759587,1735410568579.0
1.5779373110978119,-1691.7216161749038,504.23720509905377,23.108180842801232,0.0371297248121797,-31.96432934976089,30.309690789958367,44.10901971220698,1735410568609.0
2.1487620994599563,1694.8135542160057,791.6506444167843,-320.89173145717353,0.06172614388469824,-7.5515311702479515,36.84688153983604,28.686758023926693,1735410568639.0
1.0807832949171547,2150.2405671161505,-232.58113869396257,-981.1560505410584,0.055691102922294684,-45.90692584293665,21.323444609373446,-10.980697412495044,1735410568669.0
2.318802649854658,1724.9094839997329,1138.853373789388,351.485175879826,0.06433191521592566,70.50803892811874,6.495919598661498,-15.695202518360494,1735410568699.0
4.0677490956361835,-1726.8740517640374,-134.1789612904738,204.73419137929176,0.034724359811220046,-41.93157285717349,16.23042542791518,-7.956034487201751,1735410568728.0
2.4992906522513634,-3563.2071239257707,2983.7595122292323,1037.3694261444089,0.028336015084834472,-61.80789364667534,8.523853984703178,52.463355609239144,1735410568759.0
2.7773226654513925,-1468.0572251434705,1537.6821191592512,-165.41425936634363,0.07986839351598689,-19.76351575261618,16.84491314390919,22.54448904502993,1735410568790.0
1.882920162870496,-626.5102369163717,494.60097344308633,323.74259155529376,0.054864735807254615,-29.624123527281366,2.1550453185506564,-93.88039373835721,1735410568818.0
2.5802053912422367,907.9312313290413,-1037.7518977081536,-747.5884031928151,0.047867807336389914,-26.828917690457374,-10.874538346245606,72.35608622272773,1735410568849.0
2.015250806387656,2869.749476423695,-2970.415429682672,80.23580754757475,0.02445852112693172,-26.438311391558457,-20.106766721110642,56.195096740071776,1735410568879.0
2.6029465876088613,881.1128075644551,-1349.7105528200495,-769.8673993101397,0.05107461085705163,-31.156473487168398,18.740622296108544,39.9108585381282,1735410568909.0
1.6173902706479706,-286.4963531602807,789.2534489761076,-815.9930952961475,0.05114322149274732,-67.15896090807185,-10.394624968936558,57.518996776774884,1735410568939.0
1.3181183537832648,-2286.8655639321714,215.53923803373914,-115.90454191312455,0.06738332455352382,-52.891111385252955,-9.041679194314538,15.067589714973378,1735410568969.0
1.9520575664470339,-1269.6817637223035,401.27192184963064,330.00747384910875,0.06260340514986647,-29.39834329330196,1.4748575544171934,51.68684965159241,1735410568999.0
3.0796578903242944,1064.408594793286,-2287.107650038054,-441.542669004195,0.06206073958146024,-53.31461035460289,11.997671336680773,63.27802866600692,1735410569029.0
2.968008269387434,254.17117639845196,-2161.1279891560935,-398.2086709521573,0.0736900285669866,-39.49033434899865,-1.686604157574358,25.94966142806542,1735410569059.0
2.9382868833674234,2383.0451019422912,-1742.5258569211499,1148.7637796332351,0.05092956015692958,-48.19327822372911,14.644632158893618,-49.533367854481526,1735410569090.0
2.102405496839847,1723.4070729820214,-1299.2919131228255,-862.657745794589,0.04984074762430119,-10.761885429471747,2.3126779395527524,-44.75242779828524,1735410569119.0
0.8751447411888752,-332.41743724898663,825.3342817705069,-208.33077769510828,0.05067342703127869,-41.230234926923124,5.888021896267803,15.139121054501992,1735410569149.0
0.869247040989747,-3122.690797326329,1952.2531524831115,63.84187893403657,0.05748857526607129,-27.297034365805075,3.8258535335551205,55.965912042996635,1735410569179.0
1.801427319842007,-222.26377284056105,-250.92149009020568,-64.23259058495756,0.08642937255317144,-25.463145457885133,-21.394969822004068,82.39102970121141,1735410569209.0
1.126975447205015,-73.8284114189691,22.610268381304763,-651.4257145988245,0.059225817651963955,-32.67604823883659,-4.632919338724657,-51.97925252182171,1735410569239.0
1.1428391898337416,406.4036473934904,210.05082340918054,272.99593794548457,0.06731244050191525,-12.446241104230563,-1.270238709815603,76.96301258391782,1735410569269.0
-0.4369482766563308,288.87256571340254,670.121978004483,84.12949422255309,0.05804749327693264,8.4361549084534,-3.361306578252522,68.26307496617713,1735410569299.0
0.8142750070801249,361.49580665204576,659.3081911375882,-544.9885864220533,0.06222190353282142,-104.2418440997782,2.0082932082841785,5.702384071789055,1735410569329.0
-0.08187425696817441,2182.407121869296,661.6623566110883,1144.9387754970846,0.05069101512515183,-32.955229627008755,6.881670653990609,39.496954290093484,1735410569358.0
0.12916235135972276,-0.31944464091111513,1146.7338673109944,781.5981436775543,0.07622004623194312,-32.791523786960006,4.1560426770387675,37.10299946646499,1735410569390.0
1.6935987391393716,3650.261526857312,-114.56674322633921,757.7177635070944,0.06780815644242114,-37.2053636114905,1.9099580283480595,57.31928449297233,1735410569419.0
2.7340975628269946,-2021.0280449081665,1389.6535464946487,-1281.7920473988693,0.0273368536637926,-31.653129606227722,-23.10290480330902,7.119482186080255,1735410569448.0
1.0439467025546285,-2119.2245801524223,1137.8595521405866,155.3058697066615,0.059471556540681925,-19.318324778746813,-14.35274444872858,-31.761770968623672,1735410569479.0
2.866492245861024,-1622.5204892997676,920.7189907811635,255.06921041962474,0.03192615230687396,24.96884325320744,-5.76163056680744,-31.020174818733963,1735410569509.0
1.0102504874633615,2365.5971519312707,-814.364239211757,711.940524836339,0.05247093742581438,0.215290637543319,-22.19320833406328,-124.0755691993659,1735410569539.0
2.7781242780198583,2122.823167175547,-175.84966808271315,-370.17025245283924,0.051285398388546226,9.709300467530152,12.532353090295008,119.09354140539958,1735410569569.0
2.201583298687662,1481.9216236238703,-2339.6040783017615,-407.1859053457375,0.05434035344241246,-51.111259139065915,0.6639274975212608,34.41545811733046,1735410569599.0
2.3865875206823755,-2476.46505850363,1915.3336320489298,1037.862617257679,0.04724609594538403,-48.350697885039985,-13.110313418059137,51.45211833304373,1735410569629.0
3.12779279336307,-3422.3662895496927,1686.820540169869,107.19524521204228,0.06387654811968599,-2.5369188954730078,-2.1619854643548937,-21.60657141446874,1735410569659.0
3.3454236646445112,-1424.563409538816,1829.8322194641578,-730.6780138070853,0.05200038803980614,-42.10730714926846,-20.090019443404806,-37.556975058345124,1735410569689.0
1.8966209501492801,-1878.0926692896303,382.1085506090594,1107.8266193522306,0.06151941917999451,24.784577077715667,-6.436929622889392,17.5640483326257,1735410569719.0
3.4471163321273064,4978.972064118449,-3007.704339888656,637.2770490001512,0.04465170705425697,-49.465073914616205,5.678482209347436,30.440340797961948,1735410569749.0
3.0655268575620607,2776.5384952766285,-2556.889290125335,1125.698449383371,0.0582688882031172,21.98825730079804,-1.2840824253083123,-18.47174362679802,1735410569779.0
2.4367791228279145,1519.4342780809918,-1453.6347700776282,2198.1831146482054,0.0479140826427183,-67.2409705825905,7.033869558463036,14.768000556629108,1735410569809.0
1.7834145049336174,-1413.9995227254199,2499.0672223744195,-91.18786416794674,0.05733241046765068,-13.482973255270906,9.921725591191791,50.63587044477217,1735410569839.0
1.393043047539456,-401.8359697120994,14.429230464896591,346.0864728208608,0.054843918463953714,-28.21965043964964,3.744445673253418,-27.432778955856858,1735410569869.0
1.7369237741452466,-2035.6193832107292,484.84027376649715,146.54586905061592,0.05472226318323344,56.603429931742824,-7.132261611578451,-28.97064378632593,1735410569899.0
0.5433156258480096,752.2986544109734,-1018.2702686694123,-67.96327777216044,0.054940527259979194,-39.386076847366496,3.728059825380737,-12.776927046442271,1735410569929.0
0.4661036755685378,144.35202827538893,819.9435137691737,1326.882248652198,0.05291927993883804,73.60468853865166,5.676123604384146,-51.184447805703,1735410569958.0
-0.07474321925498362,-1638.6445657202353,-940.0419933791559,61.63031934673046,0.04262791822175458,71.41840137256493,-9.999665699761577,-6.05496764334486,1735410569989.0
0.3286677833752837,-1803.8615568987811,-1134.3057301607823,-473.0349169165372,0.05772304537652486,61.57457440407195,-19.03764279354911,-28.276977032186306,1735410570019.0
1.4208398186054465,245.90928797474066,851.1255357787894,-144.6629167221745,0.051331107973309247,34.263714906426436,-1.3386304583132906,-67.01054454011819,1735410570048.0
1.2577455550219163,420.1932992269037,-1369.8420114913347,260.77935692993805,0.03635381143822897,52.87329674664115,11.11361427122944,-21.927837866361905,1735410570079.0
2.0096115455865764,752.1023756870204,-370.5245084622852,788.1541993617742,0.039926481094501635,48.46560100712116,4.761077847521414,36.09437948090978,1735410570109.0
1.6762798688057194,-734.0124428572794,2322.330032511645,559.8935149172963,0.0631906484973707,21.95001900285593,8.847882782899536,6.270408724976493,1735410570139.0
2.781903586299694,-2847.4877412411693,-31.39704063141562,1059.389293505061,0.02580558393637794,6.133471334375727,-5.0906984532935375,-11.684277495500389,1735410570168.0
2.796984513754472,-1624.2243763400556,1421.9212179384547,-423.066442091736,-0.001225216813347689,-54.103447921392515,13.099631624622106,50.630027385209026,1735410570199.0
2.9590833071294416,2300.6018443054704,-2709.3456103811486,-119.21484627828653,0.029812120936656222,-0.13125564394669453,10.0470189451941,-15.32705961737651,1735410570228.0
3.3975422319955073,1700.7084931018398,-1882.3128367860284,1128.1637027717616,0.06888136184669412,9.16433594282713,22.7599107547937,3.8247969563360766,1735410570259.0
2.5072834403682247,1261.403464124407,-2726.933027806898,757.9447496705176,0.03667033575644215,40.864393561221384,11.268550484168298,-23.671318638104747,1735410570288.0
3.3235993881721013,2081.6808989363526,-2164.4830577657985,-724.9455807073206,0.03915689765751999,-56.982015261167554,-10.40409955390931,-57.08901492328473,1735410570319.0
2.265429838477533,-2961.649378534617,201.37110667631146,63.1012975863913,0.03918107415617796,10.33213090971963,-4.931855469907686,-52.66089987831366,1735410570350.0
2.847034990737931,-2154.2409859175036,2241.020685541751,-285.9305145004346,0.04558155122423189,6.840538435732945,19.918167351130005,74.14816201679277,1735410570379.0
2.4304760492857573,-2974.784976605231,2261.188277607208,197.06545629782622,0.03921139921369621,4.022706271519176,11.155875886043063,49.980653516662066,1735410570409.0
2.830143272223312,-3220.8327078550783,979.6232751345567,1102.2239102538683,0.053780457616729255,-50.39522439876803,-10.574449890765962,37.53361584276403,1735410570440.0
2.652733034712531,-1961.8149638061502,2225.787964987266,-484.97205566204093,0.04830732585306513,18.0181893790985,21.49069909666014,5.636938690018214,1735410570469.0
2.806437732517855,-3022.220978333269,1804.372718323278,237.55099723337264,0.018935570848733253,-20.576847149459887,15.932140967486474,38.57251666609401,1735410570469.0
