Acc_Betrag,Acc_X,Acc_Y,Acc_Z,Ori_Betrag,Ori_X,Ori_Y,Ori_Z,Timestamp
1.4507649323170257,405.4997140858221,878.9648357531539,-1647.695676606876,0.03392862008873338,50.70856233392752,15.937846222718385,8.748843347183822,1735410869156.0
0.477535457153083,662.3026801179286,-325.212957983396,-714.5621106752332,0.04991305818716404,20.632497800199776,-12.705962252238304,67.35673112983262,1735410869186.0
1.1420537356739375,-120.47702656285338,-562.4050246147522,-826.497623735313,0.045767354748585135,0.348939325270468,-2.9272667163698083,50.735927832157735,1735410869215.0
1.0363426939310563,2252.6278619413715,-535.8832822239642,-1204.353166166928,0.029769192192513522,-34.56183619242812,-1.7342439905072713,16.527393072888657,1735410869245.0
0.933808823397829,689.7825411569909,317.4526896419709,-755.6940993497867,0.05110013161455631,-11.563064507102347,20.683423688645213,-20.976693842722135,1735410869274.0
0.19254274488082065,-37.915313326078945,-199.980115179105,170.75876862382643,0.006330712237613979,34.70296750795006,1.2329000590934243,-16.458836840527386,1735410869306.0
0.1528060211266798,-283.9395186519569,-1195.7697919733275,1291.644591166378,0.052429007144054136,-8.47473133445888,12.736334268784656,54.920686211130295,1735410869336.0
-0.5137581782516141,939.2349812372072,-195.02320038624774,-494.0322275944661,0.06875116017813764,14.411584678163315,23.901799794227987,85.68551134893673,1735410869366.0
0.6158555498279391,-748.266092521888,-1479.0325727066981,-113.69224047340566,0.026612464883707783,-19.489406766689523,21.83092023562539,7.075891110226564,1735410869396.0
1.505212242869421,-1919.6654812832573,-1240.3345727044966,747.7852835065112,0.042302947174508505,7.301634815936268,14.214683959174941,21.459650501127967,1735410869426.0
0.5849319531878441,-1278.033863762365,-740.2678017335022,1769.3967960217824,0.04107930666028262,13.35863965391557,-2.8507598842507296,77.24366998457643,1735410869456.0
2.835865761001591,-2653.3672410524578,-2220.5439446097507,-381.94002139723807,0.061355726447504734,42.284205415835636,11.865450705921583,60.06591113355471,1735410869486.0
1.435943375184494,-2651.7903273285815,-1790.935451521234,750.605042892451,0.06855748856556165,5.649389581202314,1.5516463215317913,-53.84222500192646,1735410869517.0
1.7502103220686833,-1571.8024731691332,91.03566650042512,850.5485788804549,0.017019783968350164,17.807181865137967,-0.8720404832311166,8.178673649616137,1735410869546.0
2.694973203445499,346.42024425644945,-2857.1428080074234,177.16782894245927,0.03992641993922222,-70.32961141584413,3.758745144836115,6.02338074497181,1735410869576.0
1.4713050561513359,-1241.176862193942,-1489.7459403432747,-378.69029664460794,0.028168194248447662,11.81477206431897,-3.736289963507455,7.440218526818882,1735410869606.0
1.6486752849429336,-1538.8570684064734,-1094.5681830050532,122.87632806687436,0.05594271208378508,-4.604308957276558,-3.812015232174734,-29.15894812253706,1735410869636.0
1.7039084064235803,-1727.959830430244,-1772.9733866295833,-497.6979426985305,0.052918947780497966,7.619888060070428,-5.683512497868362,28.750450946344664,1735410869666.0
0.3757104431130851,1152.5856768600174,461.9511133949255,468.9646421630574,0.040749380580174806,37.90204832051558,16.109698128461783,18.03165936767971,1735410869696.0
0.45818960409121834,1494.8514342647838,202.47647452323656,-577.1213247310465,0.017791385551430183,10.335311712545426,10.9443552149189,-67.85187004412774,1735410869726.0
0.3504254163146021,-739.8095598572128,-526.8245276315384,-1125.6619816392767,0.06437895918018964,7.629459427425593,15.406382459170057,-79.7815977329079,1735410869756.0
2.1955908993669,-220.10479993333516,-364.1596579322145,616.4760928846533,0.021300262404528557,14.64869870043827,25.753607478527798,43.46803883834191,1735410869785.0
1.291497348356569,-2129.0321363162952,1317.285894232526,-727.8992717249314,0.01575063219766981,54.608797477028375,9.812813615401414,-35.16285229648129,1735410869816.0
-0.1742591071693037,-560.3457695880373,-1331.0264477899666,-1534.7373736328682,0.03480783266733911,64.79883117373802,12.258191705020547,-18.35259116948376,1735410869846.0
-0.47327895722620905,702.2641866788401,-905.4816622182884,-471.07589866063176,0.03748071998522604,7.591129571524165,15.91384601083682,-89.97205009797565,1735410869876.0
1.6501008482452808,363.0416682790238,-879.2274499674604,-920.4793803968032,0.008613105301955134,26.891795452144873,7.719287596136823,22.36355134466598,1735410869906.0
1.451321403225564,235.53720617430002,364.2016695963426,-1.2494108482396769,0.024150430815909493,36.74004405572354,2.40221917123068,36.77349684816206,1735410869936.0
2.5245212223832496,-1050.5507366721604,120.6059786276802,-1142.945986269801,0.01169300409167029,-15.491756207564595,22.703176102750653,-31.532609285209112,1735410869966.0
0.3498494524767479,1709.264800201093,-112.1471207676633,-1388.7459551105596,0.04139846274139719,41.34960136593161,24.91233225267409,-0.560872528908753,1735410869994.0
1.0098049660201127,935.5436629067281,577.055259893056,-1023.7856395977487,0.04212877725318293,27.244976831632144,20.136930187531306,-98.24441477815259,1735410870026.0
0.5596011860555942,1836.716640035182,-286.26141515633526,-692.9360799909296,0.05970068661739688,-10.401768419784817,5.738973459428017,38.00774783711149,1735410870056.0
1.2779538532460701,1522.9029148259788,781.3107652825518,-1123.169781662019,0.07445922475051814,42.526915815419244,12.682598514362692,31.930607112725756,1735410870086.0
1.5083703277971687,782.4109048487409,437.3901965111438,102.88584877790083,0.043016147389247444,58.78637363162754,6.339652215047858,57.6101581688052,1735410870147.0
1.4499877379284114,623.4496831723205,-441.9976496238272,-476.8020643411517,0.048792109295859934,16.66305415669725,33.740397447090466,49.84599313053041,1735410870147.0
0.7199537979840556,1407.468990982115,-228.90191726668252,-482.2345279957019,0.06065337424657694,51.584799622824605,10.644060371177163,-72.45324717815498,1735410870177.0
-0.34537643811401486,892.5398498558637,736.7675720153173,-766.6216192483505,0.04795622023128846,31.121837981582885,2.08445866228996,-7.326616967098676,1735410870207.0
0.45189717018426884,621.4735224778963,99.12342121748523,353.9020780332212,0.027656485724515487,-30.05178939481062,-1.6927593811369388,-16.786692143081556,1735410870236.0
0.7656811223265572,62.762912511377095,-430.149986560816,-74.06577139500303,0.026190052045662937,57.327042713148785,9.736638637901969,-4.135052958820129,1735410870266.0
0.735445988535048,132.38420569569487,-809.1565828519233,-1265.7243142440798,0.0006666751660980193,-24.850489899479562,6.313386243494322,-7.949325306490724,1735410870296.0
0.7777163506702376,-1872.8747685544497,-484.37471345014745,-1562.7448799347942,0.046571842646209914,39.333608228192155,25.094666691839883,98.60678912761068,1735410870326.0
-0.14430413368158368,263.7772726927914,419.378838297192,-1103.1307409165556,0.0523577925835095,59.339073326041564,13.509310468996922,-12.220385900167305,1735410870356.0
1.733065846751568,-1682.8720644284688,-1740.6071704100145,624.089899568392,0.027305886297179505,62.61410636395511,0.9064309679927742,-11.095516712810706,1735410870386.0
1.4683719382013571,-1191.340522060502,-846.2793496413589,612.6722401346742,0.03458120748773069,43.01358009669164,28.50699782306328,14.243611478710246,1735410870416.0
1.0339636804840053,-1576.9094939004049,-1521.649825790455,-155.36237821049338,0.086521386126902,-15.994869808167813,20.43266050184402,13.662982988355925,1735410870446.0
2.3065061313077733,-1227.411577858032,-1185.2871705492782,502.9440310117638,0.04537891097820941,34.52103458631091,11.723417051204862,-62.39051053452381,1735410870476.0
1.3561270927212798,-288.9167509136495,-483.36948545336827,559.830274885759,0.0019097224884102836,26.525452275591967,0.11261723023113213,-41.88899541306836,1735410870505.0
1.2332048594424685,-2917.5080642808625,-56.59138428121014,361.3097602936699,0.029027036783199907,24.83496923839797,18.218421622445007,5.06961358860962,1735410870536.0
1.9256939526983008,-1562.054200480277,-1943.071174321124,-241.57956937516497,0.013407082862318825,16.460585417246325,19.34184219423083,18.538671761098758,1735410870566.0
1.6342954968013033,-1075.9648213752967,-2228.740622928691,889.4315122066837,0.017630431709903062,-56.44657185630097,33.81682297664826,-12.605186172628398,1735410870595.0
1.2902665841594092,136.97898517325962,-1125.3505367210676,-408.7085497045234,0.006717459640217159,-7.8608869680002105,-16.392473372514168,-24.199287201896517,1735410870625.0
1.8821189722068152,-810.9926474063309,-1879.9669577807522,-620.8316022577703,0.006058259958659738,-36.746723077288344,24.67472494734882,-11.265298120126557,1735410870655.0
0.69565275297318,815.6649647741103,-888.5442034532917,15.817969499354064,0.052758189373575695,48.03537339648206,-2.3468975656564846,-65.7687286018562,1735410870686.0
2.007786595392526,-951.886833901831,-1342.2438456905275,788.6291894652899,0.07255718829636137,4.607904886714326,7.650695333120738,-65.83297895475907,1735410870715.0
1.573326052217226,-734.590331465124,-1933.76922876337,-327.3718605695983,0.07776994326781947,11.98619601180802,29.990208553746523,-41.4069486335999,1735410870745.0
-0.26027712568414985,770.264318866437,-451.073775494604,760.0329212866726,0.017787598284709136,-9.305037217830442,3.7795711486198957,-11.070113421856703,1735410870775.0
-0.20996576088199304,74.19304925200416,-884.8831052722298,-223.87921635418883,0.02494045303637845,-16.544626963739063,27.659405721334345,-40.28992784538067,1735410870805.0
0.1894036375031891,665.5140376416429,-893.4492558291395,334.2130784121798,0.049569029010280874,2.710539542105952,7.969892831889817,57.36829656770356,1735410870836.0
1.6133818212765672,-107.28266514704288,241.32811063084273,-290.4806228892362,0.03708562811184621,16.537509170625007,0.7533958779316858,74.75071576162695,1735410870866.0
0.570991576609644,1202.8891954315045,2149.3629483032955,-1198.034593318505,0.015106391819063654,1.0221115264417193,-5.060876693125312,-21.980988506025263,1735410870896.0
0.25573230068098074,809.4980408173861,821.1228070654537,-1333.3918409717373,0.061117682534177306,35.199238221138955,2.393886927262729,-34.12309703654434,1735410870926.0
0.9831919867945577,613.8706938922303,721.8859748247496,-508.4383746079213,0.04523199851273737,33.29562545401865,11.886964117266984,-30.31851072074079,1735410870956.0
0.5899892949835512,968.9027363400826,1433.8197628638957,84.86631773656313,0.01216448726472878,29.537286080059353,10.42954450093712,41.93319239050429,1735410870986.0
1.5382039302916561,631.7027184718326,1101.949380056808,426.673687720021,0.03364317711717554,23.361335144757142,26.992106706569025,-49.999558928640845,1735410871016.0
0.16337508622182018,-125.06814452341825,1768.5156995112595,-913.7743856602442,0.054428540218973226,13.98887072662159,14.22828120307608,-75.39697434266186,1735410871046.0
1.9425551202237663,3079.9695198072463,1293.3358225798302,-1003.4492049135803,0.04495295449915619,14.749442779563445,23.397634435799695,-58.72938888203663,1735410871076.0
0.6587281920650679,587.5430141625104,-234.47419601789693,-774.998183447881,0.03660265790567276,61.601286554299485,2.614849283410141,-23.528065842033,1735410871106.0
0.7522559324705824,776.1938219110026,1365.5158178682893,-1671.3867869991598,0.030049730372700686,46.42662582507374,20.620682238310124,-6.195913166158494,1735410871136.0
0.3940952070778818,1581.1413114153875,-444.5511471320808,-663.4632198415654,0.0500411078847381,-5.318766294847464,28.61118977748136,-59.53691367329337,1735410871166.0
0.5707452121747287,-7.974390042519531,1549.1393423509417,-780.1958920857498,0.0270573748526898,43.92189689778168,2.9413720979884355,-32.19592190264718,1735410871196.0
1.0859870932105864,331.3664972910014,493.82253887080344,-524.2157850150857,0.03657936205626859,64.90898035852676,3.418459110158908,30.587868234646358,1735410871196.0
