Acc_Betrag,Acc_X,Acc_Y,Acc_Z,Ori_Betrag,Ori_X,Ori_Y,Ori_Z,Timestamp
1.2981002122718026,1434.5647214817757,782.4876735527648,-393.7641870891276,0.058012179422771794,43.2003058251307,4.112257400744436,66.19361412392712,1735410869156.0
0.5308151854039064,166.20823166012258,-1694.959596243459,-1310.170356998315,0.05045293573987079,16.937957613145727,16.638374666689568,44.92017768288986,1735410869186.0
1.3337109002505216,783.0362441204095,947.40478748075,329.35928327990337,0.036424098474296486,26.08053678692285,10.872195767771846,68.92320254366699,1735410869215.0
1.8934555397935577,381.97387970959744,-985.7888844125788,-1869.109842346787,0.040612697670041574,53.19105524699783,-2.889602524381722,-50.68420350170244,1735410869245.0
0.7188017740394429,1342.704510679561,1271.3474959517937,-325.20656395472105,0.05113495245100847,10.242253615504008,-10.172178133313396,-30.045912849973398,1735410869274.0
0.5023850635876316,-1124.4470926090794,306.6277983523976,-843.7304072511041,0.032061765235727416,26.668576665535813,28.5937585708576,79.72828926949522,1735410869306.0
0.6346609690207057,406.652496603107,1158.301772782207,-806.4597227889086,0.0674374318254548,80.50899331085719,-9.538509795721147,8.675315115043947,1735410869336.0
0.1722230866127193,681.3361102507531,111.92389421188312,-1171.360588811377,0.03924703043787765,51.63844589432145,8.208487788933144,52.11019381519864,1735410869366.0
1.0398932803935494,-1000.9969467554442,-1402.4213594631478,159.8035027937346,0.046407810645069186,2.0129497521561497,4.367363621264891,-52.24988806103407,1735410869396.0
1.5719383228905897,-919.2810762037068,-1535.895738746825,669.6477632529029,0.03574510894769981,19.30953605463012,27.237562562930187,-18.035231377909383,1735410869426.0
1.4619684741331385,-501.43810302600656,-684.2849954769297,1081.5265085629703,0.004856816211693614,0.15791467043521834,15.834935143739568,44.92527295568236,1735410869456.0
1.6442670109976578,-1545.539939968558,-1283.754463768892,117.54382537984324,0.05711078811217685,30.724909469777263,6.663441961806969,59.4711271065563,1735410869486.0
1.6134008506733166,-1964.7102262456663,-2090.8545081637544,-406.31036398369804,0.05988122291133124,68.50308386056965,-9.214253713765384,-105.3407498231507,1735410869517.0
2.902744139413902,-2272.8230528654153,-1227.801437822091,1111.64456232865,0.04010721640183196,-18.436095254177275,14.594549454006707,-66.83325121662881,1735410869546.0
2.4299925490037504,-132.30278146482397,81.66979322521411,189.67344405856363,0.025031878868224677,-0.8552709083092548,23.064826895953964,-41.101374904060904,1735410869576.0
1.6138272538792178,-550.6705344250242,-1876.750886303497,32.89759444447509,0.041371411879194006,-38.44596054268853,9.685872202913473,-58.9223111461231,1735410869606.0
1.4122628400350192,-665.2157330116643,-938.4813518715416,-587.7289157102933,0.06844585026694514,24.640009747317826,12.157612788968642,-15.56471644954766,1735410869636.0
1.3223196514335138,-2050.31165967842,-286.7543458210872,1023.9680960975741,0.015574072555886394,33.211577439097624,-4.826451586600898,44.663968717591885,1735410869666.0
-1.4273137523180925,1556.2912901874106,-839.8580245060662,239.1457108103295,0.01939517931681425,19.84327783680798,11.41090378182208,22.74690568928778,1735410869696.0
0.4583331485858607,-899.5609383852872,1366.3786690735046,-307.52165603691105,0.02558698014472264,-2.2981997221634494,14.216725387578444,8.644914355754594,1735410869726.0
0.618531218511274,733.2330527220528,467.45730541016337,-274.9752706804626,0.07862766777624679,47.01765469007412,24.26699814846056,-62.01648945944814,1735410869756.0
0.6964095901222744,-1980.5174538401068,1158.8242383242687,-74.56769287801842,0.020248797098463837,28.679914952950554,5.3853176844928905,-33.32281546375131,1735410869785.0
0.6992849654531479,543.2264189833722,183.81846410413948,329.4954640533841,0.027883058958725854,-17.886908021834785,18.25761613073749,-36.04335997071686,1735410869816.0
0.775076483965612,808.2703283642948,289.519503176097,-231.83739497623844,0.023254458917178075,-38.42809713374983,-0.32076588689247565,17.19263397157792,1735410869846.0
0.13095630372824096,677.1840552670736,205.97541438253307,228.7037274850254,0.06479242456661151,-22.762756605188248,26.989162710174913,-56.57550320147081,1735410869876.0
1.1885422767468945,-61.17277384808949,-186.45491511419664,-1404.2627488215765,0.056275450016519846,14.638405225721378,18.267507884923894,16.650991903814074,1735410869906.0
1.3816995161582981,-1561.0352821392735,1132.1080699066865,-760.3982089056481,0.01922273377426966,19.079876880937903,11.095960285722597,14.46427105936008,1735410869936.0
1.3461188611409125,70.65271105067563,-514.0026259511367,-110.18515109010673,0.029400585707165357,30.76111228645486,11.473331425586068,-47.664206026452,1735410869966.0
1.824441822021564,1036.2862399941662,744.6012419878433,722.0825753098263,0.07301139073656875,-2.3794147825483343,10.781698158864677,-90.82196549807925,1735410869994.0
1.9825560587388713,-404.7200484799705,2105.6188284688533,-1356.5853395071201,0.0475787410867477,46.47922848836255,13.697890737247096,-24.630612143036508,1735410870026.0
1.0550290215915799,1511.8647529275177,460.5134865009064,-1162.5123295784076,0.02478641034834174,31.137508679032056,3.0689488249698282,11.057591609286636,1735410870056.0
0.9039164125369434,552.3932029760008,-202.0400898776586,-1747.3765121414685,0.03430115883001234,15.503101120572381,12.734216083846663,58.72004137962791,1735410870086.0
1.719164860168218,1274.2933678616266,-739.3362031675332,-1219.803363514937,0.037090702113298145,-38.036713187841954,11.720822670725484,8.831723917319568,1735410870147.0
1.4795524242126783,1455.4387173757154,987.8301404516524,-2356.392149167034,0.04423167107836316,44.50002382942399,-4.388459495891022,50.285669030322715,1735410870147.0
-0.5883501062090183,1271.823108018504,464.8974012665928,-1101.499553274931,0.06000283858687612,31.95029859179212,8.896533146547226,-75.7375091219152,1735410870177.0
0.9039475202640448,619.8255887551938,-1349.2526449240886,-1329.7231626210325,0.01676819388209391,43.4326726368335,5.186310009757889,-24.612098745490357,1735410870207.0
0.6790091570232398,2074.5875059740874,-283.5839261479012,-377.7638441280425,0.03235314991915948,-25.319747903896754,-21.336276243144496,-57.96444096044356,1735410870236.0
1.1271223994505088,-342.7814795874208,45.07545262765694,-1259.9980208494928,0.031335925926554126,28.026326439151948,-6.228092283467795,-33.55693527366032,1735410870266.0
-0.17051119067610743,-535.3876490052614,666.7976823354916,1213.7176893920919,0.04921330919956046,-33.38456107758457,-10.199906976549082,34.73444685998101,1735410870296.0
0.5691337637391258,-1276.1574947662366,-86.13977567982474,44.91605799708424,0.03386125151565608,9.364508199659749,3.6566484944641138,37.51973036917542,1735410870326.0
-0.06841413865230533,37.17036899118716,783.6551607030115,-399.0751804243076,0.027629686452642258,30.557116761171393,8.06362236481141,-89.15961278153122,1735410870356.0
0.9549319082302918,133.78415334062083,-558.8769304280287,288.3105417551124,0.013167712991809173,-5.800992707840017,8.154815265504483,-45.42283205890983,1735410870386.0
1.779977733446743,-1774.173614920924,-1096.0285430958265,-1407.176225649883,0.005645218944251386,33.4686173969357,36.86386710604171,-15.169271018682837,1735410870416.0
1.3458671234412993,-2216.904686024824,-1013.9948613528795,-11.054135185668258,0.04951211798407168,60.63638244337613,-5.813024673508799,58.38295913769888,1735410870446.0
2.0084501453759303,-1957.3003215952374,-1579.140586403979,-506.0787926185383,0.04378073825434626,8.205546702399497,3.890122568389253,-20.588262137124698,1735410870476.0
2.025456898194509,-1182.6864023118633,-2029.5366427997856,483.8929538229565,0.03976840308124413,13.450858438735764,15.092532263873533,1.0949514486617034,1735410870505.0
2.493034196824303,-1611.2282187095689,-1496.7935757609416,-948.8955289278481,0.0007845006536097762,-8.797029677524813,2.549240116260278,-29.05357335957151,1735410870536.0
1.6748398538670346,-401.24175510919963,-606.2959273293935,1640.8120788112406,0.0037836338224886985,-34.204932397966374,9.770710457222435,-39.54883742719237,1735410870566.0
2.430321769128862,735.7522030252983,-1350.1475984084284,205.01631540237565,0.03508448752854017,3.869052724393378,15.572621313658441,-60.13914081500799,1735410870595.0
1.088474595762372,-815.7632226853664,-658.5709464231543,246.12108594974765,0.02783517014568026,-25.92725072833305,12.950735504962388,15.422231420656335,1735410870625.0
2.119160069220544,-699.5732868169399,-697.9170883675266,996.6193265720398,0.02526759071052613,33.88786929396547,0.7915725696853322,-19.32585855991821,1735410870655.0
2.738527897449787,-789.2468136086284,-1778.0650902086763,1486.5829992520537,0.019020878919209904,-12.558957695362029,1.1261286765144038,-22.926202966832452,1735410870686.0
0.012126507953079013,-1373.709926624755,-2788.207792609799,87.8389662454275,0.045901053367932675,12.666171608199331,15.312664725064302,-29.787588080892036,1735410870715.0
1.3268332292285874,-2188.50896419312,-542.9348700018161,730.4115339957217,0.030678126174691747,13.034807037105068,-7.431546002524861,51.206976609777996,1735410870745.0
0.49500784770589085,-1146.060144842525,-1235.1042673226248,811.0565342908275,0.019371353953913883,37.33045917939937,10.232568139912773,10.28052229931984,1735410870775.0
0.2658333673530321,-60.55498222039627,-1124.2226996299173,491.7248570149187,0.01742366811657159,-1.1685576803695739,16.644288363734912,4.555891547583073,1735410870805.0
-0.23175340065867633,504.2578262872773,-1043.1816893492173,-1533.1144695891348,0.002672715233512722,-3.2767973903052443,27.311303118631137,25.56187171998998,1735410870836.0
1.0104563058286988,-983.3525496452605,-1113.6633692260734,-131.6744802119686,0.03754912399963479,19.216701880035806,25.807612188396497,-18.366490840285003,1735410870866.0
2.0802053616519967,8.135313600972609,-412.6902441258303,-1150.5112403733451,0.006555974963996621,36.13685139603287,6.224127010700667,-20.388903920434608,1735410870896.0
1.1068056677124591,350.16554892161764,1045.690856698194,-1503.1203054754424,0.039220844179539346,1.9843807779246863,15.884142999772365,-23.48011048189813,1735410870926.0
0.979211944599283,516.3433576341165,460.1204431561145,-1148.4065294902528,0.04590129628682141,-2.3670410138242524,-12.224221955093823,32.96645519570651,1735410870956.0
2.2035470188762885,1235.9794823658863,2069.2602874600398,90.9131020032928,0.03171118636363139,-26.357496782066978,22.43528933873329,-4.681995088532306,1735410870986.0
1.5016327584204001,728.9341772149555,905.7951614971366,-1603.0217633974842,0.03229985165650762,18.18213024013941,33.12365159282423,8.639620442155655,1735410871016.0
1.2477032482490027,638.6243023229644,1952.9420966967343,-446.18621637757013,0.015070844817317533,-8.362408667614982,22.585240042563132,21.287937453327,1735410871046.0
1.3376177055658205,1236.8434616735992,30.033355221412364,-955.5768755517124,0.04652841190227197,28.10781187281453,39.90890733488109,-59.467907272584576,1735410871076.0
2.0162453441561956,-287.06869546571284,-808.3156361293511,929.3184075808838,0.05563704345063345,-16.39482526687683,16.813764629939804,-47.215765440736746,1735410871106.0
2.453813587804718,1927.5259360336026,-114.67532362708948,-1280.2093787880608,0.047945121880970706,17.648561127792732,32.98496453178491,-5.453080475339657,1735410871136.0
0.5126368547949659,818.020051637157,747.8272906169218,-494.08452438032293,0.044781172472063493,56.407284120842505,20.446142766589272,27.909491648640422,1735410871166.0
1.5224498311056336,-26.64729812573239,-110.40023086257793,-448.81746198037666,0.065733783599181,31.429109600715762,8.620536564921084,-20.50050136576929,1735410871196.0
1.396997315688397,1059.902057413047,964.7052283939573,-1546.4838807084043,0.04372497204152507,56.90209169324976,7.928236020671243,-38.53017229222502,1735410871196.0
