Acc_Betrag,Acc_X,Acc_Y,Acc_Z,Ori_Betrag,Ori_X,Ori_Y,Ori_Z,Timestamp
1.2379019285930155,178.69624427059387,629.6261024563596,539.3118055627132,0.01889322503404558,-62.8218581182098,1.4908883698408713,44.914877612667446,1735410809155.0
1.1298145556252623,1029.1415086872512,126.74446305414688,666.2034722931776,0.04195467632665331,-16.491171228762184,-5.40601565755154,4.7937595215612525,1735410809185.0
-0.03270845738702788,496.70822740281477,987.3144804092427,539.3569225809251,0.02902019653440601,26.758454343377053,8.961616876424578,47.16580861434532,1735410809215.0
1.7284438174900922,709.0011465619896,-417.0877572976382,-1032.8296993442377,0.025258410803986636,-16.757328522857552,-5.439997629803931,39.475123080369784,1735410809245.0
0.9854113098494767,-1252.8445136626747,1977.6428957010553,2990.2414476073673,0.010134684228991348,-23.494098068896005,-8.177177371574464,7.589488160967777,1735410809274.0
1.764304060801642,1112.4308275260769,2413.0556950838545,-432.8999634089396,0.027189178271572897,-63.05976371550335,14.581578002956638,45.783616917499586,1735410809305.0
0.48119596159314626,407.52585557792395,-464.1392302923805,16.427381494202052,0.005984595614953174,-16.313251425226262,-1.1285628187116843,95.28581594378394,1735410809334.0
1.2635087131207539,-558.5420639851386,-1.7199553417844982,1976.9611355605807,-0.0004252549518383858,24.307921405375083,-0.49221993209501347,4.284144667196947,1735410809364.0
0.639840953141133,426.6041997524022,-742.7019684634677,-481.64963067431665,0.008349255249526275,-23.862306243791387,-7.019182957537349,42.54127289075788,1735410809394.0
0.9232122264812245,1709.927498658074,1247.622533136112,10.440038809849113,0.016432437374519517,-52.525197374466195,-2.1420333925709545,5.4885240361425724,1735410809424.0
1.3516016372042148,-265.1145340834371,-1004.4473672293136,823.4592153934946,0.006712904461183919,-2.367729602263312,8.104288559655512,-17.562841766184057,1735410809455.0
-0.33492204242878887,-956.1768158736113,194.21317845354588,-14.592767206043959,-0.022671553788156277,39.73808788956104,-13.585451733534974,7.832342802738897,1735410809485.0
0.8913934796072738,2070.365687367094,-318.9084963497496,358.2582847598668,-0.0014197080024768664,-6.93097584753446,-0.010387347305947703,40.2495008866041,1735410809515.0
0.5825668769086365,704.2313648501404,766.1967135589281,-1505.8013969427734,0.020142573604971757,3.3856857542968175,-16.08272505064087,-1.318358153456952,1735410809545.0
1.4486921694220403,-13.413451345861858,315.1054331205776,-429.97599734418156,0.023990113307318046,-2.6347243945722383,-11.633064572113557,-32.24816830527644,1735410809574.0
0.3744910457009818,1278.0684499028116,793.4129370588873,-67.3674539544981,0.022732465600691098,-15.96545237201334,-5.544175293456719,-29.733557621028368,1735410809605.0
0.7495905839537824,518.2957172226716,321.3864101022861,875.397422574409,0.015004473075243711,11.424233169288149,-10.229938063700121,-44.650300199204395,1735410809634.0
0.1563600135687695,1284.8035571453202,1634.1164480451982,-274.2082633986097,0.031049466493852693,-15.78186300888963,3.493422630966654,-51.81511041159336,1735410809664.0
1.289396443285746,1715.2557119296207,714.4459160859574,1126.5433954755558,0.020482842650550403,20.152513787486676,1.52369215035654,-5.58742027876123,1735410809694.0
1.361041216299515,30.634236396977144,1641.6210590741432,25.238820291134516,0.024553699910759313,14.348127233512587,11.606055033449461,-29.9635003100557,1735410809724.0
0.37605920834101403,-43.685416930253155,709.2725503320021,-2257.0775446911493,0.019825058315796642,-27.81446595640685,26.766398395951136,-10.206074953645494,1735410809754.0
0.8157928394988526,-430.29217330677216,750.8298977289231,893.5028429189504,0.018193032385152654,-28.309587161776925,-25.31018517406288,-22.483557449692412,1735410809784.0
0.6237518293416981,438.52825846452384,1728.1441995799198,-135.33753023100797,0.013305697835019321,0.7598072171855019,-7.770186980856763,-53.277688787124035,1735410809814.0
1.8408794823938581,2055.335321291045,1590.0247827717621,-177.87482165964843,0.027106747261744637,-39.98502520286266,-10.450433907104696,-22.876969830741174,1735410809844.0
1.1911535945196159,-1489.1351075445468,2336.1127866667553,703.1464594676072,0.027496932975552748,29.90289759440479,24.351834179554018,-15.561290635142035,1735410809874.0
1.0318122447830202,324.4296674047078,-312.4288325432649,-559.5603485381715,0.013811130162947976,-16.890078678626924,9.720353839988515,-53.67869817973663,1735410809904.0
1.2104130652459335,1458.3824175841676,1054.049154044153,365.73830080402763,0.04224975132507662,-41.319813800796666,-13.739910873187645,-24.36028203337038,1735410809934.0
0.7478625409335388,1141.472897743552,-259.0857555542083,-205.5276593140448,0.024160621946948797,25.079693957371433,2.4941462112905626,-60.89802500311744,1735410809964.0
0.46923823265805487,-790.6758190457231,385.2107479063015,-1358.4276075155478,0.015479160811312124,-16.90254594298081,-1.9186650381024668,-65.98457066443913,1735410809994.0
2.0161648509372103,862.9730986844147,1809.299850387574,1350.7107778372836,0.014776550965654556,1.8275368865783719,13.5255841168024,-30.412499572947848,1735410810024.0
1.1378937407581389,733.254642785382,845.0472934042735,-145.53693845874358,0.06118213674123487,-8.91429613659911,-5.098192379453526,-26.6901212021272,1735410810054.0
0.17293864465583664,753.3466819082031,598.5429742474745,801.5705920057991,0.0703702218303175,7.650465243193903,-0.9333149313724995,-66.44204224780594,1735410810084.0
1.2751219919456855,690.6151867106357,-878.8122798846919,-279.66979497521413,0.04093926433784595,6.92111866741393,-16.022626082390115,-30.878062834110032,1735410810115.0
0.30530020785980705,498.5141238731015,1286.970551677428,-92.101964491699,0.034017304210339085,-20.162184050542255,-1.3990547457993654,-51.37736825486132,1735410810145.0
0.9964191559787903,1552.6073268064856,2299.55267463798,-129.4891754328039,0.047695646101112654,-24.72888198882271,6.480164268579924,-38.798910488136386,1735410810175.0
1.0908881310425222,-86.8482002913413,1819.7154643641145,305.21853371747693,0.05748274047044496,23.904209212032157,9.253625632616547,-25.074112849724326,1735410810204.0
1.319838498444176,1356.900044297678,227.11813060345634,-167.95653255872014,0.05471460303463602,-50.274012581501246,10.700384902463771,31.0773489299866,1735410810234.0
1.0239062067340376,791.8158899611589,2859.032800820142,825.0921353091938,0.04654263133722278,30.20690148414579,5.105080507919112,60.45919893182941,1735410810264.0
0.6303917253679827,139.96185638627628,1129.4334269488472,855.9179910463785,0.031150913379471012,-27.813189170327064,-0.4397909504871529,72.12840963688504,1735410810294.0
1.4790556199217957,1342.7118843447047,1561.6902948886316,1105.808481763865,0.044899498836324,-14.063533915739923,-5.440873872820595,58.013304435856924,1735410810325.0
1.5514875722561023,52.4141273856801,815.7551667140929,757.8069714598319,0.033497891237204515,-18.881370815380063,-3.5205420790417774,-7.742122455426873,1735410810355.0
0.7489646136593905,-559.3138406556293,229.41759087774955,1049.461950361121,0.05113105021310929,2.8598829948530557,11.10257056240351,21.840210476111096,1735410810385.0
0.8795065961051587,-615.8459119920085,217.4498928641566,605.0937792498213,0.0261797302248101,3.5369413418461697,0.6392508049119661,65.34701356443341,1735410810415.0
1.3181819556484549,718.278128513428,861.5545152655266,1025.0941111431625,0.03804696936955347,-21.33600012090357,0.29666925361991914,28.998454865840706,1735410810444.0
1.4566524214406864,-148.87868828565445,747.3889569614593,76.85729269089532,0.046816029670572495,-70.82135907872622,-6.249932395088486,46.24416702577232,1735410810474.0
1.2585727023469029,649.7052836646855,1719.5650281041892,89.67997521458048,0.03764555442908739,12.1776657564182,-8.643318674129292,8.202008866586212,1735410810504.0
0.6733197893003736,-289.17646549474966,1607.2089975300667,-635.5199968408405,0.027388895597223233,6.979113242786253,-15.468104398874267,7.75157602162292,1735410810534.0
0.9995394085405581,2456.9617959114175,699.2969508946767,188.7205041016173,0.040541904851846416,14.711972606308558,5.976290075286751,21.61781058317872,1735410810565.0
0.5857985761847925,1380.10101497726,930.5403864589329,631.270671991904,0.03996905243298568,-32.520772407423095,0.2376429990692841,-25.558467199406216,1735410810595.0
0.6607919020846572,590.5175142252796,-901.2392873082933,747.979043391515,0.03935144566600446,22.053490981240675,8.868986936099136,13.82759403981108,1735410810624.0
1.8716045912286128,325.7497578807397,701.0209932513934,-614.270583460609,0.021033846725609696,26.68311282182975,3.3050328640094335,14.09636510517861,1735410810654.0
1.182705844977888,715.9662028898053,259.8489564929128,1472.6574273457377,0.020482520439363727,-45.6095296918846,-7.755259969039688,16.61495034415185,1735410810685.0
1.3476212292028236,1673.3618136102812,350.889542243905,1809.6132402936869,-0.006077825230655028,-36.75814615665597,-17.369944745418394,23.900688110701864,1735410810715.0
1.0574040092487367,375.64804972640695,1168.8086294908187,-94.86740690719267,0.0052473605477554065,55.646273147474794,-3.742511515979696,-31.997107501988594,1735410810744.0
0.3891380607162269,-1263.699103492873,1717.7518071024342,-1226.34195654258,0.010078036727294206,-31.364716715008193,4.592859297956505,-11.309634024411153,1735410810774.0
0.5142390755455544,1668.558180380493,533.7668457299955,424.9095741613203,0.015372091196150373,-6.469436451582866,3.3047451472922207,-46.62097670196296,1735410810804.0
1.2246856476071573,1677.5091345112232,1070.9028042122573,-1055.2550569446387,-0.030878127327930292,11.140964599749248,-0.5619241269741304,20.116392286029935,1735410810833.0
0.20736925112233695,-349.2947046301813,1042.04026771621,881.5601635690247,0.012416646405131942,11.450974630184913,-4.965429399499561,1.0781938558065987,1735410810865.0
0.8905943989251793,-738.3924680546127,1335.7213688328193,-734.2478676442032,0.011797633945784185,-29.217034145889446,-11.289055244724507,18.980246247561443,1735410810894.0
0.7666222715281874,198.86873615339903,2075.962015555054,-1559.468776490644,0.018851152973835102,29.133838164231012,-12.940277817037991,-18.630552561032317,1735410810924.0
0.7579298665710206,2494.5755466366754,1343.2568700402473,-374.65814003412004,0.004484134185676964,-17.649625799314478,-18.167315121329246,-18.36131664447781,1735410810954.0
1.4415231126761836,226.58633594370474,149.4531338115146,316.19308153545137,-0.0014325162869731536,-0.17007914026502746,3.699574635268268,4.604621292098769,1735410810985.0
0.8322250597326282,-363.5641580162387,978.8940402557532,-262.403184037447,0.016844952902717633,-26.038526557416553,20.22977223505923,15.15067337365608,1735410811014.0
1.099168632073231,678.9235125466037,936.1917088122082,115.92696718918549,0.01940619567114238,-20.572742028644157,-4.386065003053282,30.693398267338047,1735410811045.0
0.4600454078549323,-73.21440067798221,238.05383527962135,-646.8145559021173,0.0001522451542643015,-6.315266032788713,2.6277079595346384,-17.645383979668914,1735410811075.0
-0.09006084351140575,1737.2472143425484,1485.6029461648873,451.1622817454355,-0.0002094529016120894,-5.134844530186331,14.335393077824982,38.78721334465861,1735410811104.0
1.4368875495785445,-34.77725827111135,72.62593591389827,1619.1936359404176,0.021849955065880174,-38.24281056991853,2.698416052725281,36.340058524276344,1735410811134.0
0.8927660376327333,582.2759612418033,245.79971627421043,-3.1785881049740965,0.005077549688298273,33.795504319311654,-8.232050830238036,-5.019593428868529,1735410811165.0
0.15825794617198508,-471.31187353321275,1809.41296239273,-87.59062453624591,0.017299042417219506,30.422370441527903,-3.16794658657125,-21.250779446505806,1735410811195.0
0.01126346163317593,1521.8072211921722,1880.5921275007092,-761.255894704675,0.0326921771648494,16.63711369524645,10.759363864231497,-57.93705695844244,1735410811195.0
