Acc_Betrag,Acc_X,Acc_Y,Acc_Z,Ori_Betrag,Ori_X,Ori_Y,Ori_Z,Timestamp
2.207687361121299,-370.4065887531813,-133.34359614314224,1607.063693846727,0.02290227100284099,-26.70188669207461,-13.241718044592416,-23.567675793542953,1735410595105.0
1.705145058101861,841.2668105642637,-323.12091440180905,3132.4553070591637,0.01967346484343215,20.616097690063526,-12.225748765366436,89.22644195186717,1735410595130.0
2.2704897576757275,-17.888085132123535,-232.01602014216758,2134.0878130076017,0.032985187649556866,-31.464779838796478,6.179415152681113,52.551483893026315,1735410595160.0
1.4421350454355304,677.5566619936972,395.73565851422404,-1219.9020206233567,0.03804574735794544,-12.354745446477894,-14.85976816179464,40.58855664942775,1735410595190.0
0.9163539906046894,-920.3727554101387,-185.05105780118453,32.41205748353218,0.04824029449334455,-88.13379095905421,-24.01272748619442,-30.807494238651753,1735410595249.0
1.9131344515932818,-1030.417612138007,-1936.705064611337,305.58299357666135,0.047143020521621046,6.41217696811951,-20.066562253798814,-8.999297960263892,1735410595280.0
1.247622097042743,931.6311472257532,-1503.1084195307008,906.805506803965,0.05831110716377296,-25.118467101681485,-12.121969171528507,-50.36694358391447,1735410595310.0
0.6558918802935908,324.22783155743576,-541.5641533525866,791.8735170442636,0.04811102750798219,5.684509162549169,-1.6249055759794366,51.411750664792855,1735410595340.0
0.39508405606520125,-812.3891010118383,-198.25246753336558,1785.2485082117275,0.048766604860157214,-60.11028499580878,-6.836542806687488,112.36789759493635,1735410595370.0
1.0615838294915365,-498.7507196541111,-601.7747584660272,472.72641520667827,0.061060246700658155,-5.953565187883957,-12.444227487238862,35.025664348847144,1735410595400.0
0.8236728502661392,-953.7989363631675,158.49554684256225,903.2022197821598,0.04199019023720382,-9.801587851039072,-20.072038320011362,36.71706670493887,1735410595430.0
0.6419643533781423,-1092.2618957866125,621.07964960839,583.5770704134388,0.04191385391870994,51.69128439935436,-19.856888373165773,-36.21971792774089,1735410595459.0
0.772131960414817,60.45918088447556,211.88827340206603,-999.5922852252689,0.03603412938956335,42.97857619959822,-25.23415003005952,12.99729287280282,1735410595490.0
0.2797906197044614,129.15427665237684,-1702.3893025064003,-3348.1170513353964,0.025887375771480217,88.52163737746304,-16.424190242555394,-42.62278812205128,1735410595520.0
-0.18933941339706584,-204.57249827806714,-579.9698999596013,-1356.032260333909,0.053568865731876934,-47.75548951225991,-4.6880874041424665,6.482596711898143,1735410595550.0
2.35676339255708,-1536.777935769599,-814.0282937482455,1770.4555630421237,0.029142825022109985,22.013466009862036,-12.06838466143461,-56.767046191682226,1735410595609.0
2.6617501659522973,-1824.2734769868207,-444.3634573511471,2217.4610056390134,0.04643055599409713,-7.263335805021054,-2.218042244735018,-21.209632059171085,1735410595640.0
0.6576727008433618,-1153.1656086194394,-671.8175694374045,-999.2279922102093,0.05039835233554488,36.788287003917716,9.588521631013025,1.1532048960985648,1735410595670.0
1.331363157654172,-564.5398410495236,812.3621378580331,208.32445091684826,0.03496842209848719,33.74257552644092,3.903298136651112,-26.631137679291776,1735410595700.0
0.6053873251071114,-176.8841048499174,-1330.104108361702,-298.5799820855266,0.04126371758362455,81.29607832319061,2.215548818149487,-45.16951106693001,1735410595730.0
0.28135745900764153,320.63961114182507,-2376.037039346623,63.007037971315526,0.06343363101811411,30.8589949187041,12.20576012163108,-88.71801262216341,1735410595760.0
0.8173167439383189,-246.2235975801621,-1063.601427769453,672.8247026835579,0.026672269868087996,37.469394536090896,6.317026716078961,-40.041443506601524,1735410595790.0
1.421226433106006,1254.8968179400813,-154.92754508772896,-718.3773456215916,0.04323992588562727,66.71887625749906,2.9339179802363438,-72.2284383840085,1735410595820.0
1.0198782605844712,-92.99708721430375,1021.5716194445422,-286.77521028488036,0.028731884472190165,59.9823144006219,-8.397352598829952,-21.535924110858492,1735410595850.0
2.4423999376352254,-1048.09437780026,-150.3348548223621,974.3840453613518,0.05547735685419771,12.240677667862816,0.2696825593775234,11.939613024057223,1735410595880.0
1.722221714723723,-2428.0382975474217,-110.23129051678609,1607.7263064883293,0.025439720611512937,28.7361698466308,0.02535340500138794,-4.891186917434084,1735410595910.0
1.6772159392989177,-207.99098269465418,-312.34108035326364,1632.294217791106,0.03317245034664631,17.82094907403708,2.1141538210160977,26.223510742244144,1735410595940.0
1.373454207954108,-216.9086981710215,322.2982526553267,-1752.3887493215907,-0.002617298937734623,38.562757063388375,20.586164118747863,39.65305609994957,1735410595968.0
2.48786561744915,43.695186930288514,-405.4078260100386,-1068.3953375006229,0.0153227969804139,33.29396716097285,3.020725019326365,-26.80378022628976,1735410596000.0
0.9614683225918406,-2166.2840399749693,-544.0063934690936,-1097.5742455147206,0.04166991758317516,31.582832787898447,10.75028922152019,-56.552110854740484,1735410596030.0
0.7970544235350088,-278.123337168062,-1221.9268138137256,-2134.849097137012,0.06519674107211024,25.311523742679896,8.678470007407542,-33.35949074839043,1735410596060.0
2.2261509004666076,-1180.4063346231069,-1978.1517751472186,1859.7569476725298,0.029084166973996416,16.365525521921285,3.0422392331239374,8.043581154164789,1735410596090.0
1.929729598744962,-1153.77771953711,-842.7816674922581,2585.620317467889,0.026968181671321936,23.10413821281675,42.044168994329276,18.072364129243084,1735410596120.0
1.1775609740260191,-1975.9639472218375,-672.7364549153122,1079.472460873526,0.05134323452749075,34.43028986756612,17.196626703517083,44.79030326723394,1735410596150.0
0.7649792766504298,-623.9079812059665,-204.5016342488583,19.14661188859293,0.05995781378454389,-16.948064670767756,28.88347940153415,48.902404505454335,1735410596180.0
-0.2602019496801413,4.852800686911564,-390.6752471125211,-223.80755372479382,0.024562667061763504,18.487526531080317,4.043742727900286,9.850518106719921,1735410596210.0
0.27438193193248234,-549.603338017102,329.8470536305458,176.45955058483946,0.0079398627004891,-32.073233332671805,29.471663538654408,42.81511042787735,1735410596239.0
1.7709796802968274,1439.1605865198214,-257.1489775492463,282.51736863314363,0.03986206113383693,-4.835595332275965,-10.071767963070343,-74.84101168956198,1735410596269.0
1.5851910761411672,1045.228177405568,-556.2916829710462,-2214.1781267589763,0.056204770940934186,39.76373318231171,29.44643019997315,-10.228531927101098,1735410596300.0
1.3239338066879696,-33.5809173077039,-750.098848510006,-1072.7236749544236,0.02422342993678509,41.39343281674003,15.398284355870862,18.25067680529774,1735410596330.0
2.2788702905135363,-1279.8900598417058,-1713.1917259702723,2147.5288437351937,0.042244524478097234,42.638123497629415,15.277974738155903,34.710285636545755,1735410596359.0
1.8418300320873904,1081.8004990274508,64.33388826769135,1716.1501045007226,0.045212200794093896,51.08816638293438,17.09350832778287,10.210122760404488,1735410596389.0
2.481880066649436,-2589.6220253655424,-1846.3063326138745,1538.2937402758716,0.061585841700320075,4.505506983484786,21.89237291763969,47.33361291975163,1735410596419.0
2.267291833924182,-892.4339722818453,-662.3637235625878,1197.680943493403,0.035748437966906986,43.92191131632241,14.161507154904887,69.96794691745309,1735410596449.0
2.335493860713284,274.685020748539,-537.3993605156597,-1040.805468762747,0.016213227499128166,80.61349813793812,8.025558751727552,45.58965552868894,1735410596478.0
2.0188701788069827,-592.917323439033,487.8505212220542,-961.5865745267218,0.035163570623482535,18.577796921864504,-0.07942367473724765,15.343402039942108,1735410596510.0
0.6389161046954459,-579.3046879466523,113.4018344255382,-1203.5844795818834,0.03668961436250893,-11.827589143725628,34.717458591919794,25.87400163119452,1735410596540.0
1.3207469353255425,-365.7497523823773,-684.726287583045,254.21035217403517,0.04721873339330251,43.79103608400595,21.36650850897111,-16.092153550696384,1735410596570.0
1.6028257891708446,1845.6468949824466,-61.089622390036766,153.9056031588774,0.0063813563702823616,44.18101619283114,24.131007068016437,-28.76898856272771,1735410596600.0
2.672530237066237,167.43180002216997,470.93808593649123,-683.9413357875965,0.02593152901339355,69.26993319039082,28.19440153412314,24.978789767789227,1735410596630.0
-1.1330710879786687,-783.1468581282514,-180.25420314866852,400.8657105439245,0.03609189302034752,90.1447325339612,20.911718037770772,-9.559204534196407,1735410596660.0
0.5718028180924529,405.6568146822848,619.4762088286648,-818.379568948329,0.0074019812721451625,48.34705898349736,20.385649846628898,26.94578309308266,1735410596688.0
0.7656973437587231,-427.1380666908981,-185.0664980620019,243.4384597998561,0.0033330563392512218,36.09365910387047,21.424593490801666,3.7084236232915586,1735410596720.0
0.4994565183668186,252.52978678402008,1047.6271503809166,1176.7711402638088,0.04086900460084542,20.84509172006625,2.828592602478288,-39.76407894558909,1735410596750.0
2.235430262995851,422.45916076672773,-277.18633463575856,-1005.6497671253452,0.04125574713349193,34.87445428245876,-8.752670735158441,-24.20376690734035,1735410596778.0
1.333499836875343,-1478.780932712703,-1087.07116604038,-1317.3855649859568,0.053844930075448896,63.79482760586143,-2.01766002752281,-72.45091365264147,1735410596810.0
0.8690685164929477,532.2938157382848,-326.4940982393679,-539.0822553122521,0.05909371022479716,31.607797315447428,4.85369248814246,-19.014129007918843,1735410596840.0
3.353990214980847,-47.743725866628665,-115.0025700754444,2200.746784210992,0.029330483319452903,17.078492299185434,-6.2504134160617575,-79.83023625913432,1735410596870.0
2.4126655632100182,-512.1765222964491,-823.9863839769,1807.0977729560773,0.03698114475890909,66.65300061969876,8.44962448475912,-9.694867981955257,1735410596899.0
2.501953414563201,-1843.97108438076,-587.7754226602519,2722.041509816539,0.018421912185385983,14.55443647604408,20.14156203010839,2.840683878473518,1735410596930.0
0.01097289459036288,-232.41508148449066,295.9202697636005,-394.8345149286705,0.03485900990411503,35.729326420790294,3.728010016856367,-2.1527473460872724,1735410596960.0
0.8317876943970921,-1200.0773146531262,-476.8360356750635,-1047.396304690011,0.021448774280487082,-1.8248677701229248,11.46989520450447,20.5628139615196,1735410596989.0
1.643207700971614,231.4919713559358,-487.4879340428855,189.9968884832192,0.030973934795703317,31.867100652078502,7.681532372142875,-92.71436554461805,1735410597018.0
0.5048492493995955,-1383.5645988948431,-565.0175387532352,-313.45469958165313,0.063376709637796,30.49105277945683,4.423156317774416,-21.016762158191675,1735410597051.0
-0.05514213340969304,451.84311138796653,-883.0364129488248,-318.2461311486715,0.07971384938475623,13.592553417118644,8.873139519895487,-41.293230596091924,1735410597081.0
0.3819870096075817,414.8954322889518,-1371.7172514398603,-1078.5890497149264,0.057618103689573874,23.233314189410855,10.786226700354847,-13.514566108182347,1735410597110.0
0.05339487494636616,1396.7601092294535,-941.8312332027795,-969.3576645055741,0.04811467169004539,48.2793971193216,15.103664876179849,-52.75971377770032,1735410597140.0
0.9866514226398959,285.11061114499853,-1068.329603265267,128.36814825329049,0.02944581874857466,51.67676441124837,-4.791581245080254,-76.74515142728156,1735410597170.0
-0.5978177306451549,143.9121372297811,-451.57928184993716,-716.6183363002992,0.018722643196970118,25.675201965465128,15.753247297440279,19.2006815211617,1735410597170.0
0.643233668844079,1211.4080429312642,-511.83282775695096,-69.41243818972738,0.034675891662226066,47.0001241138336,-0.21323667180485018,38.72890670595116,1735410597170.0
