Acc_Betrag,Acc_X,Acc_Y,Acc_Z,Ori_Betrag,Ori_X,Ori_Y,Ori_Z,Timestamp
-0.0458262503356357,-534.9101939731793,-383.01851905572664,406.0712231095738,0.018676978318918683,-42.327987214869026,-3.1788446408446855,53.4857532395045,1735411057410
1.0194052041085095,-3138.297615009555,-210.70210998344004,71.94905853065444,0.05297575155776695,-2.5911209694550195,-13.569551655580572,29.09756371684858,1735411057439
0.9004423764870727,-928.4570197960157,-73.11523370635956,-218.10894464537262,0.060835888415950154,-54.741280263511364,2.916748371278869,-2.5344145523710537,1735411057470
1.014669961179369,-2110.0212603292,-947.7490448366507,-1231.235365816086,0.05472617086846743,-15.177144352941664,0.9832877341012374,-27.726961479247976,1735411057500
1.0588851014621479,1284.8521993635688,-390.9799419170887,1513.4919713672805,0.03805317737855754,-26.820204707663983,-2.1988957948151366,-35.23265093329258,1735411057531
1.362046425341858,-1933.8436941494194,493.3291722131297,-676.1740303775186,0.026194613406883234,14.530291056632521,-0.6508400792248805,-11.898492512191842,1735411057560
1.3825617732675766,-1430.1685619401442,-878.0305287957492,625.2304578279143,0.04464019436422002,-15.326100078329056,-9.015336402628474,-42.78798661106384,1735411057590
3.1659955053703674,2628.0890475832102,2887.0806154783286,1626.8645821252248,0.01330819419218713,-23.291342235602045,-12.821710348402226,-63.650947908682596,1735411057621
2.264745648359937,2142.464002367517,1521.9531607936296,201.0483203778058,0.04915875102916979,-9.779693472056572,-15.728294750049747,-51.32688327844248,1735411057650
3.0878177301098972,1961.0286859005737,333.51537301650615,711.2749338811259,0.05448927777910453,-53.77149923266925,-3.219271812000451,-3.203847902067082,1735411057679
2.786736528410249,-2476.8711632941513,-1927.9828835460248,441.9242215297311,0.05787957509643435,-82.39797316906464,-2.692614613933209,49.99125122857032,1735411057711
1.6132167624961928,-2988.627126266819,-513.9226786546928,-673.4111726859493,0.030964503795221802,-26.826903974740205,-17.828885185796754,-60.651228533268196,1735411057741
2.196837862518884,-2429.978194018311,-329.01427487573255,-585.6580179265493,0.022907066529590445,-60.0137163834182,-4.689982810054587,46.58938014097829,1735411057771
1.9531229394737102,-2236.5845761002597,-2040.025515637007,222.5508403371089,0.03764414889200582,10.120972118436885,-3.677203023266598,-11.89438742922092,1735411057800
1.3069071800626533,1601.7969972502528,1969.2259529384655,878.7185403369856,0.030515654508408294,6.553103704146423,-19.638243908518838,-8.836756646801232,1735411057831
2.6627707735286785,1529.5603979227167,365.7429735035753,1065.4597016582393,0.040708793568127004,-10.501632760889823,-13.655017343151211,-16.042602283489888,1735411057861
1.6291478740343113,1306.8687994041818,1744.984228433324,714.4168248904647,0.015614047728002688,-4.68103961273612,-10.265751941127188,65.14644639907893,1735411057891
0.25083063344333945,1056.6120086727606,-636.3152057479103,452.1379755323394,0.02592844783720127,-13.150362754279904,-18.73501913251216,33.16948861962973,1735411057921
-0.5912685232975555,922.6631711540194,-966.078075689555,900.3215186638765,0.02463100765155802,-19.702946113342442,-9.191336968029852,67.18030118952848,1735411057951
2.1322912228775555,200.67853296399977,1977.1243850645717,-228.78442699623633,0.05338317833580914,-6.2787190218255855,-26.135537669332415,45.664154078120944,1735411057980
1.5201864680619237,-1277.6089655676594,-1480.4797218636854,976.1372646061834,0.0719762612458861,-15.927811933102596,-25.97284180392873,-11.842802484960274,1735411058011
2.8327030947077194,-2864.972929637992,-94.02116372678461,1007.4951123411132,0.04686778781137254,-31.875028672497987,-48.58496933603381,-17.19373486851795,1735411058040
1.8449308461278657,-1860.9735643964098,-938.6016629644607,-11.364668363752855,0.028816473930887085,-27.33153205315407,-9.79349151441373,-44.90043212094392,1735411058071
1.6214207417612214,-1962.2472766582684,-1053.7760239387608,681.8358448171548,0.0071772652034215075,-50.504028288330744,-2.3474476531785053,-3.6008185370102117,1735411058100
2.092137464383995,-11.861099589470086,1017.1435483790148,2066.0915849228663,0.0605312114232764,-38.738253321086646,-12.409279581121805,-24.46772660447781,1735411058131
2.7772157154842674,-435.4059281360978,40.84984501003214,1738.9350080387253,0.06367024370371678,-3.2539520676481377,-9.275211327965051,46.56596066187937,1735411058161
2.710994321996998,2309.390035067315,216.02001045258987,1194.4609055813276,0.0546295078506034,-28.4703041590451,-20.868028959309324,-5.225245032928374,1735411058190
0.27010870235370954,-2433.1911445517394,-634.1095397954796,-364.3332771412347,0.011920832784571175,-43.073378785100715,-10.152912134523529,21.314806791288404,1735411058219
1.1721191593158724,128.4455476609607,52.88069345650729,646.2858131372313,0.05214052376333008,0.6485501999245464,-22.00770826577328,98.93147505363973,1735411058251
0.4054528262448451,-1732.0261376885603,-953.5846552405325,-435.701782769088,0.05659223335225172,-28.36505427468764,-32.085434868735426,-40.86637426855112,1735411058280
1.3083422513799834,-0.36765627250088073,96.691154559116,322.96220880431247,0.01740351780332814,9.418327793912937,-10.235835502310652,51.029015098954304,1735411058310
0.6085847584392372,-856.821055265339,145.31234780664835,-506.2198655975087,0.024066297121004568,-40.5458127274846,12.680368985680738,-48.90705622508343,1735411058341
0.14412337315240253,-1550.7626768761995,421.7823814102147,-137.9952613826033,0.05475430934557726,-23.479806936506428,-0.9759492305732991,9.46518897201247,1735411058371
1.69524827684601,-1509.9136417094612,-801.6208660031177,759.1784672024482,0.03578090771837696,-55.785169889045655,7.953947881792517,-3.9348079127984494,1735411058401
1.6705357458890036,2913.366811127983,-643.4925613186326,571.5944260944757,0.034028330660422865,4.789027625475139,-14.906428433034494,-50.174347647429784,1735411058431
2.7417876758700803,1917.981195137395,268.3274731193739,987.0129998656917,0.04306765823556251,-23.801463016311835,-14.143709609601693,-23.812340600880194,1735411058461
2.9551545427299835,2579.3873333072584,136.24283734772484,532.3317112620407,0.033760625455175074,-57.28424639637801,20.03518130835352,36.644539774181624,1735411058491
2.2991463059248747,-1321.173554645107,-2218.6914402229886,681.1989956296801,0.05546839319791813,-13.349589862731586,7.627352931210304,29.533684824522243,1735411058521
1.9462906889427984,-425.2411160304589,-943.1116776478343,528.1370913215286,0.041301227984452404,-4.317895999452361,3.418378692161296,-9.889094510197499,1735411058551
1.7377371625322786,-1529.3039374670739,-57.754517913291465,931.5103895676609,0.013353700730105514,-38.172594790559145,-11.898703139942299,-35.98364439721666,1735411058581
0.2711038389461236,49.816432798231844,235.59378987822436,488.85646808780285,0.014330670023388252,-26.897347164479,-7.508775444599444,-14.664016927539443,1735411058610
1.8099273496839712,-772.2033990306348,825.320234344682,-505.84289101675506,0.02990247579136885,-22.261139259700382,1.0384852669098876,-38.992277833799704,1735411058640
-0.20324501391154115,387.31343065715953,-33.06025657524768,115.77182420680037,0.03250149459979579,1.3557328657967371,-12.030095180245926,-1.3214877862874772,1735411058670
0.986462589101716,288.79578368368766,3.839191636349767,219.9720869406542,0.045304926468869466,-16.41715770373667,3.5099592849512398,-45.99763222667605,1735411058700
0.8605541237774786,2277.3526536336544,1488.3021535197408,487.9941855607768,0.02695353069312808,-20.9825710943962,-11.052910284143493,-51.5817699273589,1735411058731
1.6297233846832406,2072.3509329445064,159.16197732614273,-50.26103660684748,0.06001971003997601,6.462976522829377,8.130588952211786,33.66331218482523,1735411058760
0.7102905928375028,2333.6252820496147,154.15937661330443,831.9062423627137,0.06473864773793012,24.73778204285664,1.042380678371813,-0.20724570505587536,1735411058791
1.4736305007498351,-1065.9343174206037,-552.0070820018627,-545.8562242498242,0.05460728046924981,1.5678374854063062,-22.319407396568913,12.70533512586158,1735411058820
2.1965868609640813,-2353.6256497153054,-2344.7418196007097,1117.6143164215594,0.023647098171276915,20.977160676885156,-16.143467785680105,-48.2511086154896,1735411058850
2.149660684559169,-1994.7610945814358,-811.732753382782,1246.5822375978764,0.02141743619946873,-14.36865854577875,-30.075290895974042,-15.798469069889231,1735411058880
2.1813709830485943,2486.6879675057626,767.7187174956438,41.1150052408388,0.023386121845703108,-29.076610124655218,-13.839156608464961,-10.063999331572308,1735411058911
2.415782477557142,2000.0055370018533,76.72082863105248,-706.2984934569772,0.04945978489910974,14.967110851775203,-30.0594176100653,-78.00978156063911,1735411058941
2.6761668596987747,1727.535972178513,542.3613913800875,112.90040345321813,0.0705304633625034,-26.393379258284714,-17.790082269815247,-48.76081797321869,1735411058971
2.7074283021046295,1061.216064190262,1153.9603275350576,1560.3294529919553,0.03803949966429272,14.345788159390619,13.443700805351074,32.06644194384662,1735411059000
1.126850372554368,1193.3602201141894,-603.8251165298004,-205.34916759983548,0.05248553334694616,-20.665084287520948,-30.237821673003957,51.57135762703166,1735411059031
0.5272995513892462,-1221.0606245039414,-1322.6764990039155,774.1569839797614,0.041743377854075156,-0.9450217710039635,-31.240585902881577,26.92280014030068,1735411059060
0.37304633507349033,574.1103648471417,12.590163184078222,134.27347936098238,0.03849644061828328,5.116678067088248,-29.26333461576394,47.429024445845265,1735411059091
1.9036011664705663,-1115.3789445200382,-3.7107420431950686,614.7575402893856,0.07346406554898288,-26.883668943578563,-11.570943914340717,-10.17300408348678,1735411059121
2.331925195603995,-977.2140325047087,100.32956724855876,-107.99543688781182,0.04516497485018333,-39.062874411609094,-1.4358841992365132,-27.272429482824336,1735411059151
1.9329598956822984,-965.0141017137266,-485.5605801579203,135.0445342682837,0.048508414188569625,-61.03519106760891,0.37334352069822785,-38.75994120072166,1735411059181
2.8434764753435613,564.8704517378276,410.53516698002966,2223.8736448399677,0.03516362997601992,-25.030444684694956,7.447783825860583,-29.311685222316868,1735411059211
2.8638009687334427,1902.1485142264742,798.7404808591843,866.094669381344,0.03504523503121001,12.939411273082431,-10.755064490985646,-90.37707408833029,1735411059241
3.301802841566379,1737.985192757763,833.7882983757544,2843.55119015107,0.04206683818663527,-25.887022802274487,-17.70388791444794,59.10352792465205,1735411059271
2.6689802999119765,1320.6415429672802,417.2895482825953,2202.484400554535,-0.004828675214469787,-16.047478674538397,1.0881534408508209,-68.54741553087925,1735411059300
1.6437454531038993,-2065.0888502747493,-698.9084421742061,1332.524533062397,0.024512806371611597,36.28146947465713,-21.349369208811783,23.664764303862224,1735411059330
1.4131721581606973,-815.5662807833704,-1754.8072708064237,1551.9075802659947,0.07602394299413344,-31.469373095986537,-21.903157021449996,-52.01316903100707,1735411059361
2.2202356140158237,-191.5840666801423,-541.4135209282222,-464.91787463463095,0.04233222774591139,15.08588141323277,-13.132164858922614,-42.74593491325545,1735411059391
1.5414055091206698,-2923.120368960287,32.39529823588077,1837.353055692084,0.06556192882989775,-9.667686876319966,-9.953479646565903,-57.36155917462048,1735411059421
1.5864353773055961,-1003.1260922565604,-1.944204817961463,2169.749505628092,0.07543937574255657,-37.313328853362705,-11.665101677693343,40.18636177449757,1735411059452
1.7474557418133654,-2103.673089555043,-463.9711757559576,1035.4649914727006,0.040750493599947264,-23.215727557830284,-8.916218685348543,41.53548885179147,1735411059481
