Acc_Betrag,Acc_X,Acc_Y,Acc_Z,Ori_Betrag,Ori_X,Ori_Y,Ori_Z,Timestamp
0.35903917316972844,2428.541702097873,-1952.4072720668971,660.4596854670328,0.02897968996608827,5.092498867046313,5.758523661872836,12.069298513511807,1735410973828.0
1.9980321424342224,-967.4610301724526,227.20741496297978,326.4055913212046,0.017156290830308216,-17.685613499109778,42.88418354508296,-39.69338597869256,1735410973859.0
1.1878353130006643,837.8042796062598,-1502.3040914170026,-217.93850878452167,0.058376958697839695,12.197326908210997,25.22104161891911,-36.33066716707527,1735410973889.0
0.888565552029579,548.8715561434591,-767.019167324685,173.6627210806577,0.0396916519599579,-16.468070376791125,14.972902867892643,-37.79453638917346,1735410973918.0
0.15533493019783495,-219.06632717767127,-49.008535754888385,-467.43420977281085,0.03852021753294477,2.0817090651465966,20.611133561420335,-47.0838942442101,1735410973949.0
1.3091531277455672,1630.9851985834202,417.0875145869338,651.6358645663726,0.03300569362284581,-21.029585427229968,19.775799915310813,-101.07298520950123,1735410973979.0
0.8926684372664524,787.6900617615175,-1275.230597249943,-33.86143745794553,0.021570521892047924,-34.399201893857175,18.908256119366406,-31.48983931431369,1735410974008.0
0.2816349818261066,1300.528922070774,-711.2307222833683,-456.9839275341071,0.07843505728100938,25.898763669116793,2.907860576451096,-73.98965119941005,1735410974038.0
0.20461713766057288,-1007.0649890099851,-1500.2136298511805,-889.1230281654364,0.046561635200586246,5.075415212228969,23.153485270800793,88.18455815754186,1735410974068.0
1.359748114334875,588.2450614844915,-1579.6816421904696,-352.0348081731012,0.03429882759447424,-0.4636420196491686,22.62954643513802,22.6850422742849,1735410974098.0
0.5082769240897074,-818.4495125142028,-625.3351823182595,226.11079040928928,0.06037089289765499,-10.104229135808412,8.772011358021636,41.66743847095316,1735410974128.0
0.2837134695474338,715.5329233823475,-1149.877498536206,111.9770173296813,0.011305121471487396,-41.77573348212668,-0.7532528170484305,75.2865793561923,1735410974157.0
0.011573900398417214,450.1848830032285,-684.370917092927,404.34203395662206,0.03803426345074835,-6.17422682004668,19.781986854424485,-4.753903625295823,1735410974189.0
0.7239376028963926,2376.0414944835566,-1301.0572107293397,529.0284481908567,0.0432313219587096,-4.448731480442508,33.819558494159395,29.890240087044262,1735410974218.0
0.43505995879812,627.885014700024,-690.0466656724503,296.5897142311352,0.002345149715702592,26.149526361389547,32.38267742964527,4.8073727027258855,1735410974248.0
0.8133144623837067,1343.331360988379,156.41432855714118,501.2431591931912,0.0026806300548344944,-48.37527440006278,36.80283355973184,19.71080942556822,1735410974278.0
1.3237193452476155,-375.0267981034326,-1148.7635008680707,-438.40189200776837,0.04314987089033677,-32.029853252727975,30.90930540858361,-1.4996742355683306,1735410974308.0
1.1531251403462086,940.4204153451935,-493.98491014849634,-1316.3580031304427,-0.013879897486243863,19.471080213875553,24.8231679913405,16.75640872923816,1735410974337.0
0.060613106485095325,198.99340517390323,-489.8176884908862,238.09214990509366,0.03367570857634197,2.055915992310106,44.84349396596595,-27.14857620432005,1735410974368.0
1.5304261981377276,-73.97821887644488,-1882.493994011713,567.4357185940594,0.03969891452638509,1.76789320104134,38.29002200069227,-37.9818311250168,1735410974398.0
2.1887507807308024,873.5771910490168,-222.94726400662728,124.45984738698431,0.03207360577102755,-6.263687741866656,20.479192875894345,-30.99188805603285,1735410974428.0
0.5950170276146804,192.31269434104473,475.2810488259081,-342.13322511594043,0.053986827056988804,-26.041478639274786,11.636954167643259,-5.893029958345359,1735410974458.0
1.2534320267740138,-211.8836215842971,-1779.7895282968693,521.264207948497,0.044452364480035755,-16.905565524799414,24.54761807207607,-8.376833240401862,1735410974488.0
1.363989691118901,-724.7804968051469,-339.86692399356366,428.516395017611,0.04806674362334003,22.56459932527819,26.743227815943353,-65.35014791591036,1735410974518.0
1.8423043957685057,2167.1091347410447,-1148.4789553388205,-440.70262259928535,0.050374631281469365,11.398153161756653,19.824820086675665,-34.1354836871357,1735410974547.0
1.4058879990318056,157.06897425716824,-1857.0161713197062,-134.7869198146156,0.07033290886840476,-4.229182719024846,32.548956207429946,-9.948925122367378,1735410974578.0
1.4291191570293795,591.3925643764965,-2032.0232716220737,407.7059473930242,0.05440919321642225,-38.36994204267367,10.805087593886848,56.56849701695972,1735410974608.0
1.1861917068104197,573.0215431978312,-230.52978887890652,57.80178302532636,0.007302358828720379,3.9941371562373176,33.426200013307636,19.617355685239865,1735410974638.0
0.8599422100905179,505.3698614056495,-402.0334327235286,652.2287961639031,0.03611158809097008,5.335526828593229,10.327166229800799,-2.522912840029459,1735410974668.0
0.8440474041913406,2272.0753430395916,737.629312654984,698.1019383596666,0.037680751902981216,21.739589045698537,1.7063754970224387,21.739065852080657,1735410974698.0
0.8266198404349037,640.3100119795489,-1217.8549168148943,-264.13533247186876,0.04603443037860752,-50.95815561100711,8.28574298412734,111.20556550114519,1735410974728.0
0.7663603378361014,-75.71613951045538,-465.6280229707846,-392.94778836122157,0.030245023337329896,1.6503373405770105,30.317026292114797,9.538234981977961,1735410974757.0
2.1152421689455387,1189.4070930036241,-1208.1449324731443,-306.62756228540286,0.03347103909637952,8.226467923694544,15.260255221875784,16.491134610377486,1735410974787.0
2.2313839774416495,1047.6870517473633,5.210825832524847,-236.48709851190227,0.03259503239585244,-22.43592640159971,11.959249587603786,47.602233585529454,1735410974818.0
2.0933352130665646,455.2131654074683,-218.11236947593056,-554.3607261455943,0.04033186093640043,-14.335583638194795,24.076321745679998,-30.156586641820454,1735410974848.0
0.9181854571446856,-92.14708872953747,-1290.6278642429086,-454.90114236711077,0.04784604148660497,-62.56702899329689,14.820806094558545,2.440078117235986,1735410974877.0
1.0640634837438068,1555.5947720895388,-776.85113221918,706.1888829220346,0.03438914658809215,-28.830623482247127,24.423030814865673,22.522843155664724,1735410974907.0
0.8200359649671776,1436.6360200946879,-927.8304603652059,631.1343156492239,0.026748140852764734,42.30976069579094,1.0711396982515424,-6.299438934640335,1735410974937.0
1.4898030273790035,1342.9057653851955,-674.9169706829729,1028.2494820734748,0.024787513175520533,-18.802688690079247,10.70417098777561,10.760317292578794,1735410974968.0
0.6647910222650308,98.06573978285837,-1369.8919295950086,-104.74005874358726,0.03935710966264039,-44.84654344517323,35.332824830180456,-42.227684827010115,1735410974998.0
0.4855959049774279,1474.339518919439,-1104.954366498486,45.62000299302477,0.05840826521625513,-26.262904784771266,5.014771928571507,-49.23914398467853,1735410975028.0
0.1849454736813888,-98.10513369390901,-373.8889746343214,-388.24632927634104,0.06212949746832169,-33.95773648056354,11.169371937895354,-9.207530957014832,1735410975057.0
1.5665234347309256,1119.8910862881703,-504.4036020647457,985.0056669538621,0.03358981859987649,1.0999563627986326,23.010768086151256,69.26968192784662,1735410975088.0
0.026708132702506382,-1099.9522029026184,-2094.774987595458,-316.8092775125011,0.05850927673085832,33.01463592791359,-2.1364836910149414,117.3938993685462,1735410975118.0
0.8521790262613955,273.8644951000999,-1167.4120290339865,-170.63381155403303,0.04263593997991369,-22.218734235275257,17.29757292362751,56.716517961986554,1735410975149.0
0.536503839284403,1345.7761975621106,-1158.9393858780704,-450.32910640068275,0.008963540067958235,40.46351135190271,16.408990837564218,0.11584638400837477,1735410975178.0
0.5099227587205942,-354.9196990432969,88.55023362464169,-199.008697528703,0.038077438262583925,-11.272264895087078,34.10971241880425,13.650547861725489,1735410975208.0
0.7867228978736357,657.2591533340994,-1146.223068581975,187.56136702890987,0.02125822393222044,9.545945612438699,1.895055763281551,-11.811884382994297,1735410975238.0
0.6598736846374704,410.6838162257764,-998.4108546603225,-680.0335038600716,0.031909137106406416,-6.132165530339758,29.66352373452566,-8.498269543977274,1735410975268.0
1.4873228907729947,-231.2374451794151,-544.3653242891061,-280.1289671806767,0.02894638012360382,-39.95368372672547,26.604542566835757,-1.6349541595138533,1735410975298.0
0.5035576749208313,382.0401246059982,-1128.0455109754225,-586.7811824611798,0.013974930408451953,28.632025007388574,24.33187863206554,-19.628397863881833,1735410975328.0
-0.025116628499310956,-1313.7681754281405,649.0344134743355,116.68891064753262,0.005862739789561259,4.684860635815093,5.475176347109539,33.86880576241121,1735410975358.0
1.7973253133355553,59.80997858862747,-1180.1261390917425,-993.7768209183319,0.039163461327569225,10.677570639632656,3.3246762340464784,-66.11007861824405,1735410975388.0
0.5981906884300779,-328.57063905892505,-1711.7758788808937,1325.638870032556,0.022737150677005043,7.038660546592099,27.15019892823299,61.12654034582399,1735410975418.0
0.4926264548799182,-697.6519689503928,-106.62060439445509,-709.9401107232541,0.052146974145451386,-19.433520848305424,27.824555714593593,-12.450579775328938,1735410975449.0
1.2738734263909455,937.238201337857,195.9608251119388,916.9691981437818,0.03379233890377688,26.59148222977892,8.453280939469469,-46.404344397635,1735410975479.0
1.0987952382726942,1121.8812327324085,-114.02499615446038,-625.3681209438673,0.005643801104569815,5.614575767012996,31.08742367895062,-32.056347992327105,1735410975508.0
0.9648534836335376,-416.36365991151433,-2210.59557771862,236.64314213627597,0.044522582165169584,-44.36899444877743,13.61142352252973,-48.378090398246265,1735410975538.0
0.16696417291256072,1467.1299815483058,-129.1873620351413,490.83580373694133,0.056849816155954316,30.123704575489548,26.692781832822185,-61.97395847582225,1735410975567.0
0.9005351048303019,63.81566328931672,-783.4094345995355,1491.129206459377,0.053120819596773894,-26.711102315357536,14.718995995843148,35.97225691574154,1735410975598.0
1.132440877716793,1088.955466327306,-576.6357724621016,-215.6657522369664,0.04306322464448778,11.187616287553574,8.87305252060065,31.41136370851887,1735410975628.0
1.674623446819841,1892.490044543964,-286.60123506905336,-155.2493589644916,0.047791430547764246,5.7290530564390725,-2.3178210113878635,48.787311482427945,1735410975658.0
1.40952924237605,220.5641522537756,255.5878801188196,226.37393667781305,0.02522641739602044,17.859589627470157,10.5328069300403,9.94083766498154,1735410975689.0
0.39750903490456935,1905.0466755390376,-2088.612964591116,-14.013925289508293,0.008118895192577451,16.490281095615902,22.310265457396966,24.940451748933757,1735410975718.0
0.8169635079985572,1812.9596447461658,-1053.7032515900082,-18.02764420861149,0.03000692397653347,33.077510868488396,32.55084269353285,-2.963143719910436,1735410975748.0
1.5609318786948727,566.2061630225238,-1467.5185743595644,-1228.2378065118692,0.039487320674811296,29.591453114318576,28.846009328587193,-4.059983471405399,1735410975778.0
1.1260328828118493,1853.6834585877082,-2222.4776910118617,423.2423499678848,0.032667950876664284,15.185718674063574,24.862083564901084,-12.557130895457288,1735410975808.0
1.5093215537674065,924.1761215810731,-2038.6832480408314,924.186132094068,0.014736912070353998,-24.445892510426642,22.95403573048916,-39.8981853621722,1735410975839.0
1.7739062281719236,1062.55971024679,-1536.028358151324,-885.6339587252049,0.016152066606068202,3.3811351533559826,15.891784613769886,-18.498160241945737,1735410975869.0
0.33456247846651843,1444.5785344766427,-2861.49165680075,-679.413921357721,0.029720899225832254,38.097538072680074,21.667628917917405,-0.026943810691948844,1735410975869.0
