Acc_Betrag,Acc_X,Acc_Y,Acc_Z,Ori_Betrag,Ori_X,Ori_Y,Ori_Z,Timestamp
1.2194866773870645,-542.9204279218391,114.17600116424887,2505.0326681113593,0.05760391072649743,20.54380377601736,-16.016767618010526,-62.676984521002545,1735410948659.0
1.8422798657231947,2270.1425722622557,-65.59698738636547,472.1562785487807,0.029900993797770142,9.44597217080417,26.948779297361693,58.83259265329698,1735410948688.0
1.849925564578183,1530.2197204460651,-1281.6183920600597,490.44952839519726,0.02991006777872509,-12.994708248623073,10.981369212343246,65.83626713236481,1735410948718.0
1.7220767199541194,2176.870397405708,277.7411968615372,442.49073901124194,0.027749450243620518,10.051911817880743,11.546018376667217,61.927620349575086,1735410948748.0
2.2962511981564324,2901.077063615081,-828.4209022989112,516.9022581281475,0.00550800701988342,50.30729289963121,-2.366181395360388,27.119620567713753,1735410948778.0
1.395280285334905,375.4474565717055,-1073.8562867067458,728.39731603212,0.03114374086275488,37.93504727039677,12.786109532253631,35.10485140812645,1735410948808.0
1.720731359692015,1669.495203429849,-1703.3944392154579,-156.61949501402387,0.04164486948217307,9.600515064483831,14.035209525288446,56.332439764517986,1735410948838.0
1.5526098940041049,2009.929062897776,-276.21028202679656,316.3685432347651,0.037968786179511355,-11.981935756362358,22.873128167570002,-47.990376002694006,1735410948868.0
-0.4397519094068483,-124.65977321543889,-968.2202890203446,-705.0339166569877,0.030083815650164582,-10.765915636386161,-0.22072913468920774,3.4946153763371477,1735410948898.0
0.4996576881363315,199.95878073216386,-1841.0767172790406,1520.7115268562434,0.011522566818829644,29.356966326929022,-0.6728993378108692,-21.289453019760707,1735410948928.0
0.8218248976238852,-2791.252847174951,-155.2883426703163,-271.8727765163561,0.02414000482385917,-12.21410822608118,-4.45035040108387,-22.869495358513404,1735410948958.0
2.1152565682814393,-3058.217124281768,-2660.7520499698885,1356.0471107953695,0.0185262625684953,-43.73313314460283,5.4749964165062,63.30308210099702,1735410948988.0
2.1297575548583243,-1013.3853305439487,-1274.935406702959,-47.55983608073616,0.040097532953647125,12.089028700780366,-9.99888470734586,82.99551619169165,1735410949018.0
3.004023630768369,-1776.2049339285509,-2547.7912054038134,-1605.061400124074,0.03443833351435706,6.851701542934898,1.0926095340457067,26.186286672383186,1735410949046.0
1.3219347013897087,186.10704735459194,-1530.0507438218062,395.5831211709494,0.036776228928301416,15.504274716033539,-3.2338233667838985,-16.291390300481922,1735410949078.0
1.0244433628157523,722.552445041948,-768.428685593623,-314.94297846420454,0.028356913025289143,-34.78446655233877,16.035472796933153,52.17863214070316,1735410949108.0
1.2544212265046926,-595.9969316938375,-1860.4335537519787,-121.23444473432022,-0.009403692726185364,-5.787929379839842,2.598645493460692,-13.34829692971201,1735410949138.0
1.0685755887059407,320.25784760880185,-1052.8143194683937,-22.436687843950864,0.008988851213930765,31.649753396448446,-32.94880350604847,-0.8973452811871545,1735410949168.0
0.21821779929114726,639.8744297119603,-801.4606504185593,-279.8629057347757,0.03418095339982899,27.841688873558113,-8.329080418724915,-17.19962987911882,1735410949198.0
0.5690220565543738,723.9871619233721,-1472.02935944675,452.8682901648933,0.05608675576488856,-56.92907784665349,10.802880137041264,-21.560652176271244,1735410949228.0
-0.02644274456611706,-552.9377502402892,-257.9381659630475,152.70930306384486,0.05357500114037926,14.05894619003048,9.287213449807135,39.123473731562356,1735410949257.0
2.0599892734842213,2424.4181050119405,-803.9363806529619,1020.1787251366145,0.06935550873693397,55.12881800390634,-8.869590332344417,11.388772685544085,1735410949288.0
3.076350848880916,2094.4120138756134,509.19811163502357,143.12143414932177,-0.01899940694668534,-9.631545127624758,20.696527647927716,12.969377300436976,1735410949318.0
1.8022529421627675,1610.7815255609066,-278.5655081237013,1247.5563360763026,0.008657841145423964,39.317706964699184,16.025146176946762,-6.303876121109587,1735410949347.0
1.8904342128903338,4064.258617157219,-46.33005036757777,-692.4836668008395,0.043485866527030695,28.03400898198005,-1.9942951045602557,-27.374451143914904,1735410949379.0
2.068207157019337,6.841386813156987,1250.417921736273,430.12613285523423,0.01579789114378799,-69.97884922454935,5.429299590177962,-17.482535454609796,1735410949408.0
1.8429078248517141,1711.4460420373528,-496.1546354830471,-1275.6691689118295,0.024665333612105576,-8.815678384558215,5.7867835396826965,26.18429276259939,1735410949438.0
1.5091224506830139,1607.5650612450245,1415.611570011087,552.8328164054221,0.013052890359326223,20.236362276191155,15.098288008933377,36.91891703079407,1735410949467.0
0.49218679634250845,-1020.47943556577,635.4772955694025,10.048541450773541,0.022413118003043242,8.49541665699169,14.092913589184798,-5.513029475337383,1735410949497.0
0.682296813398134,869.1377686911868,-927.3332230660275,-460.64179309895417,0.047258734079609094,14.89548687426884,-4.060905331269411,44.7461636476124,1735410949528.0
1.1709750102544623,-523.3809939437366,-806.5043591990703,-426.862650925563,0.03444794888194237,24.310909136096782,-21.025156394943153,65.67866426250296,1735410949557.0
1.47804990542394,-706.3076688674491,-1778.9489751299984,39.99963199502345,0.07205789348364655,10.513435259912322,1.0443522625683062,-38.34214705164118,1735410949588.0
1.4637694113120556,-2074.2686920401925,-1808.857579124076,122.9338456985007,0.019483154551938754,-57.9215724883912,0.7958580732830443,-55.72097864104843,1735410949619.0
1.962347309124281,-1965.3888035399486,-524.0462593262988,-1024.1615729864911,0.018129730755796745,32.16346700479256,4.137510164891923,-6.106486439818031,1735410949678.0
1.9472956906284662,-2059.076545292035,-1307.1990992208646,34.92545369642158,0.024508523419658382,9.612807026517544,3.492948427478208,-3.73454438312518,1735410949679.0
0.4145896292175466,-909.3125987098293,-1085.0507474840635,-50.65565440361006,0.011773115137964002,3.4847089944118164,6.812311427596668,21.703714379988266,1735410949708.0
2.054826849720003,-2255.6490413601887,-1298.1034530700026,981.4419325194617,0.003497264626497032,53.954218212293426,-14.248650924960064,-0.029266740980114836,1735410949738.0
1.4501641917524841,-1359.4634878580912,-281.0560919822743,2132.29906317604,0.016109873018003724,18.75009165790383,-0.3296501501340894,-14.190103686736636,1735410949766.0
0.596486698367966,-1032.1098441654017,-632.9460160212025,-590.8085340050262,0.020429900346077057,-29.535570645384475,12.794788361283754,19.225663806299583,1735410949798.0
1.5315242338449906,317.02642620794927,81.48669862653355,1044.0777224573476,0.07608726598946022,59.78532014537566,-12.6693268821083,-24.51867539101901,1735410949827.0
1.0234634869407804,744.2454310439771,-1843.641306310269,996.2739201588606,0.03746735976856793,44.84914012536065,-10.049676722348075,-39.49002496197443,1735410949857.0
1.2425833424655324,1680.2753072071314,105.06039220555226,-101.16205220575273,0.029063150725014253,20.160933767217674,15.751762177297401,39.40023092404108,1735410949887.0
1.5828284685141805,723.8522515930811,-1248.2333641000846,-581.4428059619634,-0.010928153571084741,10.91156457646235,11.439127616058514,11.886956564549852,1735410949918.0
1.2382574857897617,2324.056802713357,-1795.2205381355793,849.1804815900214,-0.004865636349604506,-29.32235849485245,-5.08388434881414,3.6975138151006313,1735410949947.0
1.8236074732862002,2045.505560347287,-155.8133942355425,602.8727443024055,-0.00349160306360596,-13.161646438003505,-2.8957401162068894,-76.66812377130991,1735410949978.0
1.6411523666355727,1976.9935150534138,1088.0019031449663,175.46326860459507,0.00884441391427516,-0.8309489777627252,-2.8673157793354314,-20.289072377858734,1735410950007.0
1.323043187413325,3339.6332296220826,-775.4788296145612,237.75466352290454,0.015349662460145184,8.00416761055358,-8.006506296140186,-37.289228870255364,1735410950037.0
0.7515005618956088,2301.3916588106804,-1539.366254765035,794.404829294651,0.03530583829474954,44.68166035954796,7.553676288234064,-54.82197382677661,1735410950067.0
1.1415790193023383,-27.696830034072946,59.21138910680543,1035.282360853168,0.024324835834277,31.937557282934698,30.21147382824869,1.8207787040414338,1735410950097.0
0.9267708748616317,1572.712308546632,-1486.7893508525367,-563.1352882814631,0.011092993528695236,26.148777544910136,9.84163748745111,0.6120770142427183,1735410950127.0
0.16709504293806865,1282.6667405513263,-121.95806584289187,251.5774434315298,0.043052173057463186,19.341782766067837,6.687458769229188,48.03234925888775,1735410950157.0
1.5053622814267522,-899.9432859347711,-1407.114642495701,1922.2228256293636,0.016158678158683323,41.1665574491037,-3.614940557757836,49.60893976706742,1735410950188.0
0.9626720544722626,-1449.1483863125732,-47.304362011696185,-1073.0334121751187,0.06320618153247069,-11.252024164464832,-14.356819362208647,21.967835779929658,1735410950218.0
1.3104603544694973,-843.0588633071287,-947.171553043187,-670.0350939092624,0.04215572740080558,-8.233498768596814,-10.012290572214757,-44.569370187466035,1735410950248.0
1.96408016077629,-1896.1538476594683,-1963.435257252162,241.85933736573335,0.05417156455852677,36.51827588331295,4.150004509198963,-47.86269435417803,1735410950277.0
2.0258851414289496,-2663.154169708767,-1295.0231452219302,-792.4842753489013,0.03245932500771541,-6.671768420937185,-5.38062461398148,-0.4494679231185792,1735410950307.0
3.8583140474388826,-936.8460305782427,-3540.4178092362185,-37.87934892888197,0.03545236779403478,-32.87692887783858,-3.798795808962872,-15.5936333997494,1735410950336.0
2.6907358096166707,-967.0696908474201,-1227.4373161530357,485.65664495884255,0.012888713226001922,30.269745401757834,28.902946293290164,-16.958235570786087,1735410950368.0
1.083472191449187,-1086.709470355177,-362.03999214803196,-808.6335357295249,0.002713676352219054,7.936558133963166,0.8694041569715409,-39.19071481126865,1735410950398.0
0.8546326248265814,-370.7677036044835,-2601.5149755066664,979.5151506842514,0.05408047766666764,17.64995643101232,7.556075461453405,-30.216395598251975,1735410950428.0
0.9492689701932339,-731.4518790752455,-749.3550443243907,538.2360893370351,0.03283037235063818,71.05799369680352,-11.645116570841225,-40.26566692931774,1735410950458.0
0.6157050538651864,1390.8573365720583,300.1409389020224,-121.87440710861961,0.03634352468444084,-3.2619522640887375,7.2040369961565265,1.506709174372169,1735410950488.0
1.6113304832984126,1758.759612906224,-1052.2083724872623,1232.207427249216,0.023145336044829712,25.54373101976462,19.883622498497758,41.96724239778783,1735410950518.0
0.2663348488410944,544.6497896944696,381.39756665172285,595.4845719176841,0.02957286153579935,102.04608692137775,0.06690726164772443,0.3551338589912989,1735410950548.0
1.9484858132512077,1717.6523878287292,1320.0340549676325,312.6032137982852,0.009028143559562355,0.17336657144624112,11.76603170051695,7.830863923601303,1735410950578.0
2.000522547918238,1763.1679211081532,356.4528223513406,41.44161679288999,0.04195106322095257,-28.447947679864505,10.514375910301663,-43.372736914708334,1735410950608.0
1.2496748482013844,2317.2598157495386,1171.07230021094,527.6738490989854,0.05023573293976795,-4.627832213096436,3.4900377034293166,-80.59136029512275,1735410950638.0
2.8322833766707207,2594.0654259984767,-7.541677938440728,-1144.1231197921363,0.06446014761743238,-9.498512531296598,14.143648870672788,-5.4857952452784815,1735410950668.0
1.799615292871423,2198.345794472836,394.9445270662366,-94.79536538276511,0.02427382547407962,-8.987579374879545,22.67253059669714,-3.196497521361728,1735410950697.0
3.39382139980246,238.39189393801757,545.7260794598244,-614.5480994352525,0.07017104761103932,39.98171431183795,21.807301832703693,-59.51261061291376,1735410950697.0
