Acc_Betrag,Acc_X,Acc_Y,Acc_Z,Ori_Betrag,Ori_X,Ori_Y,Ori_Z,Timestamp
0.1945783796441536,-836.278899109416,1139.0221574128102,887.933059999527,0.045905665933503446,-64.67170768144105,-2.96606301568929,2.21527606214609,1735410324974.0
1.2689317668709208,-1100.4356116571657,-314.8352287669844,712.2331947484147,0.03647197136181653,-39.93118003769457,-19.364522881536963,-24.170343299926312,1735410325004.0
1.0165693423876752,-1183.9437546202564,-872.4706562193774,2256.4307145317025,0.05258887099971752,-38.38957684529167,-15.429671312372326,-13.768736855494943,1735410325033.0
0.7966340529079436,-799.0882940617939,1534.759569022941,924.1943078217881,0.05230551042282547,-52.57919921033499,-29.776578581127183,66.06965709086955,1735410325063.0
0.6426598065901495,-76.08624926775587,495.57671119137024,421.5776079389707,0.02946363795131923,-10.99914402475443,-7.010862522123011,49.92420806951199,1735410325093.0
0.7569508544643461,1222.3451140098705,865.599544453922,1346.4430223038478,0.04153649109985883,-68.48445222470076,-15.352624324581624,-38.07147352908139,1735410325123.0
1.5150448279716238,1134.2093182606584,1284.8998766799027,834.4397436833618,0.034112834849696225,-8.674663213117821,-8.86936197284464,9.578147732756646,1735410325153.0
1.8349227461994864,-27.689681804490817,1202.1600050293273,304.28431375230923,0.02578783220865874,-57.733558826601154,-25.114572576281994,5.654422373676757,1735410325183.0
1.0461869137661628,694.1843751176733,749.8377589997358,-406.16394101583796,0.044606727002335526,-34.9914215856798,-1.3867438784367465,-40.857795677291776,1735410325214.0
0.6941085198000871,-767.8661483759349,2329.690080903596,-161.24074711176684,0.017181393651239683,-45.66584700176428,-49.950618842693345,-4.117202880954007,1735410325244.0
0.4832233379014435,-110.11406283198161,308.36472635973706,376.87611342667697,0.03620818362497561,-20.004495638564663,-33.166276486536496,46.817031220034764,1735410325273.0
1.2142659219797238,30.739581690972386,1044.0531481518422,149.13249689229798,0.02740147126320298,25.73290245641333,-20.026915714725046,-5.893827214976163,1735410325303.0
1.010089217352008,254.5235013875604,742.1229843105734,234.23147324967542,0.05549434979308063,-4.673005159225667,-13.455555436286566,24.148717702842788,1735410325333.0
-0.07799855548300283,350.2848402448085,564.7106833529231,-365.5704349138085,0.030259263961657106,-21.623381023952533,1.3771767956174443,-3.6039554269729717,1735410325363.0
0.10538606001954054,216.30819833310989,1014.2724732266536,122.30273289695727,0.022256070571145422,-12.645756003435267,14.198001926903592,-46.86490443955391,1735410325393.0
0.14983237960739115,107.4090280782616,1521.782712324308,736.4066982742621,0.036701643252338996,3.785517272573605,-21.25545670500958,18.694323872020806,1735410325423.0
1.2498915236805048,-1793.4268684663946,272.2091298582039,-1396.4549150935227,0.0429089916953246,-23.52449153704875,-10.594622764670811,-27.836720301217305,1735410325454.0
1.7101168568792855,-678.7731733345419,1312.8928539441922,-585.9084019268837,0.06540636730097213,-62.7670130968587,4.824126728944428,-71.71182417155336,1735410325484.0
1.5121747052047536,-1408.6169418520658,961.1244158384776,-9.093826728948898,0.04879528906080515,53.24084473264887,-6.745526861576868,-33.76400800364189,1735410325514.0
3.0294488266318296,1719.226697716282,213.41773263559855,-725.0688382365843,0.04475560542194995,34.122057086516946,-24.38995022985312,-72.86634137240111,1735410325544.0
1.5015996038396076,-1728.0290175770351,1063.8582853629302,-477.06798553944043,0.03765633183618264,-16.750589650999416,-13.987180932022635,44.15389335922369,1735410325573.0
2.1899649087248156,587.2906378738115,479.8861842339679,204.3574408296172,0.041653521552119634,-31.271938311208377,-25.284454053265655,-41.93757874714718,1735410325603.0
1.7105307281868325,-41.76314012973546,1017.6986536126655,-653.8113293291848,0.02006185588204938,-8.058141803727123,-18.230228418644224,-26.089470925871197,1735410325632.0
0.6493912483847765,1032.3649537600322,502.6850911218694,-496.83337321390485,0.06681761786488921,-39.96571310086347,-6.934689603415671,93.21409967479657,1735410325664.0
0.8335900658801483,-430.93823682317213,401.14429846497643,244.0486456566182,0.0795563366032365,80.37939861997923,20.71757871354096,-21.37624219457171,1735410325693.0
1.2616360623921548,937.5203784679437,-1029.9658722545491,240.18943629420596,0.04045021718055747,25.33496458196946,-0.0306495983525501,31.183476153494762,1735410325723.0
0.47166105881290826,1006.5797406929723,-1000.9941527864386,-1178.1184971064436,0.033452425312812985,12.33148053554837,-1.120551512428344,32.093660267247515,1735410325753.0
1.0401058427258871,2272.633157516161,1175.366536270474,-1397.7220858951587,0.07918971993581173,61.720001390865576,-12.22067701420878,-65.19340921263077,1735410325783.0
1.1019778118212469,59.738317636448414,-961.2655973190576,-1015.0092424365458,0.04406698345664131,51.84234041371142,-1.6074414937380288,53.672649943318646,1735410325813.0
0.26112994115159294,-104.4623841571796,-1229.3889518355682,-326.8786893893756,0.036598505854952106,12.632666863927142,-11.78400278492474,26.760384123051654,1735410325843.0
2.1838491613707336,292.6064359104084,-721.0050276707162,-501.6874758559371,0.018813079677556136,2.134425463523648,-11.617514643527397,-69.10106965320475,1735410325873.0
1.6833769313469746,1124.9419776174814,530.1205028873349,272.31313131620004,0.0399453082021033,32.44733985359692,-17.3678378687446,-65.0728237960129,1735410325903.0
1.7493610762152887,1029.688017279702,-1239.0844841400224,-371.15071105805146,0.04963142220757772,-2.8436124932042617,-16.150116820299356,-26.89314311713184,1735410325932.0
1.649418696739438,-2667.6222583339204,171.17896523043623,365.7527977847375,0.08450600799224647,50.857426941867956,1.2964017844372115,-59.94337890852435,1735410325964.0
1.3358310714243284,-1043.5111915246753,-1739.9234400274222,1412.3226533552906,0.06712369951164486,-29.519879977815847,-2.578201592318125,-31.302045221551047,1735410325994.0
1.5407356371535526,1535.5193859560472,-349.3603758760719,-397.4029410380243,0.06280243568373432,73.18600892996544,-3.495472669172605,-53.71302417932349,1735410326054.0
1.1009201353303906,2034.7676546987793,-529.8532435757991,77.19095291377141,0.04542988060324376,-31.762131277420032,-21.3492566863237,-1.532837009921673,1735410326084.0
1.1039226142223935,1050.1284707475168,-634.6877422203314,-609.0868742443556,0.04080593909937949,-44.94767918528059,5.335277892928779,-17.89302352886962,1735410326113.0
1.581212571797313,-536.1903721178651,-925.7804264664609,391.3297310176626,0.052920027207829304,-29.51798713783964,-7.222574296966051,-65.97243072745826,1735410326174.0
2.2407275977520333,-475.50639192808745,1240.0914599517369,-1051.3209752816667,0.07061821967970615,-97.02001868443543,-9.461994729201365,28.04996562158477,1735410326203.0
0.9948973558502958,1415.2472337468669,-654.9588238974969,-644.3714810890546,0.04910536841203642,-36.24170821880433,-22.974686163520904,-5.68088552458171,1735410326234.0
0.27636266146690247,-1536.0221283443361,-547.9361227304369,-643.6191027607231,0.024948916636944256,-78.26140167445405,-22.663368547856052,-47.92953945254931,1735410326264.0
0.33797340511976837,355.4327042903577,-572.9663690920815,1089.3845572530108,0.06070404234385578,68.66899121791072,-13.342121156185883,22.721188861243064,1735410326293.0
1.1889587918574216,-594.9341851587267,-893.9076451300737,-172.19268961834052,0.03573687675932481,8.881540086383374,-13.022956118042684,61.04823776529847,1735410326322.0
0.6455390497679888,-456.5307664859054,-597.7419091888798,685.1326312103231,0.06084647444613286,79.67135801489749,-31.533260792426418,52.54441134858351,1735410326354.0
1.2696211694741217,-734.6686658139611,-722.4172260289009,517.0077009332024,0.033812416117644996,55.07492790960954,2.015783969281933,-28.848181232061204,1735410326384.0
0.889038438312443,-560.5937325446528,-835.490777669688,150.58428523459654,0.053061613870268295,-3.4251489482397304,-14.750568929629802,-22.50198743902384,1735410326413.0
0.9484502950465682,-1239.7038328264416,-1986.4434381870021,-208.5995672158947,0.03947124181538974,73.55867075664645,18.41012880917883,31.017022643762775,1735410326444.0
1.8321664756896339,-2431.4191082040206,-451.9402608669679,86.11018581791689,0.023541967020646166,30.900737910984876,-13.941126395546814,47.52990752218837,1735410326473.0
1.04496160148025,873.9391507028126,-977.4851012970776,230.37480697128296,0.031859108655969026,-17.328689233322287,-11.275641628013904,17.016184024660344,1735410326503.0
0.750405046753083,-1548.1628112225983,400.32627785837485,1343.4931753734195,0.04597605705688801,2.4650208484939284,-16.75281597948142,-32.07922604590323,1735410326532.0
1.5341475873014117,-312.48840679333694,318.51063605743076,-483.02100264649573,0.04979002632809439,15.57457613277278,-11.14767677130639,110.63028819955574,1735410326562.0
1.1764978109346558,46.498836218363294,950.5196228325934,-840.6394677441117,0.04968415861534839,-31.35497038337631,-14.117183414366384,-18.756040222267906,1735410326592.0
1.2688994100989528,-68.08974593561425,212.5142285198272,444.1205441614119,0.05746419218965605,38.043150543376804,1.3674843917422184,21.716410203979336,1735410326622.0
1.0605571979704198,-1716.3074643351842,1508.319721388083,698.8382188903337,0.05744030529317232,102.3699247512588,-21.209340044588814,-20.632733732596286,1735410326652.0
0.9750563795935375,-1242.8699594112122,177.69863275563537,-799.8202980362151,0.04027910598106925,76.32599692054303,-0.8536283407981999,-48.80283227776607,1735410326682.0
0.7581984116876326,-1593.2637878764167,-1088.416027864115,164.57118047891095,0.0389191949144477,15.434577280183557,-12.684444112478005,-8.089763011936395,1735410326712.0
1.614012155738572,-1298.349974598772,514.0577550477692,-779.5454435273514,0.04439273755264015,39.79841214484293,-12.142974691777313,44.16611675909468,1735410326774.0
1.3050809004396657,-756.1747425862684,350.2459383317281,-949.0229667536397,0.06973083194326135,67.24421335389084,-23.516372456274386,112.75071064215072,1735410326775.0
2.5621668095371626,-468.78484786338237,1347.3143054741772,-369.360539063718,0.0785860753533091,-68.20803322421798,-17.59635471482716,-12.750187784365021,1735410326804.0
0.6293124530258561,299.0581319580456,1380.1392135594172,-1929.0160570628295,0.05083877093913895,-28.847791864208233,-10.748707830308756,-23.322279705859977,1735410326834.0
1.2347638657265325,750.3187066103703,600.7468706122172,258.2865765992302,0.04751977697499931,-52.02377314086814,9.307945351113418,-52.66058946512808,1735410326864.0
1.76314132451217,-2019.939430702704,-344.3825929903437,148.32464270591908,0.046920245015471686,72.22985206121508,-10.670057766937536,7.172913489815677,1735410326894.0
0.9325048516988779,-1624.7811407411205,1675.2249343596827,837.6993314530193,0.05249571250863044,23.21566296196256,-13.451006171568306,8.427837091843813,1735410326923.0
0.9297091563528439,-1121.4219799650512,813.5715122318603,56.951306461553145,0.06742212362343668,64.08732826081707,-11.541159372901117,-23.517940884593433,1735410326953.0
1.5316192872860102,-158.25451778920825,-272.84233223558226,1311.1844836690561,0.02180678535477009,33.257583924304775,12.312413058344813,-76.92764052286165,1735410326985.0
2.6239921499837067,58.85205322854722,512.6535872040197,230.48808953235505,0.04686902342597045,25.055612890182754,1.1719690296883893,-11.300033002261735,1735410327014.0
1.051429594612756,-1242.855153055865,629.221228732104,-1142.5181601066442,0.062144281732281065,16.504164195639902,-1.3927675574902456,-54.3343096709099,1735410327014.0
1.1637440073923735,-271.53841437268295,858.7160743075482,-1284.0536407302843,0.04106584260681676,25.82004847869556,-2.5814257464127075,0.37364548949805254,1735410327014.0
1.759508438223615,-159.33281159808553,427.1936960175411,-866.0197084792593,0.05689980629317254,61.8440504180912,5.511255655037692,-65.46875559964488,1735410327014.0
