Acc_Betrag,Acc_X,Acc_Y,Acc_Z,Ori_Betrag,Ori_X,Ori_Y,Ori_Z,Timestamp
0.7679604125833983,300.5602989406993,452.15289518214945,1900.6587698177918,0.025273718692963063,-10.656221662974097,-2.8025534270868544,36.14004316415486,1735411024080.0
0.5436699250526335,2469.3014354002153,-986.1303003073984,-570.7416333879859,0.04271531495845543,25.964178986419626,11.134273357598865,44.867383605455274,1735411024110.0
2.5288477682842787,-1190.100097960361,-1213.624718490758,-384.6261720629002,0.04918814746687245,31.485334983750615,18.72506745316569,-12.709584685332082,1735411024139.0
1.2242369061127256,-514.8392923476395,-2690.7444462136164,384.5145253308581,0.03809795437381556,6.8362623359143875,-3.7982047377495087,-21.492168532610528,1735411024169.0
1.228333571213432,697.2693095354838,-2123.0724878899646,-24.830846674638167,0.04030162880732459,-8.193033280089384,22.757965862642024,-53.84897194678734,1735411024199.0
0.6327370547151824,1182.778762392339,-801.270653239734,-218.471963056803,0.02204106139347104,17.04125510311329,14.207869568892932,-47.92893174244469,1735411024228.0
0.9169631563117141,849.1253384413462,-1249.130409536417,-753.1189906077113,0.03496904372439012,-87.2332986354489,4.280810728988802,-61.60978317635026,1735411024258.0
0.6112062548872023,3032.19343310852,1430.6992642652233,1080.1726265991156,0.05962793283455395,74.2505547969374,13.50171114414584,14.448549207826016,1735411024288.0
0.492569472916106,209.2957778518071,-980.1615251863369,1754.3872011329674,0.02910364238276146,-10.716241213932904,-6.6437745647015785,42.0799239036027,1735411024318.0
0.8810083243054694,1731.0917237317335,-39.449917219005044,1460.9749536624054,0.006922415479401773,-21.677684339163097,-14.34610615112296,8.461351396858989,1735411024348.0
0.9461335036893798,2045.6703546938986,-628.5828999653602,-1033.948629578903,0.012407958357639519,61.62710647940829,3.5408207187180043,-11.009300540442833,1735411024379.0
0.7857579455579415,19.3725995216505,-211.8376189293492,-306.83405070747665,-0.0070551148378229355,-29.60749347660893,-9.856308538913758,25.084257294081365,1735411024408.0
2.17951968609184,1052.4698768572625,1125.7223611608201,-283.61875687055624,0.011988552050203582,2.581891693993084,20.25810644516025,-23.51662894979249,1735411024440.0
2.207898947093127,1224.134578061997,750.3207325233998,651.9804684085576,0.03500035959369164,-46.052828548576954,19.488647086949186,-38.72001680316808,1735411024470.0
1.0579176213867594,-203.99325433335594,-1128.7657326883636,704.6491860506823,0.039585858665943545,-35.21274239485682,17.646976540850517,-18.549215011045085,1735411024499.0
1.162236855629079,1614.6086791598632,-521.9169899234242,-517.9581607284838,0.05342324525829612,-64.67577764872136,-1.8550713260259801,16.66945325775762,1735411024529.0
1.556399440658527,321.47473626527767,-451.7177174535665,39.2304527584071,0.038683892263568505,-72.1252557320206,12.9212656169996,-24.263107293863975,1735411024560.0
0.939555535441747,1377.1034254572355,363.6883949053488,1239.9202283575062,0.06195861236473019,-60.86890747402947,21.44035383080593,44.63917018354985,1735411024589.0
0.9153974897286992,1519.4637977069124,591.5630982529469,-950.3572063152419,0.0707218881404056,-11.085703236600665,-4.491072137533465,-49.33111012953161,1735411024618.0
0.36764875949349984,-256.5775484206181,1136.887982395417,274.5450639567103,0.06148597380681278,-21.251059795571955,-4.026974765937995,-21.487120238092537,1735411024650.0
1.4109731920818553,2259.4402341188525,1691.51368590286,-604.395100858844,0.04261529413130367,-28.337911207173313,19.063679879996275,17.892550591883612,1735411024679.0
1.9314235976273852,926.4864706659031,74.30198674758152,119.67426386547234,0.018805510133707504,-7.174963421600616,19.12043786191568,27.456661392601436,1735411024710.0
1.2652223076029379,-576.015112381267,-174.79625961300695,-300.8912682202006,0.04414106106095113,45.46958263736688,10.445711973046569,-7.520265156627101,1735411024739.0
0.8877417444746399,1097.9434830558912,705.7918607562822,-199.0122886020213,0.05593796358923265,-22.350589307868745,8.480342418255756,20.525891095376704,1735411024769.0
1.172466758842216,-1209.5605251699099,469.0808977792229,491.89762499514495,0.045510526401892626,-64.89421624777749,32.748973062621495,-10.668812443310706,1735411024799.0
1.936572781362245,784.67829097704,2233.789265404922,1085.0479829498681,0.018957603781721667,-28.809672810256394,12.96359663585521,17.052656931367103,1735411024829.0
1.5661284019244313,2304.4960476717897,-1007.7904861891438,-670.5079387958052,0.029369792103911548,-34.764707055607325,12.064994050900886,37.744032029862694,1735411024860.0
1.4061446892771883,263.47610312688994,-740.796261701867,865.9780825388393,0.0549405174492337,-1.3461758467994933,-0.614403290450956,61.19788980023023,1735411024889.0
0.9093475558810037,-350.0642890093991,1181.0487498012499,696.7162233273535,0.03802087173048079,-4.873759075921356,11.685099010593396,-15.276331565822733,1735411024919.0
1.240007129013089,887.0169834694192,354.87660465909585,-1001.6936903373626,0.02191894770892145,-51.18700861084689,23.7158702231418,7.2885215069228435,1735411024949.0
0.28287084859873635,1747.0883091554392,300.52265630669234,25.8856387892872,0.01735882627268155,-67.56704109324973,8.986513194927863,43.761456161093506,1735411024979.0
1.698715908869843,2035.5961934109403,1577.3095682522119,551.5931042176439,0.02908196530593795,-20.78841010484766,17.10542320859845,-19.39781061309074,1735411025010.0
0.383360589351337,1018.9030204893234,1362.903433209276,-1337.8038310212905,0.06554352773017436,-24.792373365212857,0.524306736776873,9.221260525888717,1735411025040.0
1.3318600490545083,933.6972797745723,278.25965640797864,-829.1652360822302,0.05744472125115546,-16.225377949270083,-15.585249403517693,-20.62308703063488,1735411025070.0
1.3843955053410388,1350.1608196378243,-684.1681862353365,191.31217272739244,0.061807134499141714,-28.775511126622053,-9.016239524258166,-55.190846406925495,1735411025100.0
0.17039841676190293,-188.4052458393545,1618.8160148815466,-629.0370558270695,0.059011555697263185,-50.02165841073024,12.038721132770156,-84.28412811096749,1735411025129.0
1.1849825031453085,901.6758370449235,1504.1874827465178,-228.2884005023908,0.051722731510006524,-24.15504554736982,11.888520169403336,-74.99360308666024,1735411025159.0
1.761110800018213,506.7338337206462,770.5059044682716,-528.9995963361185,0.031531194365229775,5.785191487772204,22.114792858306465,-32.39041278882737,1735411025189.0
1.2978661976483563,-541.6833099581104,-995.3856823691812,-441.7454963473981,0.005687256814253161,-2.901466801920898,6.942356454621159,-30.198115635392625,1735411025219.0
0.9912761055577113,2474.775082104169,735.55632288597,1077.0070175291855,0.02698558926407851,15.922299137138076,-18.97696026452727,31.98409909399078,1735411025248.0
1.5174677964687704,3080.786447708402,-659.4674996705038,279.3537387121763,0.036628246553608024,-0.9238364049740895,15.258944701124928,21.13112026806417,1735411025279.0
1.1099197835851662,840.0609463526318,855.7056540865991,792.1984428086391,0.03898885253240621,-50.81845046606614,16.353425383973992,57.08282639541751,1735411025309.0
1.0198803036109674,522.7972332205479,740.3195058248862,301.6164112052382,0.056628717237686296,-12.466617986097459,-2.798721882329664,13.14230166852714,1735411025339.0
1.6156776115579112,1882.4835729039303,445.27571797767314,715.3767543978436,0.0027247158171425246,-4.492054447978776,-1.811563088280252,8.719157645672912,1735411025369.0
1.850218057189011,573.3115651600558,-232.92325840989537,360.2785438158436,0.015232776493241696,6.0395906079951605,-0.9147101880614676,44.02850735582399,1735411025399.0
1.818869384585774,1735.467777105945,-758.2556964368111,-65.69284245408863,0.01769373567876388,71.83622772631375,4.635835012965463,-13.831387783345285,1735411025429.0
1.213664582390185,2103.2650724046407,-1364.936014973044,553.2381484673078,0.04018147533436952,-1.3923260093205627,-1.2486307854749215,16.192471073426947,1735411025459.0
1.3641710068052453,50.044233973128144,658.4430470920975,920.136570818083,0.0530865897654974,-2.4585381324461366,-11.218391343871664,20.331643130202814,1735411025489.0
1.6770364748804698,-88.49737173047902,-246.605134175934,-12.670079297807291,0.06971422500314009,37.75812731631412,14.284228518007433,41.2142710257468,1735411025519.0
0.6717891686604462,557.0747520058429,354.72963076887794,-194.3480500996904,0.06303837790768776,-62.71532997092976,4.437587451900321,-42.59989483515759,1735411025549.0
1.5718290838247686,746.6445300906921,254.21531791920455,291.26522168829365,0.03765606429945269,85.55269736147218,-26.39813031292336,-51.54780031446636,1735411025579.0
0.784544363538475,1573.952699306108,-932.187663781147,526.3657888450131,0.016895594607207683,16.148910319682642,-16.905654812557948,7.354459781169542,1735411025609.0
0.5789380836692785,-632.4666000864913,461.49513101523013,190.5173791714013,0.04085949853226833,-9.373412632018741,8.035249188906478,-20.369307083913693,1735411025639.0
0.5831621918146768,-313.57696764839625,771.843672667257,713.82479681574,0.05299300208931537,16.921854906983814,-20.82940845901427,0.7015870230149872,1735411025669.0
1.4659057078135227,1798.8207569442377,1085.5748866518088,-1050.9499008509151,0.08248648614654427,16.02094994534344,-9.954944010470822,-35.66373467285106,1735411025699.0
1.2070429548245025,681.7190289090167,111.75733217835497,-935.3202996373335,0.05318573095931293,46.99379150756053,-11.98296527093663,-29.707283371232474,1735411025730.0
1.5207474432618324,0.679844192390874,813.9087004535734,-2371.985092225161,0.020384902990056998,32.131591606133966,6.25510872954948,-56.27472091377293,1735411025760.0
1.264405556954114,603.5135625003566,482.45788897550904,-650.4989273703619,-0.0021586159918972024,30.232172062272664,0.11626354652411486,10.915556328873496,1735411025789.0
1.0347816631206586,1336.2948183402964,-220.8381918056674,252.7901131101668,0.039585561767769006,16.4489951801842,-13.688731271152403,-13.84422634193689,1735411025819.0
0.5501026670233103,-1012.9421303922377,-140.6131823283245,590.7290547057236,0.036211470656186816,18.03259673876862,-15.322505151357301,-27.848475408377517,1735411025848.0
0.9247977304721104,2231.503913787362,864.2463292660613,-274.59117582417065,0.06241429171633983,19.346423980681184,-0.06422645784558867,7.747492481072964,1735411025880.0
0.49238573222280946,475.0750600540125,1305.3483831254534,619.1383918367369,0.047287044812428354,26.187383819926904,-10.114251340702307,-35.863856315483496,1735411025910.0
0.7517836474721155,111.50873728058275,267.511602447523,1156.3776031048683,0.03889323295331307,46.50155667762865,-11.066585608288861,29.205343035067237,1735411025939.0
0.1973505644056428,1469.1967820284126,90.28341136271452,581.8545184922207,0.05150546834996412,-92.98794900119029,-19.66781221970268,-38.77664785364208,1735411025969.0
1.3067289017436163,1995.255945117175,47.43750832045515,-1397.3435299277137,0.026463430616725455,-36.87421528010265,-11.977753346293468,12.404507202262558,1735411025999.0
2.3685674610941145,996.2943637017523,1393.1214921617677,-1615.5920026886029,0.07068069876469557,3.491597245187333,-8.232078719210412,-29.521392264933045,1735411026029.0
1.8040817938443998,830.0082156046219,343.69432853268415,176.43927171492373,0.02937347158765166,19.134999456682163,-19.52437066881166,-66.79243748978206,1735411026058.0
1.805342202860991,2586.6505018468124,-714.1541748343662,-900.7333244973788,0.0277824620991314,-5.282434733892309,-4.714645250598407,-2.5982087258395055,1735411026090.0
1.2721335821785826,532.7922768650301,13.658034139694024,-531.7064809816022,0.039900479040547214,28.933157242116643,8.904495170860002,-41.45388534175655,1735411026120.0
3.2308428053729195,-186.11539987617084,520.9310434872053,-1382.1003855730048,0.041238041071906775,12.881559372954355,7.174938773792894,-71.86044481147887,1735411026120.0
