Acc_Betrag,Acc_X,Acc_Y,Acc_Z,Ori_Betrag,Ori_X,Ori_Y,Ori_Z,Timestamp
0.2130450241757974,357.69352645170807,332.8383317712478,-342.62097148512163,0.05000638854702025,-35.89523451825707,22.239530141989544,56.61101454776841,1735410493908.0
0.8969980108102117,0.45666927004824487,428.14334144687933,-588.1372742298746,0.07082166542225632,-28.409222986379994,14.054888593848286,-18.12320208557707,1735410493967.0
1.8212212249135733,1466.6454302443567,644.5943261803524,349.51839881387787,0.06554484865337465,-62.47047118436656,0.9705155201141711,-0.30001653296483966,1735410493968.0
0.9174741921612656,202.1683981180319,-116.0232201601475,-1132.9154892030047,0.05268211422022961,-19.99170366860009,2.2934337366310507,28.211705776726653,1735410493997.0
1.5695588769251618,-913.4518534300198,1978.7623441763617,-1267.3644630917606,0.053134920655405406,-4.825179952702296,-19.744468900101765,-17.524342060949287,1735410494027.0
0.9155898261668463,871.7871040280239,893.2819120260428,-915.9788030749047,0.019929536104621136,6.195027326601782,-15.058810361987211,50.51670867598658,1735410494057.0
-0.047407582067981346,-47.209400930557976,277.07442895729884,-1253.828777736754,0.014189309241855883,-40.42947257982035,-11.123667502704523,23.644964013094235,1735410494087.0
-0.41104905321083074,76.51367340392966,1032.1029231126859,365.27502834722213,0.003749937766201465,-7.777561224139786,-0.4449987755276881,43.89347315032223,1735410494117.0
0.7680587242266963,-1276.47583660148,1029.865554975626,-1801.4383345658275,0.047701713014959776,-46.57851225950803,-13.018953103743815,0.020803818106192473,1735410494147.0
1.3273621782168035,344.6120546361707,-1123.708597164159,-123.26775560531848,0.018743672098517985,-0.9387870039638955,-16.880884535376993,39.63232592364214,1735410494178.0
1.6045458935830799,1478.0628758827052,1381.503629235865,-1996.1574294143456,0.04279522753255052,-22.82580658445711,16.99233585488284,26.996585856884433,1735410494208.0
0.8268608224809643,41.76643600989436,1439.0835550307634,-280.70027196415305,0.02771344225841488,-77.37337903768088,3.069260404380067,93.26276935488937,1735410494237.0
-0.02801995939082691,1956.1674455603402,1078.5200035766447,-1321.4776291586595,0.034324811817043936,-26.89220372001903,3.210831072954784,-22.647085790294614,1735410494268.0
1.0471357039677567,648.3809124246515,1266.1594398931563,-285.41511614780353,0.014818909135105977,-19.114017372810892,-12.578066880424982,-35.50437834889172,1735410494297.0
1.7655622882781257,-623.8908048695414,1749.4431430884763,-1135.5071421611005,0.006674456748775769,16.11974886164643,-13.73116548015015,43.655149471265034,1735410494327.0
1.8427152405098215,1722.9650842713063,204.70938631760563,-129.15581282134394,0.05568210843745948,-53.215702202841044,-18.119769439310808,-10.389943092272876,1735410494357.0
0.24479478818989664,727.7656837753574,-1597.5088009761714,-1780.5865754094305,0.027200436550135716,-52.7490648946243,7.41649460627984,33.519521095491186,1735410494386.0
2.3445881122536263,-1387.0690932287218,1511.8637779278235,-290.4853161963686,0.07322497064722076,8.335588313239235,11.607275857053587,56.811176873338404,1735410494417.0
0.6147352678675939,-1898.9392587068342,1951.0817264493437,-934.9574283707485,0.06586272271191798,-10.88720574496088,16.868573721667786,-55.72206668773505,1735410494446.0
2.2191077647625796,-2804.1700432021753,2140.8755815824416,53.911633235510806,0.05580929878697014,-31.813928928821138,-17.806090059429955,-56.140034403814624,1735410494478.0
2.1025814042508872,-1245.364393131144,1717.2171756294856,-96.89924822656707,0.04475867826376206,-30.983308876304655,-16.09966239862249,-9.00015878509384,1735410494508.0
0.8803230733063725,1048.0497713967725,-1.3370585859591984,-1078.3448934827054,0.05242533651774698,5.335768982908597,32.09419920233105,-6.912082817341183,1735410494537.0
1.4018567241734092,245.7827402093411,-420.0936553786105,-2492.655160050533,0.0662208556440246,16.747357617187127,-5.069452547673827,1.9787896780145076,1735410494597.0
0.6277204268622952,-1360.857985892537,801.0318353133082,-584.6109566716775,0.07950601515149675,48.411963027638485,16.137258040368817,-20.60005375261173,1735410494627.0
1.5906120255608494,-1495.4055087389927,2143.862714990614,-816.4096188382471,0.07376891677313265,22.94573456771819,4.099697200131084,-30.08904386296699,1735410494657.0
1.4708149924115794,-1275.2448875692232,-400.7473023301427,-971.952117881732,0.05673050698636076,-63.983615465153065,7.0124809988745405,-9.035715436458375,1735410494687.0
1.3518205218285342,-494.8309210727425,48.81641676594566,-764.8676048912148,0.043011240043638335,-31.557037533353984,-0.42666640551547674,-5.813641215746099,1735410494717.0
0.9178558744923535,295.80611210528076,467.1184846382992,-375.1727284738626,0.03284911270997744,-60.42310708632626,4.062207348679008,-43.41487942752145,1735410494747.0
0.7189259385347555,907.7400388391485,-193.6104120374887,-1038.851641417248,0.0322973310603447,99.83338465059217,10.197673308094773,-16.865003476452554,1735410494777.0
1.6638251758968643,-315.65796259907984,-648.3217929347945,-1935.3933640797934,0.03368810778324849,43.56239253077139,-6.6913370390265685,-74.25838370992011,1735410494807.0
2.272111849578067,-221.97334249180642,313.9766987984982,-2805.1590177534763,0.06393239537737626,45.70544958714512,2.213461232416422,-0.2056784424173621,1735410494838.0
1.3339009061535645,-390.2436024313221,2229.0131500696643,-419.04300198552824,0.07129559388238448,-80.28643994794449,-11.309028215929239,-41.659514020220925,1735410494867.0
1.5857860228981813,-989.8215578039177,773.9355460173406,-926.7601608328353,0.07328458779854002,2.7269043737966854,-5.150952458889024,-4.145404618466095,1735410494896.0
0.25320008387581394,317.6180424968293,807.2350308732492,-546.1376484326006,0.06525379220835045,-49.079881348861775,-0.411567768091627,51.196606803305464,1735410494928.0
0.8224705278309011,1229.6730453057908,566.2461788654465,-902.5326899012426,0.019681485312892436,-7.494271529834769,16.843020431361943,18.9398966970788,1735410494957.0
1.5808654090098369,2675.996474881691,1097.3909045217983,-499.6857262178945,0.05913747429843245,-29.046784061806555,6.634537439496116,-36.28091974546882,1735410494987.0
1.0369505965097061,365.7394315221578,1207.6437658195696,-720.2015346297491,0.053640549387510894,-20.740819319283602,2.921204902404817,-68.28411541951688,1735410495017.0
1.5126714998128492,-1192.8330853881394,1307.632355352159,-1364.8962890442567,0.026070344725285653,-25.981990140190952,-3.6599509757057263,-26.04407398313498,1735410495047.0
1.704949529224277,-213.90781659284238,153.07719392524064,-437.8126788182184,0.04506590316051885,-60.681563482558374,-16.69208478857241,29.859225089383443,1735410495077.0
0.6249781541571382,1378.71668464851,1334.965481382862,-483.8988850358471,0.06597376144697556,-64.36146003824433,-28.68132737580065,19.037779860317865,1735410495107.0
1.2975990186583852,-780.058494355141,1527.8176456761237,-1147.4919503839837,0.04195390777815268,-15.762568034224287,-10.368821093679434,45.419551890733416,1735410495137.0
1.5157939924482817,1647.6741869653606,1082.866910138639,-1868.5937032912198,0.05460778133947232,-55.42878026927417,-6.888553907800336,0.7629628981378964,1735410495168.0
0.3017269434547295,-703.209078859212,2270.7306121196225,-1612.114615725612,0.043194838812968,125.3758572830812,-16.07647326909361,-10.315434327722997,1735410495197.0
0.4958514731879163,-1196.2325499527785,668.370058166995,-615.9624891336364,0.04651613576061896,-75.6561120791623,19.53476104267779,0.6277743816001298,1735410495227.0
1.1787648068593874,1244.360916503327,1461.8001457655473,-670.048631886257,0.060135460790132385,-63.50585231932523,9.005062864278466,36.63180789319111,1735410495257.0
-0.06986339865171776,25.848482751840038,220.23060426572653,-1674.2457159855383,0.06082250029005252,-49.74573833514699,-9.168045891002704,42.11072731367909,1735410495287.0
1.9033591028404662,108.9777659202981,-238.45610215269915,-871.724887656138,0.051890192907748454,-27.79640985297603,-0.11714034092819159,55.61906112893871,1735410495317.0
0.8553080695154679,52.65762598911121,601.349302362668,-787.560237847348,0.05652333587267487,-67.13156137878556,-15.248553292853623,68.11112875503763,1735410495347.0
1.319934738023944,565.3189518106087,491.8499924951245,-250.53350874114346,0.06525648879820443,-20.96883695573864,-4.164092463285042,9.75175774115614,1735410495377.0
0.30382138964672223,-10.319094286060356,-14.140827972621423,-904.1294200509932,0.08414552918890988,-63.5271240443586,7.47040312408611,72.57102733530952,1735410495407.0
0.8113978892304303,99.36850077335359,-43.19502624118013,-1205.8275292932976,0.04426062212963815,-42.48007995249829,3.1592952306895086,-1.5434942102004854,1735410495438.0
1.016528198555002,-116.13347486153049,380.81809855728136,-744.1553469988123,0.047149778207080766,-4.50262576900084,8.18532735734081,58.702589304318415,1735410495467.0
0.8943728694827596,-541.9294213594482,-430.69725309181854,-495.75015722175334,0.021217927361890924,-49.48058230973855,-23.64344849057963,-15.904824894514418,1735410495498.0
0.5244637957567702,426.2503551793775,72.84564008718934,-684.5984467322044,0.02472481393887605,-0.7646495992042972,-26.418512951474142,64.52905247332392,1735410495527.0
0.8614526933499285,402.6161926860775,-968.1081308905723,-174.6587613203376,0.03628514604909943,-24.378877427398614,-3.4880069438250425,44.29587931333642,1735410495557.0
0.04432352912382065,385.3343718283857,1503.7293978813393,-2050.0074715106152,0.019643822705863297,-27.593633645793616,3.9204209391222893,-2.5231633871053987,1735410495587.0
1.167328966107096,1063.609029579547,618.4317716320396,-942.4079841289008,0.05745430487078505,-40.556382591349355,-12.831092719885532,78.46759558676979,1735410495616.0
0.3163998958402471,1300.7740992486054,-153.56896636871875,-303.12561598070204,0.04261384134174003,-43.13503806577348,11.89710132315895,78.76265026590058,1735410495647.0
0.1689597858592835,-164.10026106657477,1421.875380139562,-626.9899751913122,0.07023902539386463,-88.4404763183608,-10.524476221441404,37.414411224484496,1735410495678.0
1.5983358952530935,355.6763061545063,347.14289442073937,-1413.7273159674887,0.050056697539117574,-93.44249117899626,-12.186047417911142,-1.2819210151156497,1735410495708.0
1.4187339283404987,-1457.1306258974946,-186.49469213095279,-719.951181420905,0.046185793049621185,-38.851752188220146,19.352081513146487,30.326642728444185,1735410495737.0
0.2642632812064307,513.3422690858448,-958.8482415107198,-485.9129205763526,0.04207797239711374,58.89968625036155,-1.4363486629486193,34.19442271251569,1735410495768.0
1.7868543956462333,537.7691539295159,66.74207337985291,-480.8001721180777,0.04610935270258616,37.0857366912313,12.442700661740973,13.928381707504872,1735410495797.0
1.009940263866767,1250.3806134414983,549.4293917994203,304.70414028309847,0.04440430685641499,80.23167520549924,10.26507657879867,33.73987591908929,1735410495827.0
0.8930673821664354,-1642.481148958428,-40.742570630570185,-51.92606573577859,0.054333238396083366,-55.63980640119437,27.935889993338627,-11.337184675169246,1735410495857.0
1.1913131047130625,-200.4366420000553,889.2648613529158,-1526.9663333771418,0.03885939511064966,-55.99808052259872,10.167527998881852,9.379657826103221,1735410495888.0
0.45096734188011545,-6.639743800560026,-1071.7726173798876,-937.0080657234962,0.037645647260902415,-61.96679596443444,-10.964113543983007,38.06737377848714,1735410495918.0
1.4923394381110113,466.3497052117933,-396.7869374664923,-400.9740455494183,0.07461509620206641,-55.021734124139314,-8.813043729505992,-23.418497428797398,1735410495948.0
1.691601469355219,-261.7830411599532,588.8236307852271,-547.3047401566064,0.048123462059075986,-94.86778176664959,9.411490370352666,43.81239702081762,1735410495978.0
0.5743311113239671,1622.8211915642355,184.3328892906153,-1704.5514394803256,0.0406633752044527,-52.47540904729371,-6.475767000956971,21.548835172115155,1735410495978.0
