Acc_Betrag,Acc_X,Acc_Y,Acc_Z,Ori_Betrag,Ori_X,Ori_Y,Ori_Z,Timestamp
0.49248637331982037,2808.9159189908996,364.67044936835885,757.0407956502181,0.02740791301427569,10.28005201684977,3.160310520173688,37.68645228408073,1735410809155.0
1.3913608369951223,-343.2615723974832,1180.5467330184747,-701.1957545260277,0.009412661867698822,-53.963889258116836,-3.546611036756885,76.69692887526021,1735410809185.0
1.8685836854156912,1821.3673587684968,897.1108168193903,499.05551611119336,0.02561319677803217,-45.1874244082833,1.4699047498386906,47.28316088278034,1735410809215.0
0.4234544875817834,844.8248777110514,-393.1925727216294,538.012455120331,0.03514429300179378,-38.82817356607332,-13.244707025623901,51.00530568134417,1735410809245.0
1.3883647346800954,107.38128525010893,975.1566270462591,773.1368995577213,0.010346657773947915,16.234907592220047,-15.234732760125754,37.535714092911036,1735410809274.0
0.4701297199489881,1843.9426681199257,480.36237332846133,156.63522081574257,0.015241251679317721,5.544686248800804,-0.6399866654355751,15.165465517579564,1735410809305.0
0.509077023121772,-333.9719286644538,661.6084219884603,1229.6976837548755,0.018243784775014645,-46.809942041385725,-0.8192827558658653,51.17382159525567,1735410809334.0
0.7720605608351234,1932.5085221258244,-26.130587370814396,293.5466408082092,0.05117555078186554,-26.66138758957407,-2.8389291279535827,3.4718173202543543,1735410809364.0
1.294849027975983,406.4898960109686,-1670.4830333129748,211.4234584103615,0.03071752634917739,-35.569720780145296,-19.17330045216762,19.384837571787486,1735410809394.0
1.6984571192291207,746.5906001412757,2273.4206423429277,-800.8425707205238,0.006595859665454145,-60.30939209948952,-1.836840740691288,26.161918623076104,1735410809424.0
1.647766955796643,43.29756749936644,-1212.6502884845531,332.8695719259084,-0.01787551051081853,-25.364062519306028,-4.566630842700942,-7.700163904226679,1735410809455.0
1.28257488913563,-28.680975944419174,-345.3971711783581,1112.972036678156,-0.015052089900950128,-58.3104506675047,-19.365723394112447,5.232353498014523,1735410809485.0
1.0324877015277338,322.5282956083995,-546.933142484545,275.65127580367744,0.005123881721523496,-6.302279870577043,-1.1407266594710046,8.266387431034659,1735410809515.0
0.8723999958927183,10.703708174858434,-90.49676239182793,-457.1584383122316,0.019061991787476994,22.834376027402513,-14.934855186811676,15.33455918210532,1735410809545.0
0.868452550100774,594.2306791374455,-44.279994607779145,118.03066285603359,0.03229175437254576,13.962974872475005,1.0792908938580814,-15.671012773395667,1735410809574.0
0.923554651753424,1298.3071581371903,1260.6175181807912,873.0364985006909,0.002215330833254701,58.10163483077235,2.5058010026750117,-25.817264208035265,1735410809605.0
0.7735842089069902,800.375044238796,-55.03812433783776,276.72846134965937,0.029237440272321204,-20.863676608513053,10.444387906337436,-24.859680353997085,1735410809634.0
1.7389157975721683,1509.3249564392622,475.1469326250624,105.28518324113602,0.019119344876981813,-39.35999940416196,13.459352315306196,-31.89099667169326,1735410809664.0
1.3436643073576802,1100.91540105298,1277.6077259079602,1393.2391076839795,0.03612794859084337,-3.968045314141248,33.91064213639358,8.609494150620568,1735410809694.0
0.6388400412189261,-168.7183268313047,1363.221812365454,1360.8364170328614,0.00331112219274007,-21.759678395272186,3.231076982751623,-12.781245882078043,1735410809724.0
1.5837824062991792,604.236121877101,-218.2535827851898,375.975674154599,0.02905253371807496,-2.763749184217703,-1.2004441113598014,-58.38857694019474,1735410809754.0
-0.42738637847071326,-385.6310809945687,5.55541195928231,-318.2942255664377,0.015987561224891728,-3.7938412532079386,-4.20510321672997,-21.742250325827467,1735410809784.0
0.48853223261009104,-699.9091721756593,439.4893551525528,691.7873694963905,0.027272886264272225,-12.285215836766668,21.797800302287477,-49.92637850745298,1735410809814.0
0.2617547161849453,2215.222146415292,1986.477301922097,-97.16865700348393,0.03597394917122336,20.646715066959857,-0.5501364647802796,-26.58546137521546,1735410809844.0
1.2726677583808632,1255.3311444351796,344.2513781610135,-325.27516777997164,0.014876292159530154,-65.01527202522223,-11.300558779214484,-33.611070959757235,1735410809874.0
0.03435800219888285,1043.2361319417168,-70.92455721770762,-1082.0302968499743,0.03355253654998662,-28.273806824544955,-19.799553164862377,-7.711727861960753,1735410809904.0
1.1381555254856108,829.5654672941725,1916.6662814569756,-31.75083223965305,0.04551984964971226,27.13699941654317,-8.896198163225272,-30.68936094086686,1735410809934.0
0.912666031288992,251.1550382111791,370.07139297706374,-246.50026352552277,0.008807363052056563,10.774277477852207,-2.7275338214654568,-61.551403795341756,1735410809964.0
1.0761358976155113,1761.1247820652352,-20.401123417000917,958.5935732392029,0.0326664770333405,5.619544630102814,0.019151808642690726,-22.70421527835152,1735410809994.0
1.373943427549164,1147.983581563858,964.8369110788378,993.4007339617948,0.013805230525329764,22.346349586917416,11.18252811170555,-19.746293748073708,1735410810024.0
1.4195118673234592,90.52898926610703,886.906842832364,649.3374655055408,0.04865699264106317,-4.22318365412116,1.6117553697822558,-50.80588706594514,1735410810054.0
0.19696025669183947,-1429.7350191322998,718.9634830054206,417.5769570449083,0.06735698465115644,-17.176752398248208,-6.71300102105847,-20.97408191756588,1735410810084.0
1.6247036019366656,482.0738246398136,446.7371948775032,-487.72515698997427,0.03878824734011503,-37.01321026116435,-3.3847909302867007,-35.95994435313122,1735410810115.0
0.5883702898149598,-769.6679875014229,1357.5922622509524,-101.54375307630124,0.05689873428009362,10.064964384041042,3.847177037198855,-78.24652331766877,1735410810145.0
0.7126020307473271,1700.2610081195849,455.5227546124132,1152.8015119615989,0.04844451853324565,-57.9003634259105,-9.859146160273694,-51.769611014588875,1735410810175.0
0.47436123744845893,-329.08680727216824,839.3511190868287,381.9892152392056,0.056209403560819916,-15.633850502250256,12.23123069371541,-27.384183339454367,1735410810204.0
1.611478628678038,1671.8113650977334,169.6713503381933,514.8247772598559,0.04644818577538535,-61.16440012628721,3.784153990793828,71.30858733123313,1735410810234.0
1.1408597426744875,777.2966983251737,821.6992163784842,401.361507061663,0.03782726624150696,-4.075147451677644,17.32012129084667,48.323343932109864,1735410810264.0
1.4632306549979601,-452.85109270493376,820.7584552361005,409.8076660434457,0.06412109130140937,-43.35247862396327,1.5907600332987348,72.55560042806253,1735410810294.0
1.1902426986076122,-492.79525071506987,447.45329765716934,-140.33459185843174,0.029961264279240188,-0.19050310356619882,7.737613614511131,85.01376610891126,1735410810325.0
1.4412965530896564,12.104295005442737,-14.656260166292213,252.31856036587942,0.043889920712204086,-7.511633246952171,0.36675022760030584,43.01464466093779,1735410810355.0
0.1860377353621664,864.4571552706898,1370.5592023808795,172.45184116529643,0.052433362734444676,0.06238477730465242,17.5327129202914,64.41506387203509,1735410810385.0
0.4522936752026063,2887.185622062445,797.2523896798298,160.46948928571686,0.04233577745242394,10.112537955063413,-10.490455487657954,35.989889436700516,1735410810415.0
0.6261317484180411,1055.505487101564,-833.3031147348856,1085.1541046519617,0.03535649863435369,-22.34090601606749,-12.572093663719938,10.940883634023226,1735410810444.0
1.9297462410600286,-771.2858162669859,-882.4050338595662,774.0076470725576,0.022259774071683947,-37.72448061821133,3.053490373663441,-7.002048878206587,1735410810474.0
0.9895547196497906,797.2243686429408,1007.74087717151,-914.3402548897902,0.019825583517024296,-31.392967864665323,-0.569449634029856,64.40655013107856,1735410810504.0
1.0655475665117282,1488.6558004859403,1740.0573729406033,-666.9284839578934,0.0361025819533349,-39.96143127292554,-23.718744881871597,-17.062951384903258,1735410810534.0
1.1540232375554145,103.40340665845554,1233.1779835608754,379.346371259576,0.02247824161604345,-3.3232425018146206,0.6159103046876975,3.7809843467950763,1735410810565.0
1.1815283491216857,1241.4703663578637,270.68622975012477,1152.0792927451216,0.02874187900507122,-19.873987908417426,-2.176078281528711,49.35583265857317,1735410810595.0
0.6658970613387664,637.5042334733647,-191.12390714810363,179.5573359716576,0.027219186649703894,-42.55321651981673,-2.5848816972080755,53.29672578181264,1735410810624.0
2.1694322370472516,-620.2343278690892,1104.3630971589532,865.6672069086402,0.015805042921265396,-31.108259714296906,11.724736727348715,-7.099335614644211,1735410810654.0
1.3907169323591653,491.6230331276572,1124.9485782208017,620.8793870843957,0.014134390317231588,-70.08616616752303,-10.59103174207262,28.258848056348562,1735410810685.0
1.4255032837706965,2027.6933763101363,1904.7766063226454,1206.6558193134715,0.029409258692872184,-27.777578074895125,-5.524126219344108,10.968433140591554,1735410810715.0
1.161597850004624,514.8875815840183,629.8916198946616,523.7483851009629,0.01029692084764452,-55.26097509731534,-3.039523256806693,-25.382160907429615,1735410810744.0
1.6856400908815228,-82.10965557822499,22.33928655165721,-95.5121028601124,0.02150666993847916,15.804716299268778,-4.510826063410049,6.450346443994616,1735410810774.0
0.5155301509668009,173.93996767574401,250.2872662914163,598.7732928110038,0.012015686982263235,-10.862251121168425,-20.9372355029316,11.003227583255805,1735410810804.0
0.7303000125413959,1911.5799447993638,1762.4551473490687,1446.238432218775,0.01797136702143316,-24.62923363576325,20.272775973791013,-17.601974302298345,1735410810833.0
1.9739048229418708,641.6079613996117,653.1892597147624,202.28586369713608,-0.0005739568392600855,-73.32513043490522,1.7522950762927265,27.06200674729048,1735410810865.0
0.47694693862329707,10.663857016269958,1167.099845422094,1127.4325304487406,0.024929752177675284,-4.104866579611073,-15.801519921473338,-18.907257168834093,1735410810894.0
0.43986719802679786,1202.8128177212307,340.53313284515616,-312.32335066143287,-0.022614398445673804,26.065913899110594,8.597379289712892,42.53331261348183,1735410810924.0
1.139048569358272,520.5798172142751,862.3774106299978,1121.0793029833562,0.0033976963521383068,-27.63431769287796,-8.664751760864945,-17.010516821006412,1735410810954.0
0.5566851242366879,1883.892027312931,402.37421387318403,140.68299749686878,0.015936397257859523,20.2713837510923,-0.737293837138365,-44.27024793219631,1735410810985.0
0.1265731478500185,1345.3243086999712,792.3126816455435,916.79802976349,0.026130862667233412,-11.421156820990237,-8.945323520734185,23.88272526448514,1735410811014.0
1.4250365407246401,-53.22591509584049,885.9657517245607,290.86719380940485,0.005032382297122653,-11.947776590080242,-5.396558555995387,30.40769956035078,1735410811045.0
1.6051724064274624,2483.289863428133,357.4380261633224,492.40739818197176,0.021536247116689663,10.298425663697751,-11.30225169685591,43.85493027275071,1735410811075.0
1.8908802589760878,2142.8550600674785,1409.8206396913038,890.4069177199477,0.03701814282235252,-32.083815881764856,1.8650842077064265,9.507446971131946,1735410811104.0
0.9409825112076237,605.0889788198585,153.9088806032022,418.4829304439821,0.031795068535204286,-23.513472780467417,3.8323346366331625,30.931647877985828,1735410811134.0
0.3339094186340634,-56.29137550435428,17.803765138177937,885.697998456586,0.023517707417439686,-6.248776655962174,-6.5744250120502254,29.81165047079339,1735410811165.0
1.1538626884057923,397.46128883680825,-282.87334667687867,-242.09156269699076,0.0009788053092870778,-1.5663028078662435,1.2883444143128546,-42.160944692863175,1735410811195.0
1.5205727142032666,581.2432025566102,1125.0691824341457,-728.1455358696201,0.0494701563838307,-22.03476107496621,16.9207909892054,-74.91700029046075,1735410811195.0
