Acc_Betrag,Acc_X,Acc_Y,Acc_Z,Ori_Betrag,Ori_X,Ori_Y,Ori_Z,Timestamp
0.9051360240793566,-595.0553062772711,-434.62708448426434,1026.3144763548305,0.013380570923019868,-12.078844368004514,11.257128421613661,55.91245620840152,1735410993779.0
1.072163319890905,211.69903008559618,-957.057245102411,55.005860951010675,0.020507841322412925,13.285430311835446,-14.817464709715129,45.73365772383203,1735410993809.0
0.2024571505621815,352.335510549648,-1778.148613578528,1190.414226702609,0.023790760769207123,42.39197927013074,3.3718994839382845,41.57252703142768,1735410993839.0
1.5748877620110897,780.3128715807031,238.5929060699757,1122.7639565731922,0.031893483738123174,15.87617150384617,-2.3088875632550487,-33.80721474265787,1735410993869.0
0.43885617597795856,816.2817246483796,952.2075943869331,1531.3893910049328,0.02755187837853905,-0.8030705763682455,-14.885489251905069,27.961589707935232,1735410993897.0
1.7230692505750762,-1459.2179512213918,-1515.5030981708064,840.8526992566552,0.02844910638905316,20.796846759709528,3.4169277734891295,14.17293849758183,1735410993929.0
1.7228298418034238,27.326663514466503,-873.8678231350938,1528.6734367346603,0.027304137379357885,-1.5654462061998693,-20.27716356977717,-13.702081970897758,1735410993959.0
0.5534706880936833,115.48315563677211,-1834.920219060597,765.7162648529174,-0.0019306401959809979,41.42257734175918,5.370792695769885,46.11654061410538,1735410993989.0
0.4961397425133298,-345.01507327835776,-2137.7505772018167,876.2692993994374,0.021593450412135663,14.42361111871103,2.813259549870474,10.335923444136872,1735410994019.0
1.8395486494370474,-345.63764396462324,-616.6601117823677,709.6622866780015,0.018757618355180868,-9.32537406448786,11.301033377325616,-53.55415121758954,1735410994049.0
1.2951825976188802,-1610.3188570227928,262.5021389163354,1279.472406805634,0.011741659793722745,14.675463724555682,2.7023100014336636,7.3007989642460105,1735410994079.0
0.6171791004028905,-466.9711185006966,121.93270408376668,-769.2567458511342,-0.008652090148580205,9.161446694227964,1.3872850356517905,5.923552872437652,1735410994108.0
-0.32386678002586344,112.12791419715441,-1372.1696227585167,1261.445539328973,-0.020867045211771802,-19.825080950321357,10.525453907102207,8.248082147748496,1735410994139.0
0.12330850991193065,425.38358330394186,-1083.8427605282009,404.6861752596388,0.01243134008271763,-1.9711645388909007,9.277227900730326,-29.934783467281424,1735410994169.0
1.0492026442311249,-545.1864580793871,-256.0271818857437,1508.0771244218795,-0.02921495721411861,-3.6197152157247547,3.0005906995056364,14.166210919759138,1735410994199.0
0.35853525747260595,-309.75125729877107,298.4482717071834,823.7917055239,0.005625376958731781,11.653419478570692,2.230043800837912,23.102442717526426,1735410994229.0
1.2986987123481486,-341.6667741273029,-788.693536257554,1390.2744473938315,0.02377763256315217,-4.127214284590085,9.192617974306682,5.391668693379458,1735410994259.0
1.0454626490829542,806.0397129419979,-1539.3841551541393,1544.3401623620148,0.004460442654015375,44.25336460755885,-21.552132054783254,-4.082879980368962,1735410994289.0
1.4090287316416585,-205.6590320869995,576.0691328765167,855.0053637202363,0.03856732829717222,36.514942090153966,8.808333415122558,5.02775383865924,1735410994317.0
0.09153637250867108,-852.8007061835945,-617.0258583767879,1143.7448908624938,0.08173592973886662,7.01368890495538,-8.953132283546317,4.691077105794577,1735410994349.0
2.5622697740497036,799.0781491619,-339.77182428388187,190.51978917735795,0.06023794748028012,7.918205851173241,5.902643132021526,-65.95923281089078,1735410994379.0
0.8918157704522317,-1149.3118974140557,-1680.775026355866,742.0948926208929,0.04652422022851813,-20.64767813437177,17.806264376957703,56.349212321409276,1735410994408.0
1.60059457754012,-1818.294280031694,-1074.471130789902,208.2675406353825,0.007653220152478286,25.503296170933375,-5.915183912772662,11.921874593887031,1735410994439.0
0.1654634021633452,223.01591536621777,39.50144315244131,-370.1198720257653,0.02002642667387929,12.890296058597501,-16.01677038161789,-6.5825083493021435,1735410994469.0
0.8782513192150613,-623.962280973009,-594.2896407139825,-96.20166304437964,0.02758144930086283,50.20368885378005,-10.6615418926643,46.19684368657342,1735410994499.0
-0.22135935375621518,-1808.7873482658997,-20.068924622449344,134.90511796740333,0.0351987710252973,38.780441614801354,-13.601416621214307,-7.901124290158969,1735410994529.0
1.008010031216795,-799.1055611872408,-317.6755343529622,413.3676250604011,0.02379423059714976,11.690255914140394,-6.809978826790042,1.0445073009574664,1735410994558.0
-0.195282876240353,649.0559046882518,-1034.5324712494337,184.33653906407045,0.03756026178210724,34.05224228322107,-12.735770628590943,-3.5207299853107585,1735410994589.0
0.5644191377030991,-1053.488268755091,-511.2139722022101,-604.0062608927146,0.021705870596943483,45.57423829616229,0.3581705587553081,70.43470542641325,1735410994618.0
1.010923097432723,-668.7548684658502,-952.1818755593229,-615.2828430952046,0.05975652997284201,2.18399709682334,22.174602224850837,-30.043725898958627,1735410994648.0
1.2234501225501457,-27.17786234737696,-612.7418270783423,43.80322523759253,0.06905190097600147,51.60523169685038,37.49965465329112,14.03190736828958,1735410994678.0
0.24197130917784437,-1006.3612076214795,-1234.4626782074308,-154.77894339033412,0.039180823893843066,-2.7076937684312554,7.471213835486656,10.471828571043137,1735410994709.0
0.9081086479483443,795.3866582664941,-818.8396808233556,-1824.8888305696462,0.01862663317291053,-32.310153784991954,18.454066860681294,67.417360790813,1735410994755.0
1.6742013516317176,163.13188335379402,379.07170587826295,-1130.5396263007344,0.01565583859169355,8.302000810171265,1.8844016099619516,-4.963272927267047,1735410994769.0
1.9094135337997677,-777.0173718183171,-189.2427914758681,219.30782887236626,0.013183778259177915,27.917354433402764,19.20389824009938,-4.931298946159934,1735410994798.0
1.834661018271171,-1083.1369320178492,-1076.196617684762,158.61912198325342,0.04650928728588023,60.99259105108045,-14.462733335714487,7.556067159707274,1735410994830.0
0.5500085223436124,-1561.1037645281804,-885.7136273387807,-775.0680484003383,0.032122603251008665,-9.042883672997007,-9.982062826272363,-28.890751486615443,1735410994859.0
1.3773968827347063,-1274.005269060826,-1321.303906141506,-1547.607986736745,0.05834773523842705,2.862011376978991,4.555169875839308,-19.896298440181027,1735410994888.0
2.521263742006643,-379.6510492973032,-720.1378818761409,-2006.078827272472,0.04771007375548992,49.0603595762165,-15.91204600884553,-34.695517868726384,1735410994918.0
0.6466152619443628,-329.9261593441316,314.31426435778235,-1294.2979382681483,0.06744843735203335,22.040774017034934,-18.80187072424974,43.754728547064474,1735410994948.0
0.6110296424608124,-742.8967859827775,121.67554888911081,-1478.5589001343342,0.05355759723069306,43.74740581631134,9.300377445461478,12.839172843631339,1735410994979.0
1.2362283790884154,459.7577224002396,118.87622090324214,-1181.7271853476088,0.04095463547251121,61.4288805980103,-22.798088125306574,-24.030134675926792,1735410995009.0
0.6145426472727742,144.15499649932906,-137.75486681560642,-1095.4939846308164,0.08228499348021273,27.525687876692476,12.10385725870162,-84.3146778652886,1735410995039.0
1.2738926686139598,968.020964901996,-1227.0837381526658,358.66627748889766,0.09830757769892548,33.13185323777441,-3.1052549619886713,-24.653580402169904,1735410995069.0
0.4789393140710232,701.4568942458482,-1481.078923228894,-1487.0091365246476,0.0549475441036844,38.22327315934895,-8.353757208992128,-92.47165276599168,1735410995099.0
0.8182945798421752,-577.6789853843245,-1045.125412724909,-1018.8994349041591,0.04918972905912437,-32.236259812026006,18.56294521473103,-40.150759647428615,1735410995128.0
1.5012718446011593,620.0073437409866,-608.7309510939419,-497.0539734924879,0.02982996861236995,-75.91631101228725,27.48455373474718,5.259006286875406,1735410995159.0
0.48141712505264,541.2893410206249,-39.77805699610467,-480.12101718532546,0.06041261365898033,-28.504598663603936,8.759195030712597,-1.2706271419594373,1735410995189.0
0.42947831655593005,487.54844843619946,345.87147869691904,-1655.9514426110575,0.033701548411620576,25.0623701799527,9.710504893565808,29.79635240248881,1735410995219.0
0.764427371305187,-1597.5361405445306,-865.329066580787,-1661.619890346424,0.03064246567229741,-34.05478113141564,-15.294386521303569,-36.05391391131764,1735410995249.0
1.9384868679681508,-21.117537916285755,572.8966042917684,-221.2039981390484,0.0361432254457474,-67.70218358196084,-20.05309464340834,34.00601388601221,1735410995279.0
1.1779463240607666,-210.4900945615527,-1498.4833003018102,212.73336939074989,0.03967968434206483,-1.5817061686217002,-10.59169437632637,53.87496021808461,1735410995309.0
0.3483640032546994,-131.70462163534756,-1044.0023664100784,-919.0916853502409,0.08135466535073467,-86.80945681700081,24.49228106452585,-47.32164255148966,1735410995338.0
1.56603889206704,-226.38526930073417,-1423.2055562876951,-975.4309510536776,0.059550624340416046,-52.25572996155624,14.027880812869016,-30.387413970766474,1735410995368.0
0.5192887050142071,791.7006892543085,-1749.1044526054775,-1174.5244231637048,0.04811323696097056,-15.121131743343899,25.395906102687277,-88.77138772783701,1735410995429.0
1.27963971031365,139.82978523026253,-615.5112248424396,-597.3427919692097,0.045942183089476195,-40.27976581796483,11.972140868904681,-50.14489957798026,1735410995459.0
2.4015109276659765,603.8412455150675,-1296.8440109140233,-886.5381446082131,-0.013787645612358884,29.178620910205048,9.479244539566416,-41.38624399760847,1735410995489.0
1.6739928637212997,687.9631222241906,171.52670028002387,-2725.2108496645774,0.03776201051114236,-7.214677173432432,-2.43550790177534,18.610274344215824,1735410995519.0
2.2852511447351787,-874.6308872600305,24.972347652810527,-686.1410736358304,0.032733591968604925,-55.738128809950545,-12.54771094639534,-5.274423146823597,1735410995549.0
0.9954658911617231,-1670.6167233793249,-409.67683041451573,-577.3479928434697,0.03859855747663967,-52.09815198750155,1.8824410616574525,62.323024213568004,1735410995579.0
1.506877228997789,-464.7105378985815,-672.8529490795461,-914.4971483202934,0.02681005791951732,-27.682512199293576,11.67577142785186,50.27874773873055,1735410995609.0
1.1211245755818389,1092.849064643513,-960.9271656015918,-517.5867659013359,0.0742351141882324,-12.2728438460894,-0.23217486376808605,49.55430784183193,1735410995638.0
1.8308688550480117,12.59047602786569,-377.80385185270563,-655.970022739106,0.07593434201641037,12.964189781081608,2.82369371861187,-15.434503259725716,1735410995669.0
0.9740330520274761,1113.8408326578394,158.5532723768885,768.0574095223974,0.07200872628172618,-20.01804955940838,-27.33573422525376,-1.7759896722299224,1735410995699.0
1.2158795110496428,838.3992276268907,1290.4264712398567,-1517.6633880729355,0.043556860765487516,-54.57977851293083,-0.024969120218788277,-41.23616045815743,1735410995729.0
1.1216556302396086,-841.073044049416,517.9479810527837,-1943.1348464702983,0.011016734572786,-5.674873429419296,-23.122808632087676,16.11062442769739,1735410995759.0
1.1750350515988763,-494.53478510987065,-69.65294303509626,-839.9141845591829,0.024019213345627902,20.58174353196557,-16.14434416662936,-7.291974827729398,1735410995789.0
2.0948464073184505,-94.5245199983276,1201.453866457024,-278.8924315680688,0.032811392461949085,-10.624006442506765,-8.849080310329045,44.44707347280401,1735410995818.0
1.6843544921260043,-80.46762954855717,-742.7091153487797,-1849.3076544595956,0.04350590604599387,-65.52067972776922,-11.558904685474737,26.107616755752872,1735410995818.0
1.578142515229037,912.3567020389041,808.7391851599496,-607.4890436292378,0.07663910405481003,-57.83452306431653,-9.030048531571017,38.247492594055714,1735410995818.0
