Acc_Betrag,Acc_X,Acc_Y,Acc_Z,Ori_Betrag,Ori_X,Ori_Y,Ori_Z,Timestamp
2.5796493489932315,493.73831489702957,3174.8550260937427,-182.69051709809105,0.03253763808150524,11.636552962801593,5.692620190510892,56.30453543428074,1735411100252.0
2.3018372750118705,-2236.296438730899,1939.440331098391,-432.6622699645992,0.027750436182043144,-10.905971239385613,-6.11689069562567,32.70567935957111,1735411100282.0
1.1017293314721612,-505.6774995182745,1057.417661829542,-1099.2536919220404,0.04317821058494944,-69.52687263721987,-9.370208814724823,38.51351910484681,1735411100311.0
1.326480152533956,-428.4882796758658,2560.5594212132473,229.27221785455134,0.0315930061742654,-31.00666898979432,-18.7780257554493,-19.12055225687134,1735411100342.0
2.1456077632109336,-684.5017721315859,934.8654192012987,520.3382398477428,0.0208330057903063,-39.62382267659851,-22.780032607981486,37.567280136468185,1735411100372.0
1.8137848281795543,-551.722562396233,1781.7197641684697,-47.093640923699326,-0.006047929600776856,12.230322970846975,-25.887909371149306,-12.662500554216479,1735411100402.0
1.7739207313949839,13.734250001535088,1195.08675086908,-79.91146174454236,0.011316261208210828,47.20555232978729,-10.734102826152622,-13.078149902711365,1735411100431.0
0.3194000290446384,-1503.779130934979,200.6689420001777,-151.1103007947002,0.044601801687626196,-7.33785347414852,9.355614654789989,-6.572660035332715,1735411100461.0
1.64471391822725,-2294.137052048378,1656.8397073226506,-1029.5563457686058,0.04818206637576425,22.312308054277935,-7.626975403921916,-71.45761621071667,1735411100491.0
0.15354941911517905,121.02398975042615,-201.24687551797186,-1348.4650640215832,0.04299452728924831,1.4486309649723461,27.605792446690078,-24.360238779395488,1735411100522.0
0.670207087271177,-1654.1868316493556,-200.44185395018485,-598.1411575785309,0.03060371507368186,1.057895309782296,30.734405567336914,26.74066900315331,1735411100552.0
0.4897061264796161,-496.56456136042476,55.294081197854894,-1587.65028536151,0.028723566131598852,-4.652965169111184,22.86096377613003,5.2417651090159065,1735411100582.0
0.6612483017239027,-1262.2089344189947,-767.7924601429847,326.039426993223,0.03529860463407343,-26.682422784653774,-10.835367951015545,25.10035595236161,1735411100612.0
1.346247931882365,237.24598555783263,-96.71347002042444,-312.6654211183116,0.0413962021675426,-23.561481366031785,-32.911661687206255,17.136358347889004,1735411100641.0
0.47073701707465715,-986.4492105519085,-823.1674726765448,1610.6455626176707,0.08836873273295826,-19.97224535361573,-18.736439993582778,35.51478466522876,1735411100672.0
0.8268834471819433,-3089.6485981856517,-280.92401576839774,-570.236115732293,0.09255313118450129,27.169600292860814,3.0249312196446034,27.711023218117084,1735411100701.0
0.3120543027108428,-595.2628609462932,483.56957255408474,-586.6379639351575,0.06938224178124457,20.98205499843066,-11.658422946177414,-9.142216352305901,1735411100732.0
1.3666780416058633,461.3340651522734,1187.632612089246,-616.3278042909579,0.040327232851185,20.715465006536768,-8.776540131107536,55.35233340435613,1735411100761.0
-0.15032157709058935,25.44792147012629,287.32247922447885,-302.0359338523672,0.04864891641019795,16.807428719397066,-1.8392687587750682,-13.215421344509835,1735411100792.0
1.1792783719874809,143.43218826693794,-553.2286330877496,-340.2906350620303,0.020134843054385933,53.759831735683285,0.18550747429652859,-19.96541408921433,1735411100821.0
1.7070856660277922,-748.4694995650049,1898.8661126610573,-775.3862649500534,0.04317926904605508,-7.337087911723877,2.887551073690502,39.72558201419848,1735411100851.0
1.8399224784394175,9.30393129970173,2647.9379918188033,-1781.6940592687238,0.0053620618980812565,56.07807919087389,-9.31409245662638,36.95260226097335,1735411100881.0
3.1735501030185436,-651.3658200280345,3121.4291409031302,-373.3037958458605,0.07088436490837323,29.68932404346418,-9.391608544464173,-13.089599345051656,1735411100912.0
2.9124373185017447,-1249.5456770415672,2425.3992505412452,-277.2124575632302,0.045529342372087375,58.93652117240175,-13.367793971806876,-23.511946861929623,1735411100941.0
1.6982834979464294,110.13506168735285,1485.2702946991758,161.7291296386186,0.04356825588188763,-45.924735958679,-8.515492044039823,-71.83072203772596,1735411100972.0
1.9291796850568828,-1449.8410758690795,1849.1481458912917,-41.34040063455052,0.053130013625264365,37.869983241018666,-16.226231648096068,16.26968668981612,1735411101001.0
2.029597537966181,-1159.0345373819466,1274.5025275029798,-398.38326679917174,0.07316408179320022,22.710094347485693,0.046983549262753055,40.77342835597589,1735411101031.0
1.5732207877752324,-951.617718961631,723.9354544800706,-133.62984239876846,0.052862533163713275,-6.19209298216958,26.125916338952933,42.2857317344905,1735411101061.0
1.6114441721285644,-2094.7350194177952,1398.4672672292731,-334.7916664198017,0.04390191199790338,41.591326330490936,18.221604207037217,-9.547243691493435,1735411101091.0
1.343134530593366,913.994118263766,478.5420295041705,-1324.5794223619193,0.022076538545730585,14.655143540787265,20.715345262454363,-25.431506356377433,1735411101121.0
0.51619576354334,-806.3828321551165,-424.33094863877227,-389.6534235506254,0.03394317497907249,-32.602005998676766,-13.106553031713528,-16.99883309973301,1735411101151.0
1.3938012295944187,-510.0686431917496,-777.157379153864,-1405.4265021956517,0.0542986300901773,64.63531202452204,-8.40657804158581,43.60678514428945,1735411101181.0
1.1049134360107675,-453.5490093745842,-172.16368101289754,-57.00576066331061,0.030116069619441466,-10.06019587793336,12.930167000029256,66.02125482312607,1735411101211.0
0.3001407723550268,41.21886449379858,831.0323066264566,480.6711739226746,0.07413450323401194,69.69006759384503,11.44437205833815,-90.09966329097999,1735411101242.0
0.4022278589026089,-1740.9310469583152,-1621.5895776757004,-1159.0624449642353,0.03397345553372691,-9.533173333581189,1.6327792116696593,-43.26159613878799,1735411101271.0
1.140531895357463,878.3804433341955,-2177.4278150196537,473.09387427462525,0.04261741979334634,-41.27396147618111,-2.114914422382824,-11.800467547793527,1735411101301.0
1.3145127236506196,356.15053381712835,-582.6370219170649,364.1367807500687,0.046113274939795355,-33.97580919874666,0.5492981697048478,8.081378186748967,1735411101331.0
1.2040381923477732,269.9800916882207,-2465.22141695076,470.73421619941604,0.06473840193057534,-29.233062895777,11.132940261638865,101.41313962935092,1735411101361.0
0.7903105916402481,-830.3566051063697,-2029.2565117452823,-618.4215047302115,0.0887221647947142,114.74087502848077,-2.1517209097797734,11.167948147154092,1735411101391.0
1.834005075838701,264.79243297219205,-229.14987796775745,-398.7547994839466,0.06910228276168764,-66.85778920834204,-7.833107443522737,-3.6484986823369923,1735411101420.0
2.561766137734777,-267.46889362214273,-1608.9946623711448,-1407.4053416018824,0.04774120691591001,-31.938757356912657,8.695882826743453,15.910785287880639,1735411101452.0
1.5110401715432213,-816.5646010117405,-1542.6409196949453,-551.9555583038658,0.07465673063084104,-23.467524954288475,-6.463195960147377,37.500240108840885,1735411101482.0
1.2554103720495249,-1822.249675815786,732.046905601823,-1637.4326141109188,0.02992955391400383,44.31486173513179,-5.5424249129741,56.48516320535154,1735411101512.0
0.941522525376641,839.2123961689758,325.74200885439984,-268.7887801285251,0.043580170976143355,12.93788039013694,5.613701993081833,51.36855850567953,1735411101572.0
0.899875561960838,-212.530974251668,1058.0412213002048,-1684.6660928418382,0.04589687423155271,31.457279001060698,8.016815683831451,26.663409292409867,1735411101602.0
2.846363356580314,-448.82658898745336,29.83545137494403,-840.2138269786584,0.022709460092185114,35.47892335416515,-25.022094514264566,53.792368637768774,1735411101631.0
2.4709012442135734,-984.9896239752336,555.6813560912485,-1301.0398230177225,0.06263930860723173,61.366596627559815,-23.4779352805426,-6.559563067139331,1735411101662.0
1.2672968050910112,-2463.4590680938136,-258.8531968766532,-3076.659115944621,0.05685022171463798,-39.205789076857506,3.2902008777370035,-36.26324560661649,1735411101692.0
0.26158788554027745,423.2031815292494,-16.430908387674208,-1882.2338417111316,0.07635691202843645,-27.86187730235206,-11.511867948381516,96.15436901526402,1735411101721.0
1.508291935832716,-158.4741292866235,604.1125894179951,-56.79049380177378,0.07625433349931494,71.29140681791084,-14.739134264419697,66.78129677556294,1735411101751.0
2.020678185393444,-558.956339957142,-614.687799988257,-1593.2621747313024,0.05939003368911675,68.49088457036407,-1.387954341724651,14.729033924517276,1735411101782.0
2.292142482067764,-1727.1153745704494,2915.663459899847,-1559.10230721834,0.032591438853629404,16.617062076667054,-20.911241706943514,-5.283630851820648,1735411101811.0
0.8327366398885444,-1871.7413995673649,29.28525639210511,-764.3146765800734,0.033802073702844576,10.423344755885797,-9.292070617541937,5.087527245502407,1735411101841.0
1.4739939992696967,-441.7885758609716,1548.167586171705,-1702.2617472674463,0.06597293761527297,44.83418879624023,-1.6310686164668144,-4.293993175957802,1735411101871.0
1.0695510228792622,-1394.6640115920054,118.41220656899145,95.56581300307198,0.07423189300581719,56.47716244331016,-33.87923821323709,-21.815788760790536,1735411101901.0
2.337503988993108,-1936.8936312545234,1564.9181846937036,-676.5253868197946,0.044563209876119954,48.35092731135577,-24.313108042909068,-53.3331648851903,1735411101930.0
1.6126551250673948,-652.6963770342013,1265.363647534603,-278.3622251062093,0.0020006964880698516,83.7370735604788,-16.10250519649824,-18.92295268047125,1735411101962.0
0.4208714616194742,-1766.5173168028175,1521.837607643866,-633.8967570917381,0.043904297412610274,42.46138670847017,3.1343084798336385,-20.85780465479591,1735411101992.0
1.786581984162164,-225.83744040361103,184.72808719069667,563.9462756291243,0.03933291246697626,71.99494079499716,-12.970459426446848,-15.617785623840785,1735411102021.0
0.7910073365829293,-263.4365293463125,377.76558872231436,-1531.964810237674,0.051577639320146806,47.64628446253921,9.17902274713982,-0.7967184110454126,1735411102052.0
1.1522175867557742,-474.23215415851803,2436.366109682157,-843.5571334056149,0.04353106437652474,24.688019435712015,-5.587002064990319,36.54143403018826,1735411102082.0
1.7259344873931775,-299.5399050823604,-802.3895082508163,757.6028094439903,0.034238377576927034,-75.37058873452433,-10.614765632689164,3.508447003039109,1735411102112.0
0.6888441190274021,-704.9918258741313,1908.4082389661419,-680.0808417483025,0.029999650061459583,-35.11435246509481,-8.89446385198609,31.15372879709862,1735411102142.0
0.21645376295373697,-109.95883558092584,131.47425399063656,-1300.3126306017032,0.05940890458446145,-34.67166803145167,-6.104708773797627,24.18475802883711,1735411102172.0
0.6490161231175178,-152.46349517135263,554.0523387663147,-819.8840730713628,0.049934119221138065,70.27230588841856,-14.49001766256837,-14.879515268482791,1735411102201.0
0.5187873112428346,1134.9344111256703,245.2503758386871,-1614.5208925723882,0.05023196893502309,80.188940855228,-41.445170499751,-24.471507798633663,1735411102232.0
1.3562180751323512,-6.103792555722521,163.53844722865796,-1190.4631865416795,0.033170514838641044,73.21703957545789,10.575695658853862,11.794133055395854,1735411102261.0
0.3935155959228679,-161.1510204525539,493.9333254093333,-1816.375331454508,0.05912648374734888,56.775616442303075,-28.405485931594765,13.145967717628483,1735411102292.0
1.7415126282434672,-1231.8333821965762,-857.377198861464,-642.3283375061296,0.03728805392695052,-7.725539038628867,-14.395052097946706,47.227946688875996,1735411102322.0
1.052944371060512,-883.2162843568311,-875.283108430101,-766.5703076423949,0.062225962683071304,62.45454825524085,-6.650133612918331,4.01454514492843,1735411102322.0
