Acc_Betrag,Acc_X,Acc_Y,Acc_Z,Ori_Betrag,Ori_X,Ori_Y,Ori_Z,Timestamp
1.9171447165749038,518.1570473763898,1436.4590259408283,-1519.9544359201404,0.023331040325571473,70.3398677501086,-19.581159769080443,-39.47628873380741,1735410771203.0
1.9368461940445072,656.9444904917868,2073.7872657794896,-1974.233074511738,0.045181418428892096,72.165217432144,-19.854946572350755,12.148771966446226,1735410771233.0
2.2725410496317116,962.5048224726706,1325.1801811094501,23.768133886117084,0.026686019514024228,-47.67297774572455,-15.228216365233848,-6.189491310671368,1735410771262.0
2.502177489914155,200.26002511863317,-302.4137276676387,-769.4904664147953,0.007426220384695606,-57.04621543089455,4.463135635682895,-28.72100319646277,1735410771292.0
0.9950744628987966,1469.7338293138298,-420.95099032824277,-935.4041772385104,-0.0005662372977260355,-27.87696414007105,3.7890236106122615,-42.289511268828086,1735410771322.0
-0.21728065389189366,437.10155793804137,-1627.5239379198297,-266.5256947717255,0.028264806690505496,-19.97571035606246,-9.12329497082823,37.05549795996963,1735410771352.0
0.9819384079322582,938.0979063300072,-560.7712933339103,-1141.3602122844788,0.07518845941815755,-27.072542459617324,-0.4127943591657237,-37.830482269080946,1735410771382.0
0.8040039084262579,-226.63571073678838,47.28276391576861,-586.2716433045244,0.031071607675804136,-45.32632741342891,-0.7058868906153135,-19.58863085087962,1735410771413.0
1.238325262983279,-625.1759235689085,-1213.272068349816,-151.77484154281916,0.02083629683330015,-4.225105896069405,22.891837568877975,94.4272763945611,1735410771444.0
1.326667745561598,-37.24844426427779,-661.6795572406542,576.7653628870853,-0.016100904337813284,-33.04327664918068,24.32535515171902,46.94383320049988,1735410771474.0
0.3234854788458718,-1655.3239583531515,-952.7603344499477,1301.932290690805,0.050651622689680986,-25.325503350312903,20.84944903832877,1.6019228183093972,1735410771504.0
3.3097218485812028,1078.0022776764881,2008.5795328948168,-667.799260429095,0.054306429755543936,-19.878472721649075,7.66887469737194,35.298165066554255,1735410771534.0
2.761287374659054,1932.278869739987,1742.4559664156113,321.8162327162644,0.07896034069429218,-108.94351640002384,-26.186246186769594,34.421868259225796,1735410771564.0
2.6816532196208582,1533.623860294213,955.13431407538,780.8999508711909,0.043160282743448866,-19.548065052108452,-2.396008460156672,14.916494012170823,1735410771594.0
3.0130551088340125,-52.19507250973356,863.4800746039784,-617.7151028803145,0.017101958216049602,-51.898092208777484,-7.219342216117601,-103.18826882446716,1735410771624.0
1.039999959633879,1976.664069940391,902.5262764921904,-111.99036530711538,0.015279329194342457,24.702792723743222,15.179031221634578,26.792723224473555,1735410771654.0
2.310082190248831,915.6779312157869,1419.9248017801058,1385.4641272062636,0.019258121609121055,9.85323470004613,10.177179882934066,-33.152913932193336,1735410771684.0
1.8496485506655065,657.1816282756797,368.59518651447684,154.52987445760897,0.04103718581976922,-30.242157351095223,13.099184186156714,-33.93875103607579,1735410771714.0
1.7317934539696478,1414.7252053492377,1213.5163756864426,-841.1705935739959,0.03548422674664684,-11.055313938270924,12.92042511498342,0.34269894884529073,1735410771744.0
2.219314319444705,926.4162312881846,-120.92163941042327,-2012.708390051147,0.05679657264136774,55.77855078058856,11.103807393542862,13.497410704831086,1735410771774.0
2.794755123968219,1427.1907860861345,138.32016070855497,-525.532584454199,0.03378144502072328,13.030823870601061,5.193186721387495,-28.843021476012908,1735410771804.0
-0.23584245156975703,853.7964095931785,118.32667621663694,-286.0756754486822,0.06863784817274185,14.844907597049545,12.706992414169612,-44.22357124344113,1735410771834.0
1.50592635447333,-361.11242306911754,-626.0605538506157,-441.7193376494232,0.042902101474940876,41.42836999251921,-3.3558026557081835,10.363340768757439,1735410771864.0
0.9853326945223073,206.35566345843625,556.9231207047665,-309.43991621370844,0.05381943821898497,23.16280104474381,-19.12162592760118,-20.469865658492097,1735410771892.0
0.2098116895149082,1176.8340568438116,-385.82367593598656,298.2849333701382,0.05242335727413784,19.015397116574082,-12.002550403704305,-9.161906691552964,1735410771924.0
1.260390027672463,793.899275321405,-823.0774863955107,-124.48011339762274,0.018533522420492533,13.012376762533597,-20.99880016358927,-19.6163199379744,1735410771954.0
1.4058219142400046,193.42204773599838,979.6280052596071,-127.7566317907573,0.0650858563259079,-8.681476114381852,-14.372044935529026,-53.53449203126968,1735410771984.0
0.8922624580358308,-444.6044747289727,-459.8989135455379,1155.0392361541722,0.0007371598343221472,29.039081743460926,-4.63385260998124,40.09089887860254,1735410772014.0
0.7316544163932137,989.1275354636846,1465.7993882049172,1655.1124467338545,0.03530608739346243,-31.716028099735194,-16.946016947826912,48.19566908740881,1735410772044.0
0.9452325192470835,1978.2888560498525,531.9425398290975,-488.58480707617684,0.036401830639116575,-6.898843949695804,-17.269403864207895,-13.222676882416462,1735410772074.0
0.9673663775685106,1633.784610453597,1584.7524338360681,416.930227709756,0.043975937439826134,-16.46241048879886,-0.39809760508229086,17.887844655748168,1735410772102.0
1.2002998457069871,1605.6558234700271,1719.0053760131436,-1177.6004887066306,0.033303560175827945,7.18614256928122,1.8167018699902924,-30.002848387868468,1735410772133.0
2.040438326901292,1965.230390331541,149.41699401834398,-389.3959072408592,0.02183454623738678,18.293201873368737,-3.2878813240441165,-45.64042124237586,1735410772164.0
1.8853848648490676,486.42635814011135,1196.2181261355915,-705.3394655373263,0.03751142482728797,-7.627824737322676,-23.71688994453478,21.909539063248353,1735410772195.0
2.514331643087372,2583.2634660037957,-1731.1371154995118,-282.885398437718,0.015887910917539237,-0.9045518845138254,13.976483507974525,5.926851519871548,1735410772224.0
1.2337612734283798,1122.913255284996,-99.36855437673557,-67.43606849646403,0.02212881339089491,-4.0011264066929595,23.30740160932423,88.71504383895464,1735410772254.0
1.9821050221665266,806.348293580251,541.2530893988363,-1880.3298090630765,0.07115632289096521,10.559821278367266,17.2447409539761,27.135561636912215,1735410772284.0
1.5362604615331688,2260.9775440375793,682.4864024029639,-1075.8553795570892,0.06039584771099967,-63.471272851230864,3.596869315878913,-6.952206562767509,1735410772313.0
0.8873091631215597,512.160601057074,-719.1886979279093,-278.1516319392112,0.042754290000636144,-28.372783249976713,7.330642319542526,-36.16887322691426,1735410772344.0
1.1925545967530948,620.201626802472,-712.1473657141237,-938.1167194951454,0.06023425004893237,17.12061476177091,3.6445742855702825,-8.75097265448089,1735410772375.0
0.6579127566109206,1699.2575823096067,-388.66371637365063,-1579.86925324083,0.048806786928972036,-1.9192857808402053,-17.708387081376305,62.397755698577726,1735410772403.0
1.0743827121172318,-853.7444128058465,25.45050617467149,1316.9859493691604,0.05298567635850242,25.657927680835467,3.4030131940032966,51.44136022192636,1735410772434.0
0.4464397695297804,-383.45273927634196,-199.30532112085766,-184.20495885748528,0.0017484993480595921,4.692303709048687,8.514346893307884,1.614984513933769,1735410772464.0
0.15350128107159927,-207.01834236963037,-722.4861130394845,816.0337108501511,0.06853766408492004,74.17406101635049,-24.625303674356807,50.23599495391975,1735410772494.0
1.5553898960986003,1035.3440137981052,859.8027607521042,1129.466958262961,0.0395719344525074,46.94775668112765,-30.006733520454322,19.377894319509615,1735410772524.0
1.0316735362670042,-678.1630985244226,1065.780131021256,-710.7758715257983,0.05396352984020645,-3.6965694882677687,-17.517642132705113,-10.489177441357405,1735410772554.0
1.892328915029149,1767.2869449301725,403.0926731399235,11.047081319319432,0.06569906495738939,-16.924907115920455,-4.059019868423027,25.826350610395682,1735410772584.0
0.7530542360835053,1423.0497838878555,130.29667163747138,916.8729555114626,0.04622078788118666,-7.9831434224477675,-2.278684897890244,51.45189852374983,1735410772612.0
1.6748859197412103,725.0315037676078,1692.3847946323904,-829.6674359270013,0.005441830577722583,39.67239238993175,-18.393625561102088,-26.12337743258046,1735410772642.0
1.869285438693479,1058.415667883411,484.64639617160765,-1345.031729889901,0.028337048711628197,-39.74923525102294,-3.906273205210997,2.4571656847295884,1735410772674.0
1.5755325258367698,2284.182615934968,1221.1935087253235,-36.77356107370821,0.06264883073826795,53.91111355881499,34.60391648902452,42.81809931784635,1735410772704.0
2.1360287248347123,621.3387239738105,1352.2206937419674,-1509.7926753047582,0.04385552438926127,-78.15201647259846,9.861336878358406,9.441021276211405,1735410772734.0
2.8387899144502313,1823.0226577664278,1405.4502642030593,-3022.088027440687,0.03715649972194156,-62.873258956610414,13.478609070122042,17.23498820313281,1735410772764.0
1.9104384257771185,2744.11471976091,756.4848378842606,-2094.9041966157956,0.04449095312879973,-44.70452935230963,2.9135093041608187,-19.929216015823208,1735410772794.0
0.6770686722534155,931.9655058650402,-511.9644700493558,-739.6951327083298,0.056389494720283775,54.96491664921813,2.747517508308629,14.032842754006449,1735410772823.0
1.159459832598641,1147.005520770171,-1826.6118443660814,-1721.5469722873984,0.054074363227269016,19.972460470172486,5.9987541797673245,18.957130269049138,1735410772853.0
1.05027286375314,2386.5502337772414,204.69432087609857,-41.043428822694295,0.029516144238563243,98.80658055445622,-0.8668665990257974,-43.36052747088388,1735410772883.0
0.25380197719404707,455.3442344450217,2086.471234278412,-389.9517318206641,0.05908553092644694,56.20921235083406,5.9204732210183595,78.5386989712807,1735410772913.0
1.9862305406584522,-464.96014790097604,-729.1468692344645,609.1782510875425,0.03416538425499735,31.03668464113243,6.381679176793985,48.83226607561648,1735410772943.0
0.44142577689906853,964.3329890507514,215.64995137751873,-638.3190609881491,0.05367993421213129,2.3794638794316967,-7.5748281737821745,-10.962249918252082,1735410772973.0
0.8817657034533406,-549.2999259353172,416.7751214058254,317.28683186845706,0.03670881485188028,61.14640418551954,3.9185386073319783,1.8856851003055013,1735410773003.0
0.7781596768179811,-832.3983454912259,708.0335152062994,784.2034077200153,0.04742525096121106,65.47241081020461,-5.89748074145112,-37.496759624549796,1735410773034.0
0.7939733112049172,1013.2992923300543,332.3105025405932,1062.6534961011655,0.051254504134561216,23.683178440061738,7.433052652600695,-57.824234668595494,1735410773064.0
1.7056549135330652,1730.544293117866,-554.8622563186311,568.9709513806093,0.04565475226942434,-24.664392775176637,23.424248114003984,57.22189344738413,1735410773094.0
1.3365786382473626,773.9557501412778,1142.1774799863076,-186.21830925119306,0.07651497413862444,-36.93864314290514,-7.167526899639203,26.148975323306026,1735410773123.0
1.3628636832158159,874.4155652151701,1098.0793998671693,-846.3833356737384,0.020027113359468246,9.076889545598835,-35.279463916100376,-57.54450195846336,1735410773154.0
1.6424896820406731,139.7466036561318,1108.565285408016,-714.5532130651845,0.01918454015633141,20.10238365510854,-10.364460495781342,-16.82663506142383,1735410773184.0
2.9943772088324776,4.012490281906707,1441.038041256238,-502.2896967933651,0.01898008010600252,-29.96374117787709,-9.376028648310132,49.260596318460095,1735410773214.0
1.3560120345843671,491.9864315431837,1634.5833947185065,1000.7271796493428,0.031165158220893562,-12.078136149645069,7.584079978677771,68.25067730340018,1735410773244.0
1.2947343244743221,942.8987117265955,1665.6522111530116,167.76202786777208,0.030037652977367546,43.508376499053234,8.591609514999591,19.25794126368832,1735410773244.0
