Acc_Betrag,Acc_X,Acc_Y,Acc_Z,Ori_Betrag,Ori_X,Ori_Y,Ori_Z,Timestamp
1.23392463978282,-174.3757166357293,837.7549644933789,870.3863515240046,0.0313320209131524,-7.11485598732952,-22.52142131768487,52.13450416413099,1735410695213.0
0.8748691559371866,-525.5392555985658,-188.0790756015865,1001.322512914415,0.025135880858063224,24.008139946786955,-18.330618562010798,55.18768760183752,1735410695243.0
1.6291914297844472,240.1648591720188,810.5305975698576,648.889809719548,0.008472154176935337,-34.50134837230962,-8.203227831766693,2.506345766772217,1735410695272.0
1.1465398294046827,-1014.652175739017,356.1024820968066,1387.3352217512665,-0.004943868525493481,-38.357422687172836,-9.918724802721899,7.22664446310673,1735410695301.0
1.3348746109083818,-1485.9555831419448,-158.69208787824994,217.82285611216315,0.003869933041720756,-23.781619944953945,-18.908964599372226,-23.05343665043507,1735410695332.0
1.3794383426935002,-700.7866161347985,-1412.8609270638867,684.5006070402493,0.04409964745361561,22.036979172440226,-8.921025027351412,29.059222755322068,1735410695377.0
1.0914131171493144,-2298.714110083259,1093.4606207104762,529.2863590260365,0.04592697379777931,27.775004398454442,-4.624077267766969,21.813696964839114,1735410695392.0
0.4877497419222153,600.9068539240463,-517.6477471082405,1263.3521209092914,0.04169109671212956,40.60711235671898,-20.457572095056413,34.31607277696807,1735410695422.0
1.5445876861981889,-696.9270919464042,887.231341943289,1128.764530235912,0.019435284923638534,9.198302733323814,1.2048526662210008,40.27404200908563,1735410695453.0
0.11675111047650732,-222.56645849524097,-361.3030955183043,289.14331609618716,0.011093168792229437,-22.95267112180379,-23.788348442172012,4.317485318509842,1735410695482.0
1.7074949888132762,-679.8204566451285,646.3615028586754,583.3057803070997,-0.0023297748755190424,23.832386628126166,-8.581121301384151,14.862136696894368,1735410695513.0
1.4886388261884769,147.90837823995412,783.6847651677349,284.31721754344005,0.009175476608425479,4.724619937723492,6.614321137710091,-17.11069023927319,1735410695543.0
1.6461923683166864,-839.5822832996686,391.2311016299398,863.455391792626,0.04739482406768077,16.558859647559515,-21.908554427654487,61.48883799979796,1735410695572.0
1.360699436694997,-1217.2630659554338,1050.8990344884846,718.8567327563983,0.06580204082156407,-17.7078370558206,2.2671686143905543,-92.54378595486841,1735410695601.0
1.8049367788978794,188.77171109277015,-848.8457412478665,214.7862023931932,0.02100744898524211,30.023365421569967,-14.861611252556818,30.062546130550015,1735410695632.0
0.8879630074817177,-1022.1398677037032,-888.6561438409417,1155.4612890609283,0.012644603631910712,15.718027054091932,0.4275913818477983,35.81151009901542,1735410695662.0
1.4224330196184722,1810.6844375759097,-295.4132626460797,2218.1130655042134,0.020092424556044368,4.5635082168453245,1.536279645015191,-22.422966610052146,1735410695692.0
0.704474027303648,971.3648132556577,501.2778040688893,-562.728118402045,0.02354331604140495,7.267911885933312,-7.748112544087374,4.512893297824597,1735410695722.0
1.6519713439051653,241.00062425729016,1024.1640226692086,-1471.0463655593844,-0.0030219784771744022,-16.518892226744015,-16.25767772450152,-33.25958125122804,1735410695752.0
2.1395166373597494,-1662.6075066221167,-34.106380715544105,231.60544074501723,0.01006853297982608,-10.598251242788113,-6.543563123399717,40.06937265809174,1735410695783.0
1.7655839999771694,395.8723441605027,183.42641575070581,1404.1066807707646,0.02126889677118143,-1.6567502240892242,-8.991786295135862,5.979923051762196,1735410695812.0
1.7202514558725357,408.56575722142827,-66.24574274833026,2798.1289156557414,0.011772444602165616,-23.50513932300828,-6.562331283803939,26.938603274878545,1735410695842.0
2.113883422590534,1893.2369525782647,-251.30298663915278,816.5434752130848,0.05042329779196322,1.6829873041309966,-21.525641972541266,-42.339263968191204,1735410695872.0
1.4849276336572457,1574.2463575900936,-944.0827032040902,1590.893483518851,0.038904169819142895,36.272817202974586,-12.687377319640412,50.455902065362515,1735410695902.0
0.5757431239067189,-1670.4584908830552,815.7601588428365,939.9586007452787,0.03606333444344408,-4.412740685905568,-9.647485059341598,-19.0605709537628,1735410695932.0
0.9363899788712186,-867.8499261778261,518.0561058967368,-781.7612686962578,0.03356902090607914,-8.18248576634435,-5.979016018280942,-24.07102890342466,1735410695962.0
1.5635167110634305,-1352.3877294579768,495.4078822055563,332.4684908236478,0.02734734596811558,-26.914922686703974,-7.8836141373752575,90.55593526668812,1735410695992.0
1.17209964429983,1950.4483868762509,1275.6389817247627,444.60354624314385,0.012951053640529061,-53.30623918990006,-8.39627147762749,16.24563395750664,1735410696022.0
1.873863472817645,935.9638693091739,1717.320627209342,2411.8110697394113,0.003780464905965118,-6.734920386790381,4.089314539898995,-11.619389411170497,1735410696052.0
1.325221573107432,-830.7003546344363,1968.5604397728664,868.9262056488257,0.01618718485485198,-34.020933720837505,-2.233167182872441,-35.27978731047047,1735410696082.0
2.206354198648463,813.0506613046543,-133.6489357917577,-223.04017805156548,0.04106846681649608,-19.148265766897826,0.8542077589316666,-16.59349368514076,1735410696113.0
0.3601741989505832,-891.5003534853839,-832.2872932081054,565.1858794332942,0.032292354547174815,20.948652676038833,-11.118316373535492,18.20092007435018,1735410696142.0
0.7390991778973788,-915.9664499599883,774.8883485797637,893.0570465348484,0.006487104602918889,-19.957009908877687,-17.27824044443659,-10.061510271068363,1735410696172.0
1.6939141998112945,-379.4597126516355,90.58800820170308,-375.62096857797985,0.02127821877983418,-11.796408535953235,-14.230304534370369,-1.0149346121096725,1735410696202.0
1.0231457263599206,234.56756350811207,650.7108784903943,465.7055421175397,0.026109706353272637,-27.155584736775964,-7.163386897632064,-36.48953822956886,1735410696232.0
1.97628619794718,695.9110594965006,756.4552216225807,-32.912156954665306,0.04029595313464257,26.44582154747993,-21.621157329251368,-110.09351506254717,1735410696262.0
0.9200920805344914,-1056.0775720931229,1043.74927122316,510.3914673257823,0.04114616206303549,-17.635048746432865,-24.005891877451457,-20.234568210643825,1735410696292.0
2.9514864815127813,-791.4188006700816,-636.9833835143099,269.75866229897684,0.030729248206308495,24.673470952760532,5.451181138649687,-20.28743028155851,1735410696321.0
1.8070756794053904,-508.66171384418715,483.89597363788596,-10.925735639626339,0.014283657045400898,-2.236603447435952,-13.257122876350621,-46.72850049470924,1735410696352.0
1.160243882091193,-1519.787909622,-633.2054670915268,551.4296889068833,0.02364186075978787,20.669882846602064,-21.340618719770774,25.592518367278892,1735410696382.0
0.9400828321489617,-978.8197634190043,1977.5307403776553,-464.8152345428439,0.040096987978538265,0.3671477901586968,-33.74503000753141,-36.532546658063836,1735410696412.0
0.1716836046964345,-770.8144224417141,1027.9856271422927,1302.0335076447154,0.027417089611650264,-13.361525265255132,-28.746799158027557,-48.17450918164136,1735410696442.0
1.3130731117985215,-1148.4071279001705,849.3785979167554,372.88034305364806,0.03985344607022674,-8.828812508147122,-15.875931098341388,58.161337027774806,1735410696472.0
1.6115131439271124,882.4477674826757,1105.4409668778112,1403.050811528009,0.021623426731475347,-28.62623778312986,-15.99190607252513,29.687366093837188,1735410696502.0
1.4053613974644428,-1636.2240724707485,-598.7443030401521,546.323093920571,0.05581384265591409,-14.336798739343186,-6.745042970870229,-3.065234173562679,1735410696532.0
1.9802684541857534,-2006.0232994088233,108.13554610543304,-1058.0946347511115,0.05583588551214126,4.453720694598376,-27.869503102427895,-26.511006617504357,1735410696563.0
1.9854852106965075,-1837.9781276914505,-320.48441750569634,-762.6091577342296,-0.004952113701115731,-22.20839929352489,15.75586591118521,-24.63703942142604,1735410696592.0
0.6328797845526328,-9.01826493092068,1068.483672177383,-602.3858643870512,0.016486593283609827,40.32442888347274,-15.475900733340168,-19.773895910619004,1735410696622.0
1.7165304530259768,-1007.1950082611621,1572.07183855725,852.3826434100536,0.04027254071229234,-28.490146232680903,-9.104794458856183,-29.500432176453028,1735410696652.0
1.5915144387265692,-1639.3015272596174,-989.3422801546485,-295.94304629875796,0.020404533090403614,11.173889713446659,-4.79901044379398,70.83844339221612,1735410696683.0
0.3723824391794358,-309.7472767979911,738.3090304766603,1446.053933895742,0.018733101396402652,28.363293575203507,-14.341590228708164,40.58368371390239,1735410696712.0
0.4439849270289068,-1756.7013017381948,-848.1761016806772,591.449460220278,0.012892858384395625,-57.95741487936154,-10.563515505680744,-35.59538971439623,1735410696743.0
0.8614741341759715,-173.90833470458057,1196.0602184877284,977.39291963545,0.025331329337693786,15.377439817947398,-20.11926259962204,-22.02925161736465,1735410696772.0
1.3091635938892758,-543.8753603818936,728.6105921880064,573.0617743196087,0.010392112915887021,36.73665104228112,-4.092986769231457,-35.99502842020339,1735410696802.0
0.4481368896220793,-1365.196766113469,533.7125354528554,159.95040610336144,0.04128176303792644,-62.20650125321393,-18.921920909094457,9.853940357192085,1735410696831.0
1.3022433759797818,-1672.345540602977,636.5867309665119,-1595.597489605887,0.023000121638742276,-12.925246741315249,28.837008708720383,36.89808878170959,1735410696862.0
1.163735188292857,772.320038712398,223.4725853736677,-86.15488884382054,0.045894176690248215,8.418223679850382,16.656030302871628,-2.457060694499873,1735410696892.0
1.1318178022235397,12.09912040598023,546.295387995262,195.4895636372413,0.040388077241793226,35.27350972231679,4.936642056458558,-55.59407030505977,1735410696922.0
0.6618568859533611,140.10528613608557,444.8126550052147,1837.3093685767135,0.03524437681528009,-12.26566423854199,-8.900161013365889,38.129305983364894,1735410696952.0
1.0458016539288837,26.019953021038887,2329.362894651378,1627.0862232153584,0.026513165610006672,23.50345695007801,-19.96261399295923,-54.85367936274826,1735410696982.0
0.44445795494202617,587.3513216280489,868.2844608698804,-650.6933294673165,0.021516391911233952,-7.935105268738925,-17.688045567115886,-58.138827262938285,1735410697012.0
0.4882191809990795,436.95916769020596,-88.80321769843226,-426.0121560675569,0.06414820836170601,38.36113207975593,-24.92336354875239,47.91735594656401,1735410697042.0
0.9475550862436624,1103.5190800754397,-1587.0553030249841,-220.98455168110252,0.02608146061336104,22.203921296891608,14.040536410234285,41.51461595764685,1735410697070.0
0.27590548510222634,1365.5375405210161,-912.4502036621946,265.772798168225,0.0345359225520811,19.028905842574723,5.511421373690782,10.040329304134664,1735410697102.0
2.550335732309122,-2149.2613533685208,1871.9485690879226,-2162.383094821057,0.019593826220732528,57.14762419092254,0.19218103706380507,33.857579701777134,1735410697132.0
2.989648230442531,-1138.0752195386372,1661.5462797373318,-2234.8458441423327,0.05149021986909892,41.81466805811378,-15.572080982036901,21.147023258843653,1735410697162.0
3.582368716642047,-2326.5018651452488,2855.9577138442683,-1616.5101677417715,0.06770038954528634,24.866305088096766,-29.65886318286179,-18.58578393357466,1735410697192.0
2.691397907372835,-1744.0225219866124,-363.54023949340444,-2084.994060509892,0.06400348108865599,90.7688403960277,-11.430582089391535,-0.21212058275472145,1735410697222.0
3.372096719143875,-2640.7409871391023,2004.945885689695,-881.1523529031691,0.03409197562775689,71.9400424995501,-22.717006956780324,-15.212402960597501,1735410697253.0
3.145004565502963,-3331.0134868907526,1773.266534579062,-1615.432885374795,0.03653113191535353,60.68488235465121,-7.991265470381622,-59.214726809532486,1735410697253.0
