Acc_Betrag,Acc_X,Acc_Y,Acc_Z,Ori_Betrag,Ori_X,Ori_Y,Ori_Z,Timestamp
-0.6338561990520519,233.5900376786752,656.6672715969721,-1880.2009301387236,0.04081353143619641,8.817273651357945,4.8979644096954145,72.37357582186326,1735410614840.0
1.6274645445254263,1167.648271291608,60.286153500675454,463.9966856662081,0.020942160618312375,60.88806269431075,0.125759155863717,9.976765345693082,1735410614871.0
0.5063769120627415,165.5400422411941,-634.1790572052951,-639.5112346309401,0.008261741265609782,-13.62425867834674,-18.20092443054824,-30.421080356808044,1735410614901.0
2.738634376304245,-308.7213541787693,-680.2548095743687,-1628.0204026020333,0.02025720331509682,17.625859832260804,17.759912349432373,7.476445421500763,1735410614930.0
1.9700349034426596,1847.4242064998589,-139.71067093013812,-1441.1485369384036,0.04107830397049163,30.27943624581632,5.486621955950573,54.29936144091156,1735410614960.0
1.8127092772598832,316.93260464231093,-704.887666817163,-2075.1025191989347,0.07041856422490504,-21.579345403328347,-2.3165078627783497,53.16084663893631,1735410614990.0
0.760052754513584,-223.978213044551,687.1576100696152,97.83394862325588,0.06157071737661853,12.047228315641767,-15.033233160013632,-40.854375057458135,1735410615020.0
1.8391006901795253,246.35416546926243,1641.2095844674081,-155.8741651177475,0.06313875987800549,32.22086336272085,33.56396544031412,-62.33450985605958,1735410615050.0
0.4192954203570484,951.1198747260815,-27.0901150641796,25.032171242276036,0.02348258368364635,-46.0853569507815,25.622541419296525,14.926647166330046,1735410615080.0
0.25002169689417586,1593.6840328084413,677.9517260284593,-936.7055554868275,0.02402937524981163,5.147409458935076,-6.183541626089962,14.760092838473126,1735410615110.0
0.6443609371031318,-550.5395743483659,-2305.020470855322,37.54037213612628,0.03880091415947612,-38.35953414342853,-34.96724068292358,3.9179739313572384,1735410615170.0
1.4122296920637554,-1041.987064498771,-1253.4060538648182,-921.3632409055717,0.038420343099416304,12.586498708319766,-13.260080063673819,-17.134250259184967,1735410615170.0
1.4111418665227253,-1050.4416458432434,-287.7621192001369,5.2862594859692535,0.059162166237367045,20.019304562888074,-8.95463957955909,-5.436113051809578,1735410615199.0
1.3595597004496154,189.63509777604463,421.43992240388377,-1047.1681549299585,0.05942432085956681,6.262687064127665,-8.094777210040885,51.206584534277724,1735410615229.0
0.5195892390482845,-629.2057965129967,-773.7822322632858,-990.6882390057984,0.02607087594778849,28.58845792344506,-7.808855942755394,-0.40674013284225197,1735410615259.0
1.2548418818955493,2.2499685539556253,-933.9075610658477,-1784.549975682402,0.060668185658369234,42.791124611236874,6.888750534023792,21.004224922108072,1735410615289.0
-0.0951941532288903,613.5328062855896,137.19162995343993,15.98569256536446,0.033194395331930804,-50.792451066089384,13.34544864791028,-3.0528915444770206,1735410615319.0
-0.13795102316710378,1153.4891720329351,-745.8120857110673,-899.09103398532,0.03254760603734115,-91.02243334681476,9.945491951979664,-45.52766560126378,1735410615350.0
-0.18960881097641286,758.7956050005855,303.0817720828252,310.14742157120264,0.008003618135374261,-93.18599750596448,-2.920859710098285,-8.590804288985733,1735410615380.0
0.6569931719322119,2073.5507449741954,1272.673009060625,-127.73527633770988,0.06333336154309699,-106.23374824138855,7.2346346036945555,-10.430210808869255,1735410615410.0
2.5032421363065516,-2089.1437028693945,-1688.2961741574188,-1846.4186877952257,0.06638567873423734,-29.503590105072455,-1.7874871535259942,12.33422064386733,1735410615440.0
1.0746399706501184,-1467.498794018627,-1281.5808861994778,-1283.262478860804,0.040145499743988525,-29.476882836640257,0.07376397888647546,-22.116058627062873,1735410615470.0
2.7822884735795457,330.3405354166779,-732.7788612901679,147.38030831654828,0.02117828733479995,10.748312172075487,3.60984414524674,-61.07686355206841,1735410615500.0
0.6372421846058848,49.98490401111599,-461.12449112658044,187.8787363200185,0.04134053829944041,32.71326173918273,10.22352037872605,-39.02257740664914,1735410615529.0
0.5269021857212095,383.9939250066743,656.0546675404323,-567.4524798351775,0.021996401233058082,-34.76733388663217,-14.543415037575734,-0.24298802446762835,1735410615560.0
0.7403045085382682,917.1487340903127,-370.62203411050467,-130.53417992482883,0.019737327412605213,-7.13450016064988,-10.971523748148117,19.91599717599201,1735410615590.0
3.070131897227697,-92.28829262138697,-557.8741330610536,-3027.965164916424,0.00653175291555879,7.78806091747052,-11.797332575301931,-43.92828162245293,1735410615620.0
2.579208242493246,984.8075702985512,-2110.537140065198,-2133.434832483298,0.03968433789868488,-17.71255578980822,5.641797558987766,27.406692828361116,1735410615650.0
2.867926085260761,735.9820911441861,-1557.62807360466,-1841.652479528967,0.018578746377337096,11.486666499131477,2.9580538620663397,60.918657509076304,1735410615680.0
1.8880898346846329,-923.2312394529577,-1438.2310253392084,-1491.301785621944,0.06913572745745639,-38.78478543346435,3.291152037438973,25.627559200265317,1735410615710.0
0.42030674510946214,-608.0871699916265,-264.9317227312157,-546.5974505201423,0.04339377523257404,-19.47855135284813,1.501026758131987,-25.39761003641756,1735410615740.0
-0.11981225956637376,-1520.0284691121599,566.6860446881201,-596.45302285773,0.02758525470748937,-41.02005298569908,18.34553542272502,32.89182090703616,1735410615769.0
0.5980481688895485,-665.2331082669336,598.7027559684269,736.6396690668472,0.056258046334208604,-11.645923600302872,11.992401426972096,56.41695224580063,1735410615800.0
1.730474286911311,-238.9138519883729,-3432.192788566804,-1600.8321425816848,0.03576559869402651,-47.71686941260059,-12.482061405789127,25.638939941140805,1735410615830.0
0.6198590315113623,212.83640735398217,-1712.8788504190952,-1426.8751162308313,0.04588615033869098,-93.68290969270795,-40.08537427416841,4.376151708992246,1735410615859.0
1.8413295246088404,-1649.5996974092689,-1895.7661768642047,-2730.1738289937343,0.036066368194019975,19.316565614810788,-14.87116662818615,-54.024433971650076,1735410615890.0
1.8123078774495807,209.29286295359327,-220.49930690297066,710.7019459085252,0.03324315136952458,-42.101151389741005,-14.469418264665812,42.91238537004777,1735410615920.0
0.13667596189592524,535.8372810951312,-287.45628821205713,-2287.787437598574,0.06783973740068822,19.738906444678484,-10.452487873845214,120.79407307061481,1735410615950.0
1.1949341892054512,1131.6156176873483,-478.3983156047757,-196.21926529055258,0.06195701967896385,10.369312588711953,-7.12570479294982,43.23141705543893,1735410615980.0
0.45347466142230164,1020.8054123525627,387.3424952717969,-448.4607367960208,0.07302897627438114,66.26580938442686,14.607544379359865,82.34612152284225,1735410616010.0
0.8178254791519248,852.9953514750697,-1300.2590599328478,306.4062793207617,0.049341267255595136,33.05343053234639,-0.7894337856940918,37.85340324975221,1735410616039.0
0.17647314035410244,99.99175111611174,-703.2600562460904,-1426.2188578130197,0.010349319605917215,5.510503261709182,28.09469458493963,101.88898086692481,1735410616071.0
0.7149849892378068,706.2523400716245,1018.9985534752964,396.72478211359675,0.012624667797437521,-15.044611215227116,20.506067220707102,1.711337863487397,1735410616100.0
2.1554572145573148,152.95371558445498,-1453.105334243855,-2370.414981455482,0.009070225172628286,6.277486868770557,7.697765941003775,28.521076660073852,1735410616130.0
1.776653162382761,416.74524373549133,-1187.0261783997842,-2548.1909202193383,0.030379064469673846,32.267518208604685,7.05091311933588,-24.07482987341595,1735410616160.0
1.8705234925777958,95.85833734884018,-1634.4039003172934,-3447.3950745248912,0.04264713400938285,14.453493664413259,0.5590128832879362,-58.53252812711507,1735410616190.0
2.085802523013614,290.1480185341227,-154.98779721904128,-363.5119823448353,0.06925874740662376,-43.377148474166496,5.624902635953762,4.420159457099544,1735410616220.0
0.8890232469635198,321.32811971459796,-442.4758923997323,673.9334964467394,0.07027323645880015,-75.54382345835864,-9.622110967263122,-118.27977265144025,1735410616250.0
-0.37818456947534784,54.74208055056641,-298.78907410101414,-595.2301647143581,0.016391698910055232,-33.64667046477007,4.393332195569325,45.922325771671645,1735410616280.0
1.5159906819808997,-76.30711237518392,-787.9755680350725,-2803.5219383937165,0.03232139074742041,-78.99901291825361,5.194217566911895,22.678968077359023,1735410616310.0
3.2796264286602774,-813.3793248408081,-965.9440239365126,-1398.6497554728417,0.027851247774744105,-40.66609509963858,-14.085211894715858,3.6545625839883584,1735410616339.0
2.618289758745177,-234.67754492880476,-1254.3616773514552,-1889.3341047722508,0.04869134458342986,-21.740725688147673,-12.309422561052571,-49.99184579816044,1735410616370.0
2.2931285058623883,1989.6423115939879,-59.106853275006756,-1421.8361796310842,0.047007335524202755,-5.267328100821654,-21.92976781500745,58.70745614526248,1735410616400.0
0.49934336772953153,-1035.5659898067227,-264.9352332294767,499.2331221055522,0.05027347651247777,-51.93048245936788,-18.467630473723627,-46.432107993349604,1735410616430.0
0.7304736643184492,1016.0259351565135,-626.4752884284861,-296.0822280201518,0.05682661231007678,-39.397940391939,1.7034455857191166,-64.43593990482282,1735410616460.0
0.9247427934460808,625.0779392369326,633.3187854379023,122.08366233495576,0.03778709640931221,-2.4786256902497072,-7.330026299091516,-28.550084239092058,1735410616490.0
1.280906765401293,-586.7174271264018,-669.9896469153803,-1899.6489233356874,0.0746874231222654,-9.972928983926241,-0.7033594805925425,-12.867749084979215,1735410616520.0
0.7626198082080002,439.4132552713312,-711.9561613634037,-1908.519041945346,0.04251136700647973,0.271796657608526,1.4182952139965117,-7.864489263757236,1735410616549.0
1.6799198470231518,1931.974599391836,8.346002041537986,-788.1530710900508,0.04478817088964191,-46.22850696472193,-17.512373307079542,-32.91928399380437,1735410616580.0
-0.010197382089515927,887.4173922784596,-420.04557417257786,-640.1099887787517,0.06942456363348277,3.5099059532518595,-20.774170933599283,63.76556766088944,1735410616610.0
0.6169401842188434,593.6902122667622,-60.08079489852338,196.70911083042574,0.04168857108004097,9.475947821789347,12.07228468281921,36.362786098568414,1735410616640.0
0.3083617750542963,1166.510175646812,452.8059749333855,-981.0480174524944,0.03770245747942358,59.92961623334614,2.6208823814017177,-25.57145367750811,1735410616670.0
1.8698131839519747,848.5253066563708,2302.3698542038765,-1163.542305671052,0.058412990249519896,-37.8432734787558,16.684271586980415,0.21088366026258853,1735410616700.0
-0.07189348687651295,2171.9370562511335,-354.5596323578426,297.50068419751375,0.032668945564066895,-37.37931079327063,4.314133624330922,72.88357137020358,1735410616730.0
0.6416626289307479,669.2432894203974,-569.0347459308632,-587.1255892344693,0.08505816111672153,1.378154592943801,0.9464004452895116,69.53783351340087,1735410616760.0
0.967431262487081,-221.01774298528633,871.8102061496307,103.32498781865388,0.05159608173236974,11.40524851763169,-5.830963599951092,-116.14658775797696,1735410616790.0
1.2378677615369384,1656.8843899036087,924.4773320434158,-997.0545310927799,0.07235775510044637,-50.109675874340184,1.0182381370154792,-14.74812115683466,1735410616820.0
1.090831964330321,-170.64934953913604,-545.9338329957329,-1458.3208435907009,0.03275569356477075,63.89760992143849,-11.15347783735771,-36.208547307511935,1735410616851.0
0.4487531431974733,-959.426732136181,514.3729167008695,-1158.8295664318237,0.04207627664322146,44.497598644329294,-4.275294256748438,-46.206573693709984,1735410616851.0
1.6990522504544003,-380.0161464241444,-429.6104539874339,-90.66281780080772,0.06482545057945727,32.66518986542253,-12.48217858924227,-66.41324147270888,1735410616851.0
