Acc_Betrag,Acc_X,Acc_Y,Acc_Z,Ori_Betrag,Ori_X,Ori_Y,Ori_Z,Timestamp
1.308765802319366,759.196128708225,1968.3821114955626,-1153.955613119544,0.034420262224413176,3.1061060303724233,-23.134236567735204,-38.17593254499795,1735410771203.0
1.5731327562265824,1311.358885404563,-739.2418684942602,-1444.2865523200414,0.022140075961652513,58.21499521097397,-10.194820058144675,-0.7976749031541797,1735410771233.0
1.1634627805847844,2190.782580868564,-935.6324127146625,-1552.2482409451104,0.054113757723958794,-69.23450891772258,-22.96232081843368,-27.517743532093114,1735410771262.0
1.0250979885498124,952.4090503341346,1410.138920404243,-476.93747302318013,0.010810752788833112,-16.692508087697732,-13.746797154506693,20.53398845247156,1735410771292.0
0.3353873889832878,1669.447485011585,272.8083327715851,-1329.4774976029657,0.015183585009345,51.544948583148994,-11.198823875329067,15.923499176843045,1735410771322.0
0.10896091065743496,-353.2201483082688,29.434739707125402,-899.6238169746866,0.043354995868484576,17.004710424465465,-7.787650544349828,44.94785974595685,1735410771352.0
1.3044992070742922,-93.92396565707583,725.3892843738386,335.1415942818794,0.021451482688945114,-74.2527805097416,18.586909344083978,-38.8139805300398,1735410771382.0
0.9565979370058324,1222.4754140221403,-555.2730698289664,185.5863741848667,0.03208364621317191,-3.6601467176633244,-4.139680634223604,-43.728583224873844,1735410771413.0
0.8627870102623735,-1440.2236286492703,-579.8117880307093,114.28806138626464,0.0412584917721579,-27.35120512648583,4.959406820144427,-27.926434308987492,1735410771444.0
-0.20158324544132344,-1055.8285239147283,726.384224874427,1058.1403941149806,0.02302257554509956,-16.773275577081545,24.187184726215783,24.5777082912071,1735410771474.0
0.4156111802815022,953.2887851558351,-1031.7046724356626,1572.7741554209067,0.04068843882898476,-40.03960541404495,10.659245805913228,-100.18135879117966,1735410771504.0
2.483705522115455,-171.21384175568414,2293.422255076098,558.183204358074,0.05699522979269395,3.3892611499058383,17.82267890012891,74.54912474874294,1735410771534.0
2.390692935531056,2627.211385736065,1498.6209514429452,-397.11659697459555,0.08343569910683077,-30.6292410504652,-19.002299456465707,7.614434793476683,1735410771564.0
2.6578679474534503,1816.5758255273563,1590.4096431621324,512.9289376335544,0.02006209355405468,-2.9466393107330697,-9.20601192641211,-53.887385229863625,1735410771594.0
1.6841529065055438,990.5762592934578,2099.7807695772244,694.9894472553312,0.07574388833775902,-27.00185422535956,-10.500171807633482,-63.92712451257213,1735410771624.0
1.3021212696070286,1635.3433073441643,2336.0586417421828,-682.0970252347445,0.04350330565906778,14.111764606279674,21.174909138622773,47.404076927518545,1735410771654.0
2.118540567229869,1567.3229394077096,2071.0383722317783,179.53586346465764,0.034011515145976,-37.63419653633042,23.016787872758048,-17.438529634380163,1735410771684.0
1.0797202277318716,1284.1877503281507,2568.6157768167086,375.52949214058697,0.018154663076958285,-11.430647041968209,-3.3185937764529427,-61.94451653879911,1735410771714.0
1.6513087740747052,536.0986349684026,1225.7557261155093,-914.8486914798892,0.018182194484790696,48.068173314010394,21.919445889154925,35.498305669749335,1735410771744.0
1.7680650111969318,1292.7309733766508,342.80445882680056,-2162.768248900851,0.05936479920037549,107.11026378326471,3.4043964263615076,43.46713844392876,1735410771774.0
2.222525345922114,2925.294107930138,638.7134473031356,-876.3237751265835,0.021162495247389817,-69.61494475132417,-4.591360197348086,-15.071430523400373,1735410771804.0
1.342000707460871,-89.90455166400551,-570.8195624961886,-56.79439502041572,0.08046886542846851,43.835964470318444,19.90925905813439,1.9569370733288523,1735410771834.0
-0.07585977457495463,-57.48153845441635,-547.8627164615358,-459.4934784266441,0.04787060272417231,4.991771871024412,-6.550390291442529,99.60507858873359,1735410771864.0
-0.405238631766603,622.6902947381147,-248.19652372331635,-473.4211830339232,0.0438574051213975,6.947347046102209,-10.503913342983124,25.53324788331604,1735410771892.0
0.6570863635963353,-795.399514661091,-1111.4129108842183,-88.89518223438654,0.03189908518338796,52.128800284834604,-1.6389482138790155,-43.32798425268993,1735410771924.0
0.9531612338680434,-329.1199407205505,-374.0225267410671,688.9680431130425,0.04181654843509364,17.520903842536903,4.623093676174555,-65.42790286415013,1735410771954.0
0.1861984456414486,324.1585550105634,293.2235469436902,1064.594637999055,0.0644357422025249,-13.724235651379082,-25.772746086503687,-74.85521840711456,1735410771984.0
1.3107262947523277,287.82226143469063,-108.77780680051131,1203.3915764206363,0.01902914325865083,-69.38967106529185,-23.984464796955592,28.15225502257787,1735410772014.0
1.1014476679531557,181.33061759138013,1288.6233518739905,1022.1019067609271,0.05601944330218209,2.988703610692252,-8.236223816644616,55.018596778113434,1735410772044.0
1.5980168884364399,2399.8626725315253,1483.7748600378018,-269.9658728098933,0.01948170582571883,-29.407704152772418,-7.007529714533339,67.3081986593921,1735410772074.0
2.161379591500943,-272.90406152378864,1024.5258639009696,1607.3826912864588,0.03434718574186524,-14.613890944764997,-1.5253361742071938,-15.328960781806149,1735410772102.0
2.7035242951789833,1786.671044240392,1845.7161457367515,-415.3084760851034,0.0321318045192949,-8.749563807833098,-1.805723124548427,-74.05852837211447,1735410772133.0
1.802006889035726,1694.1134357414137,1852.412140100102,326.60504176643883,0.03612062395004032,3.4461732302814028,13.145476372644334,-17.57919169354806,1735410772164.0
2.2433762871415572,185.65928257189148,1346.359539959796,-416.1706746878899,0.0001375393367830241,-40.61370122606273,14.147208560762769,16.823230442106365,1735410772195.0
1.6339823867910348,1127.7332912548477,-97.39997949278154,-2414.5036420082233,0.031139774444244317,-51.03246557428912,6.294728099971743,14.155911391866809,1735410772224.0
2.3380413790937187,2192.985382766039,69.81821758891942,936.9830706161606,0.02468581671322916,10.020530600901424,11.126941196725321,26.98906704169658,1735410772254.0
1.7082718777456263,-224.1860198037184,769.4126866125632,-1303.910993123421,0.04885418221248718,-7.864928607661938,22.71157046794337,-16.578086848318083,1735410772284.0
2.803777366096486,100.24264174170298,1495.005666722975,-549.690558765624,0.034482518080115654,-31.0686083914536,14.988781904640478,4.398065094871537,1735410772313.0
0.4818269106461033,-763.8167489375815,325.14561525841884,-194.07169209922233,0.060173128445841974,49.26486765951095,2.7034998265904173,-87.49244388221153,1735410772344.0
0.6940290484157432,254.35503646826817,-1496.519807116188,-548.8214584069126,0.04427143175525596,34.737471006385945,5.228377241054134,-23.751845571495892,1735410772375.0
1.2758678424249132,1435.261523227534,-1358.0910298608983,-132.14150257728795,0.02462040358776257,82.49582095350347,-9.87033090492067,30.817001854221697,1735410772403.0
0.7681266288257294,-1098.2287240444389,-52.99464040623417,1490.4142019916678,0.0452412023713808,83.54306427162061,-14.067464874635839,14.666239763775142,1735410772434.0
-0.07939171762426511,-674.2885968785897,-960.6048429049029,-61.793345755564786,0.023108617838373802,-40.57547786144927,-19.497691869018283,-42.95773122702447,1735410772464.0
0.7610438951369467,-1406.2278917294468,-1235.2125357843804,316.68651383463714,0.06735188904655307,1.9683705385970995,-21.36611305241809,26.52005804351551,1735410772494.0
1.3936970889001934,385.08847406359894,1559.486871565826,693.3823309547241,0.05401255229388412,-29.57045987301685,-20.79292075873949,-12.335350342572575,1735410772524.0
1.959334379315931,1092.8737358286676,2257.8637148294624,870.0110295950731,0.04367601888495435,19.860668797299013,-24.558770625791276,-61.60049709133577,1735410772554.0
1.9163993200107967,482.18699024778067,632.9613640957085,450.32385393148667,0.04942292314233963,-29.84703994130756,4.361582996356252,15.183529430467843,1735410772584.0
1.2482434260747843,513.8593855276661,481.56096727813883,214.80284984928005,0.03816653859363783,-37.87488345852263,-17.479254855927564,2.6359281262130736,1735410772612.0
2.598415304245102,1644.0825465504186,-80.12589522476674,836.4370433648173,0.023211467212804093,-29.43189611151936,-9.066757609557289,10.588605757361595,1735410772642.0
1.537476128506795,667.2610913339055,1851.7939493611125,-969.7480436390108,0.012996937483726587,50.17611414729207,20.318273214500884,-74.07797131195426,1735410772674.0
1.1893559698726035,1466.5341333908395,823.6695402388382,-773.5140385095665,0.04907064948712905,49.78258862684531,15.47462554007727,-11.532058016309241,1735410772704.0
1.4881090018903123,819.5814858715797,88.33789396902978,-2589.5225227696155,0.06467235952992918,-44.773304377519324,10.258151575313631,22.91900307958114,1735410772734.0
0.7743845691508193,-520.1335005009978,-1244.7023573342042,-1186.0722359920696,0.03370647021357402,-48.58602722462788,17.96139492897199,63.07325072556757,1735410772764.0
2.5731980176750135,2163.6398598925416,253.15296716021703,-1717.4013060417733,0.04744282511332847,-23.27439366995765,24.474302769455072,-34.79626765966919,1735410772794.0
0.08771765149696897,649.7042635919277,-223.418256740598,-1157.650179758232,0.049161303193180725,40.489223509404646,16.053219261917725,36.88263728028588,1735410772823.0
2.197155387692887,-244.47166887479852,224.46576983069082,-2927.2495306656656,0.021317308809883445,45.71495256197417,-16.293345083487928,74.63599573717623,1735410772853.0
1.6118549554658295,-934.0801965543578,773.2409242277381,-1712.6604307290238,0.03485512206392517,15.670418043485643,-3.475005439688589,-43.70859228259965,1735410772883.0
0.764665276233101,461.1364879962417,-62.0757512532592,-747.1925612506243,0.050146279150704354,49.69987883064009,-2.103352420924196,5.687161467092025,1735410772913.0
0.08605956723912711,744.5595850050101,-124.4219456026479,-57.634987376821755,0.052377011487036496,78.00034292298201,-4.481602722241534,27.22005705102627,1735410772943.0
1.3474562841230906,-926.3402405441806,-279.498146331351,-134.88918708311775,0.03337110458630305,26.431523637892838,-27.9356557950046,-53.731039209095314,1735410772973.0
0.7761370830072879,-818.6221032993245,-732.4738291871644,1016.5892704350373,0.05770139368199585,56.152322844116426,-12.587137786572434,-7.81741222256526,1735410773003.0
0.6748675699536503,59.845212009342504,422.5400361890105,2314.4566075707103,0.04933829730911022,15.82352391621463,-2.033524364782136,1.6172937443574114,1735410773034.0
2.495393201892714,2585.976976058433,530.2758431686811,360.2204166388337,0.03171671011072153,-52.84925922901107,-8.976077544626541,11.72242659147149,1735410773064.0
1.0646179453741111,-955.2233173452983,445.3025029754503,284.0747525246203,0.07289375465776883,-33.79509531697367,10.447772470882096,95.95863013186839,1735410773094.0
0.21350185617728146,604.8389113673857,-276.09964871874354,-977.9845734420577,0.06225964615729308,3.443050691560117,-1.9704906164822873,33.077858077959974,1735410773123.0
1.9898969434691962,-319.17308129572496,940.2056908632501,386.60321277898686,0.023610323984386512,32.82266591949854,-30.35217076238301,-12.887070246373339,1735410773154.0
1.000005726765851,92.25915016731972,520.0739055175536,187.9875908881345,0.008310106165086689,22.002472825521604,-4.405169849015561,-11.465708604361776,1735410773184.0
1.8831584770680918,-1312.3952999448877,1311.194204029577,361.665348909729,0.01099274275100845,-36.380998959148194,12.436565865267523,0.5460540811896717,1735410773214.0
0.6684788553283136,-1135.731441370352,1646.0688927087053,-1669.3887182089825,0.04924600020978993,32.99477496071963,0.31811529047843123,38.046813802248145,1735410773244.0
1.397325503667086,455.2540733496634,512.1632671083471,479.1091428291876,0.052959154858290294,64.84714347396468,27.887065775035538,-6.918154096312341,1735410773244.0
