Acc_Betrag,Acc_X,Acc_Y,Acc_Z,Ori_Betrag,Ori_X,Ori_Y,Ori_Z,Timestamp
2.265613279650109,-946.2933620698768,-1277.158292919984,333.7245266496958,0.03838249967238941,-9.139076039054704,-3.6776412787063606,27.2233455633086,1735410695213.0
0.4696669989493666,76.16190626249917,-516.8586884590093,-1058.2148643780422,0.04414317236161784,28.717418218384587,1.1485746851241396,63.13365159277939,1735410695243.0
1.2832603950483765,573.5555552429938,978.978222208046,964.9171135829599,-0.005777997240781809,35.51181532609769,-0.47525688033570734,35.72407871955754,1735410695272.0
1.269912334247852,-83.72234734944689,-362.0863862307999,356.65837102459665,0.004411052054815276,-5.311644103113897,2.837531778469444,38.92021747267663,1735410695301.0
2.0053418531851706,-1086.2543800211706,835.021841806763,39.26841211377047,0.0015773376413810696,14.038852341104564,-1.6947406342282112,-10.811828054314736,1735410695332.0
0.8357322066663333,730.776162891605,246.59975582007326,476.750172103365,0.02609457372113504,-29.554671059431875,-15.225689304605334,9.675379748141152,1735410695377.0
2.446441393802037,-1078.192188275946,1631.3646068934686,870.8844688512102,0.04313623898726374,-57.156382255960835,9.946581537715211,16.846981694950752,1735410695392.0
1.5074316848044256,-481.26360675137516,1551.844753358148,158.9413747173254,0.06790287512612375,-48.39223482060063,-2.2313410327990866,80.10148346656112,1735410695422.0
-0.11107902113621848,657.5877714792848,1115.9760189573108,1301.2043900286758,0.03394588378930535,-9.927224823078731,-6.9491892776531285,35.95451726378715,1735410695453.0
1.3953366990510985,-389.17856609392857,827.9205727048248,671.2817593120585,0.006561784132194503,-20.627362897145638,-12.23338238333941,0.918783700599905,1735410695482.0
2.00865295381103,-3117.269229631051,178.3344247840979,-636.2784762843253,0.01374256255617353,11.665859521263297,9.473496239676628,-23.355530924165308,1735410695513.0
1.869264606218873,-1172.526088806043,-43.936766406186564,740.3090222163908,0.02951273035967326,8.506841024539446,-17.757850409788105,-4.398131568197433,1735410695543.0
1.8809782988144363,-2161.4810638428326,-453.7823264798458,363.1564235318708,0.05425849273545903,41.409554922765594,-10.823964347840413,48.02537332748998,1735410695572.0
1.0787714116687825,-1267.134557412849,1093.9319266435825,997.7192969860305,0.050315504819379915,-20.92515131143764,-24.91767986136875,-50.44699665398331,1735410695601.0
1.9627401268887064,-112.64301714350262,335.6827364153596,-35.68124565726657,0.020209434450032367,26.690387639713588,-11.954907207600156,28.72607690870984,1735410695632.0
0.681570204324412,267.9381220195574,-328.7846705740029,1326.855624095709,0.009844665355570648,1.8910988149428292,8.384983946901244,-33.25116262448299,1735410695662.0
2.477949800078738,-109.79063296650611,785.0289303375847,-466.3119347234626,0.014431639421485199,23.562541254122785,-11.366479180729044,-5.602373383913697,1735410695692.0
2.158873799294852,-1224.6718372023538,639.7474025998581,1966.750866641051,0.04715575699747562,-24.46901695479083,-8.679122896710004,-24.20467921332986,1735410695722.0
1.218144660963241,-1296.0765427856256,1038.9680931340126,16.91554163552229,0.029327801254410358,30.47373906504886,-27.47955785820686,-16.624250593623263,1735410695752.0
2.0780471640611156,-1152.7241137528977,-432.6271528425707,1873.4224012587556,0.021264071756583354,-9.986147731200019,-18.170161318955074,15.142597498466216,1735410695783.0
1.5029576263483528,251.61948527483295,450.4806084235032,3189.078021442293,0.0356541712270995,25.695214305832863,-16.61335766567516,48.99498437954473,1735410695812.0
1.3539578692163645,751.6382886164768,455.2389782996538,925.1653208809146,0.028505947735997628,-2.0371894313316687,-9.682067849589743,0.4764578326341642,1735410695842.0
1.5638293933055998,978.2643578483569,1168.3291283780875,649.421365923212,0.04078034693098045,-17.04861704095427,-13.457428823112839,-65.31814926796007,1735410695872.0
1.953994887478887,-423.33865410371914,858.0197659329724,-412.92802507033866,0.022308050592717642,-35.23485200484653,-14.585230580866039,26.063007366039336,1735410695902.0
1.7795927613136349,-2750.5815369865636,1224.638779523785,71.87406394982726,0.04365516793334796,-4.433169031755245,-20.14496814292542,-51.91499511988961,1735410695932.0
0.8193815069824629,-1510.1514429750985,1528.9671771635587,-325.3278259787713,0.01461773284313123,4.182497095752385,-17.63543218219373,33.74526592934567,1735410695962.0
1.349498375002032,-745.3685727332311,651.4311502112383,589.072460717405,0.010584500855816944,-10.767398496759016,9.151604571468068,32.66626089576755,1735410695992.0
1.0116405037998795,58.24036829711747,357.91971317649217,253.97516777672945,0.030652800889261637,-6.11411363728167,-16.336608122884233,-8.341201664001307,1735410696022.0
1.0450516715312546,-136.20761568968237,756.480141454212,53.73754089575846,0.034036510167658185,14.626761865824887,9.497284573220522,-36.27933940570709,1735410696052.0
1.7702090619147888,-584.1369011749243,970.9240590378738,942.0191083121591,0.014140563024557167,-7.576832027780833,4.903196922859003,15.46029236903701,1735410696082.0
1.5260122005448316,-481.9136205812257,-582.6046633008491,465.1366900294073,0.027875630107576523,-27.06626168252179,-15.341932002306983,-45.32422930707001,1735410696113.0
2.0025872180151243,-1614.2461730118982,507.4419515476145,1510.14673047415,0.03186455766460669,-5.60932372920105,-10.267876452377541,-6.72921582718797,1735410696142.0
0.54259733887645,-937.1732241093414,850.7025695165237,-773.8673476466549,0.03575226572601077,-34.26287616980171,-18.747361056192048,-51.997000962537356,1735410696172.0
0.7477213487060019,-414.19657165720525,708.3067613963499,1846.9161288067278,0.051399943221304784,4.027707669087926,-20.949469809033374,21.4203666814278,1735410696202.0
1.1121143347488847,-447.47981587095154,1978.1794036616582,2175.96208567785,0.032130798531187985,-4.002197561803153,-7.658123588805329,-96.81703298850297,1735410696232.0
1.1805321230504857,-76.21593388686136,1292.513788039841,-237.2579169639497,0.04859985070264825,22.58616468611875,-20.057246875048165,13.098036777053991,1735410696262.0
1.6041099082145185,-1024.213607163677,-45.07405231005782,1321.3182499078716,0.025512474440091634,31.62778404790402,-32.53091996812033,-42.43399259170909,1735410696292.0
1.9754333475193189,-56.03630423283403,1623.2157579590412,-885.1829861426627,0.03197505627014073,-48.56965434481336,1.4601924785603018,-64.82655005338506,1735410696321.0
1.074464851897849,1392.7323433337442,496.7293460659053,569.1585516456573,0.021093565634890368,9.279214572161013,-28.912466747926217,12.438269116416645,1735410696352.0
1.5012422587156709,-1968.3506584196994,236.012602315658,-978.0881720167072,0.018538997474543118,-29.13512334088761,-14.199746379051666,24.540743659123283,1735410696382.0
1.6126351087516038,-463.63976791436914,1532.2834767236054,552.4314287003647,0.027617777117754032,18.061923997127657,-10.833236682421665,-19.8130269725907,1735410696412.0
0.9344055635455757,443.49264846679233,1110.178230398335,1937.1649060505179,0.019329613624712028,-5.579687141349686,7.087892026165118,-63.664955560045726,1735410696442.0
1.584374692429067,-1005.1619516857352,1182.6165053867824,811.0033704138891,0.06766708155280182,-17.974386836789378,-16.62331831674939,34.05706103940265,1735410696472.0
1.2667006118725561,363.77910906596,624.769148567896,1529.8465405779489,0.034489433996843344,-9.397061814069135,-20.134128417108286,35.10612068636444,1735410696502.0
0.7945281089117314,-1284.549499830001,1616.2705290603653,-1302.126919641853,0.02590756583963166,-36.3819684392332,8.206058804778925,70.08993986094073,1735410696532.0
1.0882577077992401,-1919.6090272331849,950.5218480771708,289.09265412846713,0.03263327829213713,-40.928759849209484,4.7061794828102235,28.566932930289983,1735410696563.0
1.4733231636854107,-963.5832771342696,843.2155284974976,750.9550192505775,0.01282588368113079,-13.52426454092409,-3.3436011931695386,17.8786021751151,1735410696592.0
1.5232600318502336,1562.2667851540796,724.3826763758286,847.1062301188949,0.005442940743141309,-33.20393322415268,-14.834942118002513,22.125288385089426,1735410696622.0
-0.10209924160690931,-274.5350399413091,433.3650602726953,457.0109785301453,0.07457469989438581,-22.152407305060073,-0.9016421017419027,-32.68666392090584,1735410696652.0
0.8348249276286013,285.4043670634277,-97.71533082619885,-59.774428843526266,0.038559635632168535,-19.477759635421766,6.894148393084964,34.2300759065493,1735410696683.0
0.750296175904329,-192.60064562702175,139.36160051152797,1431.6693293694375,0.003768583476558028,-63.161427406276424,6.762310115111255,-68.42593870695906,1735410696712.0
0.5471259575139688,-189.5592840072085,1076.4746298805344,734.1799877110191,0.028129568972843393,-2.4363152107080452,-15.264617866488132,39.019399205449425,1735410696743.0
0.9484976525845213,1759.2976366033413,1132.979375903321,-886.3122769401537,0.02873602564491459,3.3237756429965,2.665034673753775,-27.133409118197935,1735410696772.0
-0.6419807439155383,-273.0918178098126,-483.18601655051623,2272.9884049842267,0.036858498113285114,25.910448671858,-13.07517495727435,-43.677651552898276,1735410696802.0
1.436082888777458,-2136.8220370005283,830.1823079086956,-184.4095907203925,0.033842943697961925,-11.897757962831665,-24.704545015158413,14.016500619917203,1735410696831.0
1.257941163624867,959.8335833122401,-643.1135529413057,1524.7932469955645,0.04126779126921137,-48.47142896729834,-2.5763530921318836,27.528632004026267,1735410696862.0
1.8869831062066362,-341.06328286186545,1217.310620579154,517.4720162392208,0.027136393802827796,29.802242925936298,17.094180198627857,-64.48692718364381,1735410696892.0
1.5258828865892342,171.66991171235563,-1151.5564398379151,231.19419026755207,0.0460258986998645,3.297795541841305,30.838742485888915,-90.26717352900255,1735410696922.0
0.8267696955881482,-465.4795948796584,847.1258289261676,-179.4099767790724,0.05549321935061358,-31.50059985407286,7.724378656400542,73.45663030666489,1735410696952.0
2.129316276811509,40.91264113526432,1156.8951162883523,1312.7106857241952,0.037729609256650344,16.507044476293316,-23.982664466520983,-80.98784106102357,1735410696982.0
0.32219626174467936,-1250.7627641591553,-1652.675754834417,-2390.5874808617978,0.034665122403923575,24.980197546792102,-18.30045649127519,-0.6609895890796764,1735410697012.0
0.4805265228824705,-478.9190952262071,155.72228154593998,-1045.5250830635669,0.04999206180423312,5.617139708282558,-20.41274546756018,71.20138588460765,1735410697042.0
0.10559456702835546,-539.394863052897,542.6328934300885,-161.75880720755157,0.06132183543496487,-0.7058043669372793,-13.281357220030614,42.85753835171993,1735410697070.0
-0.2816222571007914,-138.15246085953464,-175.12481886824258,662.8066735439133,0.059442477091190576,54.51224546288174,-2.968863340869617,-3.339414306623052,1735410697102.0
3.135017761260597,-2541.2145941635376,1006.7883027326284,-3143.7942017813257,0.02660711569429458,7.610298681845627,18.04823235180155,-13.480268011767986,1735410697132.0
3.1256022086052697,-2831.6354468649074,412.37913715903437,-1934.4974829056653,0.02863299880101116,53.55207741537978,-5.3397766831823725,-26.89201505282081,1735410697162.0
2.478561751483449,-1591.3754998196105,1555.7674302308928,-1917.4912705201025,0.06463936559075872,49.96427776956096,1.237234535049062,-73.27165233809532,1735410697192.0
4.098644658732683,-1354.3419687257797,312.69810953739807,-2457.0587874185953,0.05486721466133438,39.45204366363845,4.299952326170432,-28.8639994362761,1735410697222.0
2.8841824713429673,-3717.2949054408937,1813.0986644547472,-1456.4099468526479,0.027671453053124566,55.78020493251971,-14.312334769302273,-4.89579543686614,1735410697253.0
4.294155087912099,-3427.285425321039,2135.405299513567,-711.3513691020855,0.03379724617987439,76.50525863411497,-10.327838903642357,3.2068079401872893,1735410697253.0
