Acc_Betrag,Acc_X,Acc_Y,Acc_Z,Ori_Betrag,Ori_X,Ori_Y,Ori_Z,Timestamp
1.200180310738055,-993.2398130780641,1015.5290573414541,454.99631432914293,0.07176896669722052,-27.185288561095106,19.330865110489718,75.97875554799327,1735410493908.0
0.393614275315193,-20.909881505136,-866.6326716200172,-565.274808684186,0.06852951991091327,-27.83784600253092,5.692298678853074,95.9136500472689,1735410493967.0
0.8159863410961063,838.8561130770546,1299.7789387134453,-417.7669446496159,0.057903693787067397,-14.141152430219748,30.327045165601184,41.142774834976855,1735410493968.0
2.1109481569000703,250.2747679127133,1393.9372466571576,-479.9067765838179,0.06285332477084417,-56.34388763127137,-10.171584888455179,17.19886329707201,1735410493997.0
1.158442151503936,-1106.8473669809373,560.0801517400045,-1153.7489216731256,0.021513087016940335,-49.82434333132997,-7.420960979220257,42.14072825934011,1735410494027.0
2.3425704964458607,-392.3558708439845,802.935987485936,-2318.899009430772,0.008225666650808153,-43.654267023068414,-0.6241792324581414,24.648275602389045,1735410494057.0
1.9730445626018993,-471.2740947383293,-263.04000514566405,92.79021833987053,0.015866371928669167,-12.332276355670476,-6.939639267310854,53.9264934730543,1735410494087.0
0.7335379414257011,1376.115071582794,1681.1449094998377,-754.5758264762129,0.00563349537098215,27.513888423611036,-0.30152442479683583,5.519248715861631,1735410494117.0
1.5481854106576294,690.011445486428,415.4132272198956,-2029.7214017853776,0.00012069010096376134,-33.73870952899081,-6.659090386145229,0.2244706698648189,1735410494147.0
0.6804871061055833,2083.244401314324,-1012.029969698388,-1739.6191736517828,0.03693533782629274,-19.361401752648536,15.990364796337495,17.291834652396687,1735410494178.0
0.9608340990027542,1859.50504388204,1089.1366201704336,-469.7044538489524,0.048717052783155565,-55.2847046861979,12.374000498832524,72.45722028123103,1735410494208.0
1.1351609241277818,-1054.208036672884,-370.499728507162,-1405.7567129474678,0.032736170288602914,-44.716067033433944,5.703758170917508,60.514370303596394,1735410494237.0
1.2241703036437444,-1507.336143383469,718.5867674246225,-279.7322561064435,0.026024614456958774,3.5470145564610753,-11.94412516194293,-2.4861952117929498,1735410494268.0
1.4909740781736711,-74.44859352169381,735.7093884605204,-13.182750223318976,0.018209899496557023,-17.25420646062647,-8.092696305171794,-26.581026569358894,1735410494297.0
0.9827165456971667,-223.97268485054076,802.8250936458509,-675.9890279529917,0.026928193697745108,-6.958360906816711,0.36491983249803717,10.307087105741173,1735410494327.0
1.3498911436214758,142.80521294180545,-273.30296656623625,-1568.5040758526154,0.04410696551667654,-18.408455344608214,-27.547485180077572,-53.03271377239781,1735410494357.0
0.9492582250701262,310.2433714062561,-471.9362384257131,-717.6483148217837,0.03502223861339199,-27.450774684998816,-4.3316393037185055,47.589519991766565,1735410494386.0
1.22246645382443,743.612830067937,106.48622800372175,491.77955293606817,0.03450440437297446,-33.39403959644117,0.24831705653649117,34.67774131801755,1735410494417.0
1.2290630585483786,900.3693533014007,740.1104624043589,571.7358243689615,0.037355417900163744,-44.14056598742451,-25.759272564004416,-24.365626464822828,1735410494446.0
2.2868963447839956,-856.8295853929858,789.5005113025974,-943.059671540994,0.06508616049191428,-74.81720883410019,-13.566105356562897,-50.636773744780555,1735410494478.0
1.1719983034274566,-1777.6918953041795,1867.4477222832668,-488.23823132724937,0.038065201717560476,-35.05670637604524,2.4657267920883736,-19.986180280853414,1735410494508.0
1.31066661116899,1914.5062206631742,28.565802041259502,-1138.9398346983,0.017135382890297077,-59.245871930814666,-11.2735221978361,-23.167752579246862,1735410494537.0
2.285867481936941,300.078135611501,-248.25304885001805,-1302.6889132660658,0.05056865348723977,2.7822882211993587,11.6563964477875,-14.655675975362673,1735410494597.0
1.204602451248502,-1217.4419677642275,415.33487318687975,-2347.5143040568973,0.074268677734406,22.17763985549469,20.146442003870433,-41.335597883068644,1735410494627.0
2.514499549919028,-1072.7825951904101,821.65520952933,-1032.0417444961843,0.055158920603932744,-32.81679539400515,2.2571641324484233,-48.02974411581581,1735410494657.0
1.6441827542329226,-687.3412877574324,-433.9988919104517,-434.07852134688443,0.03145914565737424,-34.3680296190568,1.4921984170869256,8.204598411235814,1735410494687.0
1.516876173164274,1707.2047056897545,-581.8863407071901,-252.4374656780849,0.030935427625314926,-32.95365818527028,1.1952504597034037,-21.50300839245805,1735410494717.0
-0.06314922433079717,-856.5804820090218,1743.6249968346333,-435.18387328475666,0.04909516199804665,-94.29768285992856,6.457842170459283,-36.51105737500197,1735410494747.0
1.6962475741782188,1327.9298719260512,-277.1181904454354,-514.7940653642959,0.05628468426980858,47.13631471017554,21.550129884374858,13.024337441074756,1735410494777.0
0.8500095262686929,1708.7350422361724,151.17426641441787,-90.07659281784652,0.0590877704795757,98.75307227873748,12.494456528270323,-19.515744187220726,1735410494807.0
1.8924662692017946,-402.6036305728225,-624.4101926835021,-849.8260432473542,0.03941955724391507,43.537182297526215,12.009276564484805,3.4192874187521802,1735410494838.0
2.148165095320692,-1783.8918520911234,579.0502950150355,-239.0449107335669,0.03947173376424881,-74.84292099402784,-4.5357111719295045,-6.248565031107951,1735410494867.0
0.3340981729938748,-155.85207769634724,2249.437636083094,-37.5795588032081,0.028384339407065785,-75.21370869164939,-6.56170984416082,42.43617217431017,1735410494896.0
1.0810842941082965,224.27953408118856,1009.7930834078583,-1069.4842514303677,0.04778179322633643,-13.42257059904103,-11.809143371107892,21.444292626640625,1735410494928.0
0.7519170369910393,2439.0511519248857,237.63954645556976,-483.1157630017839,0.06822580053016553,-54.9706508839014,4.989688070390598,-13.502770428546267,1735410494957.0
2.336131376566555,2232.6191878306927,592.3615473320683,-549.0321116168102,0.045994473926862026,-96.71952236041622,5.414470157182139,21.874516433636884,1735410494987.0
0.5928138060593631,272.69694861017877,1785.0858805381554,-465.4883697444794,0.023429765709740966,-75.01495627395916,-7.09987171834034,24.763572341205325,1735410495017.0
0.8935417373386477,142.79701752764208,1075.379290907083,-1793.3295716670511,0.04144420161611058,-20.874736629004175,-19.27980244290304,-17.042979115451626,1735410495047.0
2.0140982119998783,-2358.609216106044,1596.192245756061,-1083.337339848426,0.04791325990365566,-101.1810672883156,0.527486694078986,-12.501134410024335,1735410495077.0
1.800829902398736,437.9826711377989,118.43650555634565,202.45401423387864,0.044317300322933295,-29.277827203127423,-38.464556920979035,25.303058344436625,1735410495107.0
1.4319093378043009,1269.7406079958414,1378.9091883366414,-337.18734893218596,0.06072433944362768,-46.92642572681372,-16.038201787824278,61.739728061373015,1735410495137.0
0.5265595021851348,-319.68643061429543,-802.7917767070373,-515.6908803465865,0.019993295246695415,-53.517338380180426,-1.8237963346578696,10.526937398888748,1735410495168.0
1.4132041420472639,-180.73295290977444,-346.59553406392376,-2185.3564921374464,0.05188714071670335,-13.02741601744387,9.129590701207633,3.1489585581916923,1735410495197.0
1.7448822122067034,-986.8017338090067,-184.60408458662596,-376.7897488693344,0.02338194386303092,-29.031183897869532,21.12881311072516,19.857045541182583,1735410495227.0
1.5393806474046623,-484.74332187239787,-498.720312236274,-489.4660941766361,0.047511622232840896,-21.125526666896505,1.6214658921795264,11.461627388411676,1735410495257.0
0.22420596420256766,-1304.0309231095184,73.55905595800635,-589.0941301405524,0.0540246134161023,-32.53844427494784,-3.2040198067972443,11.424355217501475,1735410495287.0
2.581372636175711,521.7907120049771,168.36123842338816,-345.0585580685366,0.034276826427331014,-34.60611334820008,4.337599877388587,30.912429435088534,1735410495317.0
0.7684870754213939,401.24344505203277,793.4507221797472,-1162.793555412616,0.05905388042082182,-9.228734284329569,-15.993340144089098,-4.43861703810715,1735410495347.0
0.7100146324701542,-1093.655153331302,330.21345804930974,110.46519280065559,0.061641291978999764,-56.20861239769869,26.546023629304973,31.273057880318472,1735410495377.0
1.0092159849844728,-1396.2743321124306,-325.7873780877251,-1347.9427247517915,0.05450873784569499,-40.898346958628366,-30.539679197514946,10.611425074484131,1735410495407.0
1.47694663400754,-222.1351957955177,356.3371790511718,-151.03946386516475,0.037298789169142414,-21.695139798095017,-16.730953587587074,23.755752021321005,1735410495438.0
1.641767940541327,-353.0436913737672,-165.62970292059163,-408.6511396887926,0.024455935167337024,2.2401759158696635,-6.170214252824124,-12.675494800062964,1735410495467.0
1.0174306511305151,1464.405357009758,1110.3680837697975,-1396.3895648851867,0.041127292191579144,-11.207306588730031,-17.31857585597627,-7.890536075312028,1735410495498.0
1.3877514082323432,1703.2334794343124,1611.41039577247,-1236.419743163245,0.030713353723256405,-39.80443616209932,-3.0757324540215945,35.28204492144999,1735410495527.0
1.9396584866594382,220.73949491207517,1348.5133690611983,-748.9984263982317,0.0339557936451789,-40.850928941534384,-2.912466130648437,63.11430564102286,1735410495557.0
0.9350055583659633,-353.1523595339439,1127.0436483655385,-1066.461965584946,0.03301262357117781,-25.347296671455272,0.06468041034547412,73.57333523744482,1735410495587.0
0.6327802056828723,-1272.7549211498601,-397.7398025613737,-746.5081264679834,0.06317482230466617,-45.63192974195758,10.134797988580381,18.000290894433,1735410495616.0
1.5593434030221471,-768.5750187411101,921.2946409067911,-596.987362510457,0.0837615779965441,15.154657732943853,6.176896128961105,58.1559260344892,1735410495647.0
0.8429108352583021,765.3263438438521,2042.7642541404018,-1999.158579428668,0.03399396402615171,-97.79416936412329,13.685411639943796,46.94978271059714,1735410495678.0
1.7019516014408882,2010.3513009008432,45.107550916185346,-307.5468837368161,0.025000036466963044,-44.3621256692855,-11.853034730945902,-62.518239609778625,1735410495708.0
0.3206735328578886,1237.6036696932551,953.8458517194344,-676.583900604574,0.0305881334094699,-65.3628177587706,-8.392186399707327,-0.4651245072227983,1735410495737.0
0.9422688710802457,303.157781156744,-107.51490489202689,565.8836566807099,0.05474109198269531,30.87870661356545,-10.953219193773725,-51.97757049210461,1735410495768.0
1.43238702112219,575.3194208296064,-1110.8463811426886,-1466.499698297088,0.02403973028806457,64.88983602641078,22.110119980682313,16.655646853713783,1735410495797.0
-0.007082702850335076,-368.6401988862183,-496.9934878710409,-783.4884567349628,0.030280463670062603,48.573752498804375,5.790781723851711,-9.055137729254522,1735410495827.0
1.2345292800423548,-171.5526119702287,2119.788808240975,-187.04894354297505,0.048900466134241406,-14.583269038833315,-1.993793115020161,35.50333384899416,1735410495857.0
1.2397584434447733,-1035.4550956337669,1368.1712525218063,669.8819650654327,0.06212551424807101,-38.4857222338331,-7.819559672954852,13.486278607942243,1735410495888.0
0.42544178681306555,289.88143547892923,1326.9637592039408,-1276.5007424123048,0.03151849223063293,-84.5729125240051,-20.173756933349843,9.116932389403958,1735410495918.0
0.2921122628695767,1434.064805438497,1018.4095117268121,-301.76404261030245,0.048976094400965904,-50.52233016974852,3.8286752366362005,19.665625498981242,1735410495948.0
0.3439956471097505,-25.314513613471647,-103.42563253986214,-551.2368775089346,0.059016250842568424,-54.74851622778865,6.68919280166692,-21.10804957567062,1735410495978.0
0.638395863564946,-378.3201307807655,435.0660996488866,-2113.965582502866,0.02329256566099374,-49.028304628558224,-16.477446516556732,5.564461694170001,1735410495978.0
