Acc_Betrag,Acc_X,Acc_Y,Acc_Z,Ori_Betrag,Ori_X,Ori_Y,Ori_Z,Timestamp
1.5718954333275477,1320.0699057777986,990.0847506684371,-177.78830451657143,0.034341713665693635,48.61068100122547,-37.44797187327998,-51.33966975454416,1735410771203.0
1.754232080824229,342.1022118163578,1102.4477338454824,-1305.9096162591763,0.04177743242924298,52.324435147219475,-19.12469388403599,-41.056673631418604,1735410771233.0
0.9162827411224389,2037.6714266997828,929.8760203564971,-1895.7879990100914,0.05624344872242181,-54.26075296055111,-13.144917089671006,-60.87589910667308,1735410771262.0
1.2309457492864857,2202.9495763065256,697.0182301914971,-1080.621627650858,0.024041974773109577,-57.71545570842186,-10.752041617487897,-48.427324653207776,1735410771292.0
0.3917795603633516,628.7834239168631,10.587819456853765,-441.63063268480477,0.020659240100187416,6.507553133730362,-3.1332515225912285,28.37511841407533,1735410771322.0
0.8720039709367542,310.4548491360009,-800.2223050664084,537.9281311790867,0.0562990371091633,-17.06805366907508,21.741447481631493,2.461552571667969,1735410771352.0
0.7561189783096118,-323.0203244522364,29.052661974757427,-1347.763743035402,0.05743841101546662,-11.164550451236066,5.280981281663879,-128.53644879105684,1735410771382.0
0.5538632366215287,-248.78111836108474,264.76964020182436,-1808.9717985455195,0.004347168299603729,35.06828891547804,-8.656798913009535,11.139891852456842,1735410771413.0
0.4250307425827483,-220.1139588523053,-507.7356042423331,-413.70557589735756,0.02855152878080288,-50.62158639598914,7.204143120727954,12.060643958409438,1735410771444.0
0.7631811577742859,-1217.9448173434935,-1761.663490875246,-594.9653982696705,0.023675178582178553,-21.01886209388257,32.40501956516669,-4.833312859282781,1735410771474.0
1.2788216375923993,-1296.3361402343523,-427.3798108334102,-391.8718722459223,0.0431752756616248,-4.498582207617061,9.759533212698573,-41.06021384489962,1735410771504.0
2.7871140968226555,2618.4579946828576,720.6104217556983,143.45781153231172,0.021394778447056305,-74.36675275569502,-2.9644069499427848,-24.863161219286802,1735410771534.0
2.7483695098473113,1883.0025938390522,1987.6569417990936,767.0860813953125,0.07721823901203313,-19.393801645095092,-21.52293459352723,63.13828768353463,1735410771564.0
3.001674677726607,2325.0493058620505,2553.5767398933713,623.3659334120008,0.022753944669341032,29.697376645676204,-6.925936446173319,-2.6362775204559874,1735410771594.0
0.7292329753106519,604.5657714395572,2168.8778728461034,1214.6234529799729,0.045108727905818685,23.532880727898302,6.8299484506148085,-23.364206863863124,1735410771624.0
0.9649012277654677,3002.514893260176,1639.5675372686778,1579.867018232616,0.033493926599152526,7.061172081794911,19.930728283637126,41.255852567622625,1735410771654.0
2.097713529240745,1196.3107698806784,340.828597574829,1322.2707143378298,0.023711465882011232,-27.75974948424132,15.754415830748066,-9.384338598294596,1735410771684.0
2.014501868590872,138.5957786227907,968.3258425950053,501.12645215311386,0.05790940153817492,-39.0962343207795,1.201082180905913,-35.599240349857865,1735410771714.0
2.5004788527902937,1692.5683291486064,363.8372583132174,-514.5026064826076,0.0061469101491668995,1.020261797853923,24.289788940148966,13.144503670871384,1735410771744.0
1.3808909508005074,1699.8943326166159,640.9699089557192,-1234.2667548344425,0.05876748842466278,67.76350030171334,10.410029785041866,22.170584285317616,1735410771774.0
1.4118194252255427,1978.8142181149137,-338.64014381130244,-3190.7879707579414,0.054732115205271464,-58.579886900912236,6.638187028578015,10.965888804197874,1735410771804.0
0.7939779791292865,1869.1094937669957,210.64465917097243,578.393248003172,0.0704136921823594,10.829490806689051,0.04152382091210072,-76.16108997112198,1735410771834.0
0.9975181841240262,-402.35876819730686,-529.8272533811033,-763.3824374570776,0.06064803931669182,16.477291054575034,0.9693022294378362,70.08672838243677,1735410771864.0
0.12157001696974734,1078.330027188459,-1324.362133324133,-430.96938783184584,0.05238392190971405,-5.109299724724316,-25.76462146419176,-9.451868470262852,1735410771892.0
0.9649810027502508,-1570.1782808774135,963.3806144465286,65.70015527852013,0.053733297743940686,49.44842006165379,-4.563501937870365,36.566262120327806,1735410771924.0
0.637858264325758,-329.67887736732746,88.68883229203223,761.8228047939288,0.044794179859626554,52.6849992544723,-1.7627512837301182,-12.166587058556138,1735410771954.0
0.3844373351532227,-1494.4220047688727,14.353481457414205,-35.084003255410266,0.0794129368684979,58.869109968103,-24.804025636700388,-21.39593354033968,1735410771984.0
0.8640462470291295,1076.5437311842215,309.76994580854307,449.1939138687415,0.044751454251935496,-63.92417705438508,-10.1093707211994,-6.178259557894091,1735410772014.0
1.5164316320818783,-317.1635579292031,427.300265767615,1568.4160804468258,0.02741812523850604,-30.009884974277885,-9.12549454868352,59.53949470826248,1735410772044.0
1.8594846768553834,-250.544736228671,2034.0650096725585,-85.52632092917219,0.0365507782575693,-38.51713291042702,10.143829296216527,16.379753544457838,1735410772074.0
1.3727053929659687,570.9715983257576,1254.2635214082984,1914.5926149389,0.03604947204909009,-21.366787180807624,5.904296186748505,-28.916063052316638,1735410772102.0
2.004722381657947,2403.215712400034,1818.2003247797,-540.7983779196886,0.012284285886675867,0.5918913210016363,-20.177737664545116,-45.108411575316225,1735410772133.0
1.6285453440141957,698.4398737473215,2548.6703515082436,-492.2520094877392,0.043618746970757606,-29.89018174873833,26.076365294272627,3.0332685306988836,1735410772164.0
1.7428358024033825,1438.7293420252158,97.4835138179883,-1444.7035442963652,0.03434599102230456,-1.7825659958659088,20.72586181820373,-27.345775908688303,1735410772195.0
1.7553559904447753,-329.82402786175817,-672.2750500714553,-2050.2673473687723,0.023095941485841463,-15.445986555504877,9.259863804143091,4.093254902494799,1735410772224.0
2.4496056714850787,618.9026815060441,80.31130118958396,-1230.8394851510775,0.024212434126309065,-16.898800131463112,31.489723182253606,-5.848836471683995,1735410772254.0
2.1559405601290305,2270.005952776643,-1179.0674930307116,-1700.0999637973348,0.06844522133838388,60.46807954743663,16.94998708340249,16.81404231486104,1735410772284.0
2.343778720074383,-1070.2361365956544,1631.0206067668855,-1531.1902596899822,0.026667448309173458,-47.49250614005207,0.28676632752669207,4.114138886442861,1735410772313.0
1.1549743682082274,1269.4359211240694,161.54143585178917,-401.0302558346001,0.040450499530408544,15.884247669421315,5.609492730038958,-12.862375250806798,1735410772344.0
0.6413418265661968,626.1607616979963,-689.2301541924355,-1679.0477987232293,0.051636947983223644,58.93340693005443,-7.402580775872192,-47.0352490403087,1735410772375.0
0.6861410490243566,213.8030341591611,1169.0564982995534,-2110.454559950895,0.049620564130421554,71.98162653400439,12.712722179168509,94.64615121368574,1735410772403.0
-0.7351705475355659,408.0208974774681,-971.7113835356191,404.78631220686816,0.04220712346560698,44.45929280094283,-11.497087101525167,11.971858753729123,1735410772434.0
0.9625479490120897,215.48760955073578,263.11242101193625,-293.89558842632084,0.0010936021152387308,-6.331870247916999,-29.252419174470692,-1.214769086192276,1735410772464.0
-0.34692231327021616,-365.12910950366677,-1812.4663957333066,5.323433608091989,0.05492705316230492,47.93456216417708,-11.59410473977887,89.40807033011534,1735410772494.0
0.8018047565803786,53.01113091612808,1000.01707776531,429.0931577970172,0.051457274350187994,-6.534608194082594,-27.982528058904816,39.992989912125736,1735410772524.0
1.6251597471701,281.2273799161229,784.520051016819,859.2110649399508,0.04533865154611278,-25.061689389709137,-15.101122899552657,-86.67556369421447,1735410772554.0
1.980759412985885,852.6771530990504,901.8133314860848,550.8441894388053,0.06784342613584944,-74.61138450460658,-2.438654513366451,26.043010493346173,1735410772584.0
0.8044506180773571,1522.4551270642419,81.70111869323227,247.77736103492003,0.051672963118292656,-72.58304910126866,-9.630076300837501,-5.737620847818906,1735410772612.0
1.607524313322432,1357.5836750905878,939.1073505972589,172.55043219935465,0.03243994537620387,-17.27581048918775,3.6209312840838574,-33.20021674362792,1735410772642.0
2.003958259935002,2187.065290234887,502.9270871058767,-981.3772600710223,0.034000872016877556,53.608898721242184,7.568081001223511,-12.876277504303005,1735410772674.0
1.3155495925588425,1394.2527063543548,443.4370279671856,-558.4579454300693,0.03537323297037404,42.27571370012986,11.035119411514499,1.8199749500293922,1735410772704.0
0.9493815291973171,3257.816708406509,24.515637514519085,-1285.655643893523,0.05010482043227936,-37.137273414499184,11.60620445018754,59.72487687347335,1735410772734.0
1.9874209982088438,1303.9875394633505,1699.5033569165155,-598.717090504418,0.05816839105586791,-32.98109032468549,16.42757873276651,-5.944735212112793,1735410772764.0
2.471646078374575,1135.7837552399458,-502.2331777941988,-1435.523198758004,0.020541198288510143,-14.476377200366448,22.294623991438822,27.97911036833502,1735410772794.0
0.3358104735140135,1429.8218012118552,-557.7814581457227,-701.79711043137,0.02591027176463868,20.62687472984525,29.513291363169074,31.660051623600165,1735410772823.0
1.0579879757496757,-370.81424574024436,444.38062285679075,-186.41402180879948,0.03589539945388333,36.23347893422044,-2.6075538578880133,7.4480394855636,1735410772853.0
1.8622903344747759,-708.1767330982941,-674.9710277771107,689.5818405903326,0.060989845706348106,63.708691954938715,6.9804192316180185,-23.447212802363836,1735410772883.0
0.204299899143928,120.17710144239271,340.6707141870104,-915.3070833156447,0.06972608113709819,22.140233454314885,-3.0451827980304556,63.19325636484771,1735410772913.0
1.2154026099348316,-450.7792318394671,-18.880232444925866,393.75648256883676,0.019895116154581706,-31.76626636922626,3.9660411554302852,55.1339819158309,1735410772943.0
0.16784407288015724,-1309.7564231201409,-2702.9329405997796,313.2460161059853,0.05998891540189405,23.889116177399867,-11.065731814087297,25.322142786497512,1735410772973.0
1.327562324469736,1394.9212338746422,-243.87636775335815,-357.52608006502055,0.07163074424499254,33.51361221004822,6.5321129829203475,6.920823604253954,1735410773003.0
0.7095126524683234,861.3446688331027,566.151286112125,514.3935838007314,0.05440623430969824,17.701419066209393,-6.6956958392437835,16.777539707627646,1735410773034.0
0.143933231756729,-17.79693895828632,6.03852486681285,1475.302782560293,0.029813513205744827,10.433934089048181,-10.058180163202366,-75.75125555160594,1735410773064.0
0.9056668608514823,393.7250620531555,579.1665496960743,1484.1974800357348,0.061357180666695675,-20.025223727064166,-3.549916860297089,69.67302039490005,1735410773094.0
1.5313895710027017,773.185396519856,158.41188957939028,-692.7188771576064,0.0705041799786816,-64.08155552711234,-10.374953815817044,25.910225555105715,1735410773123.0
0.6382925325212517,-935.8362153172443,1313.2327662382895,-1060.2575704824244,0.014716432055626652,42.549435545059445,-22.814525927281803,-8.022017228137539,1735410773154.0
0.8930800681597089,1074.3580339962127,992.1306141598445,-580.4322024971663,0.00788816173828375,-39.729534206618126,1.8819527403012408,-52.78923868735043,1735410773184.0
2.4550025145905146,2371.5159937190497,-107.80487339733759,-427.6295115049533,0.026167296032419254,-42.97437040446874,23.27022107169409,-37.33385172271496,1735410773214.0
1.4742615290980732,-276.51589406085316,1704.2644542711485,-273.843062658437,0.033176299188545165,9.935850031255736,15.532892190188164,-21.478970546381632,1735410773244.0
2.252751177275466,2278.4673861856772,756.7364812455668,-1102.4477909703178,0.03247588725169213,1.791153792185689,22.508807835192933,29.517717084210865,1735410773244.0
