Acc_Betrag,Acc_X,Acc_Y,Acc_Z,Ori_Betrag,Ori_X,Ori_Y,Ori_Z,Timestamp
3.141253436552821,-196.926542923454,-1349.443527253028,1087.640836251377,0.05523168702262018,-24.297101572683406,-29.026829936568134,-47.25348166913333,1735410595105.0
2.9853021483356517,-86.5361521535099,-518.3988938113928,2750.4693680277837,0.06025855477363263,-12.523127787423793,-25.371576588902613,47.01147446243504,1735410595130.0
1.0870633067993936,-2356.078252793395,-200.38001019261458,2048.9008408455434,0.04777681511789395,-12.341715313614719,-10.934466392960207,35.56781327545565,1735410595160.0
0.1993828013661748,223.29439022520432,-442.09962126182864,-554.5812118617027,0.03393997716980943,-27.15079273670303,-16.741690775139503,76.23827535221605,1735410595190.0
2.2261461101791467,-538.9322120818562,-463.35670788152606,-1228.0702301127403,0.01921944701717176,-15.225878527325145,-13.177239006279374,5.2769914519851255,1735410595249.0
0.4525753569587545,512.439593734649,-82.57239913812754,333.9468311344355,0.045535343781769565,7.97962988247523,-16.622394224544514,-68.38528710675324,1735410595280.0
1.0814795986471344,275.4030206730772,-710.3056717221835,-297.2388694417108,0.034749901078154344,-7.880464461358345,0.9120971811427445,20.056937075286598,1735410595310.0
0.38433073631606246,583.7541162841653,-1399.5104460333675,477.0149794443007,0.024611658878159776,3.0111746966529367,-26.063418326424866,90.00838269043845,1735410595340.0
0.3955512210492789,914.9073971541711,-434.54081148079825,-175.3823738943712,0.05482255951006086,-24.155224154223887,-12.11790899307192,25.43186798739511,1735410595370.0
0.09113240474046902,545.7759981654353,1013.4179734166257,1095.9745374515674,0.037842645730562105,-18.41983457652983,-30.499847906044963,36.56402788486068,1735410595400.0
1.3294264323974379,-696.2458219340037,-382.39435090338407,335.3222034729673,0.04647470501515938,-44.769099181892265,-10.55382559449361,50.84881338402288,1735410595430.0
1.5071367220445624,-1900.5880215312013,-267.9236714367077,2310.593697057959,0.028841343898906153,38.71015367295299,-13.682430099596212,17.943910160806723,1735410595459.0
0.4623174722650496,83.41711690902571,605.8298294385024,-1137.4061327672616,0.03550041986819865,56.895936587472946,-17.56404692513164,5.399549351727151,1735410595490.0
1.5699918703279045,5.708093098322053,-1351.3740114983586,-1322.6625065952771,0.04814209813622619,57.780568088883854,-12.689555105461668,13.223430049834288,1735410595520.0
0.8666511251398719,622.774996518852,948.5550445204269,756.4754506242618,0.0544728818945039,-74.23629920660929,1.1396448543618818,-29.85975806419882,1735410595550.0
2.279235854460544,-322.60980486737355,-915.4645841826864,2772.2746528602293,0.052778413560779086,12.714805490260403,-27.83422025899748,-9.936580612805813,1735410595609.0
2.246586027941581,-1036.331815992166,-113.03873017427259,1687.3575904983823,0.027804024617169104,1.1417878018989605,-13.335802038909122,-6.128229535786353,1735410595640.0
0.3582373075278199,789.5663530611334,17.49502257752414,-376.69743692790126,0.03569733193829385,-6.031571535075896,0.261320518130443,-11.518942855675181,1735410595670.0
0.4717571033669935,686.760905644047,-1227.0138631406642,-801.709615063141,0.02801804429100754,32.4898202386099,-15.385606778644815,-25.28053255757895,1735410595700.0
1.4476616283996786,-179.30260421130532,227.17058964765067,140.59821070191163,0.04281635793279571,55.1954218151824,2.6814660962814285,-43.33397803529363,1735410595730.0
0.341731824497447,-226.43701648151696,58.724280268793336,-962.238046775958,0.027474478822034104,26.72182414911142,6.83680684659661,27.89941750573526,1735410595760.0
-0.0495216379283942,1158.8693263799614,546.9242273737481,-419.3416058904618,0.06078153429574495,3.5248286962280346,-10.016848077897821,8.657293811707785,1735410595790.0
-0.06811354682048348,311.75739983878265,-354.62260530516653,-1148.9317657671554,0.03542306337520474,7.660355123359146,-11.186593731440388,-29.579861795505124,1735410595820.0
1.2271518457576778,-71.44152864125832,1362.0688720948704,-568.1433439448915,0.025571586371476655,19.638447689891557,-5.063562308582176,14.54805127506784,1735410595850.0
1.8908751049284604,-307.97485408364037,-167.5750077897443,1444.9604827156381,0.03945547161515981,50.252522911481606,7.170590012744113,22.08578975809098,1735410595880.0
1.5229428254078563,-467.6080809805047,-1727.0802023882413,1718.8713280541206,0.040577193624821,6.5846760740000185,25.95055439220039,36.060182806052005,1735410595910.0
0.2061558602076201,445.4380098135757,-123.89137864658903,1387.2913537122577,0.042216058539666514,28.59595819146297,18.501133403804207,83.00577357586664,1735410595940.0
0.9986438472965213,759.6162364018946,252.01827328399003,-1470.7467294851754,0.026981797113122784,6.680976895018333,23.891615844506642,61.14268181421832,1735410595968.0
1.877525840050784,136.99745920494126,-497.10733190091236,80.74922963486847,0.007023598148262963,32.08132082877262,16.935702311054534,12.354817212309234,1735410596000.0
2.15434185291301,104.85915071778453,539.0469692078058,-2994.0355457082933,0.05782860213807999,16.94099375773065,-4.768220662725058,-22.519398753325355,1735410596030.0
1.264402254794807,-819.723727491693,-22.887942223070326,-1684.8145421218233,0.030860445828332334,5.446576631673601,25.480000624545532,-16.44328518715388,1735410596060.0
1.8513888243552217,-970.1368121138842,-1466.0849588921255,1238.2690805006246,0.02776498402817595,96.07665480170127,19.41499811779272,-2.4290534357941476,1735410596090.0
2.615212837507009,43.553676654063906,-684.4384326597753,2035.2910720736152,0.025261178226817074,50.09163292041766,32.72328167569312,28.436008607895815,1735410596120.0
2.959673664700813,-784.9685093380858,-1569.187631374078,2295.9477160909055,0.0381960758576438,14.592182348255996,12.40404019548741,37.67860782707836,1735410596150.0
0.44035876098870474,2014.2929397824055,-576.6056457380527,-1225.3970492123162,0.02263292609023026,31.517182705000103,25.696079292690385,4.9000718609473815,1735410596180.0
0.8682148565152745,-1282.2938735429389,979.1838200897912,-910.0770731688771,0.02971177944771295,39.368423151156506,17.626699345190314,33.07538976549496,1735410596210.0
-0.09214577169067029,112.98078543947145,307.5097979813536,-132.2719830645297,0.02708747779710999,20.595485889706428,18.267014100655665,2.28650050719399,1735410596239.0
1.0062492028752223,-137.40654804181065,-466.2500552796218,-1448.7176256890752,0.043783547013033594,90.16797229424975,18.072200697839342,-10.43881067371711,1735410596269.0
1.7517144999298673,-1851.7299334153904,-1888.9640414792555,-671.8253224922705,0.032647525553663445,43.30332632086553,13.861179255892957,-1.0712238137146368,1735410596300.0
0.48073801203810446,-549.953241226088,-733.1930763618618,-1342.4577018545451,0.01070009729442815,19.62539887854699,26.422918935716652,-44.171535338619584,1735410596330.0
2.339339764168707,-757.7473303233561,331.8627881993616,2068.9606599060257,0.0255021099387153,48.807180953690036,15.36006667687047,-49.43734347620589,1735410596359.0
2.666675549797886,1724.5647894544259,-1328.5247275103316,2397.909046979779,0.02193159417029305,63.709718005214455,18.228505188922085,-51.32156303827158,1735410596389.0
2.4261249362830486,478.012697556699,-1259.1785041640808,3120.8570511639236,0.03000270073006648,31.532543738132492,5.686792920543887,30.36718189078075,1735410596419.0
2.815755424349876,273.60077646650353,-1801.3154197793292,2257.945554469705,0.07537249094424371,25.524838583302575,6.713418584679277,64.75139247242575,1735410596449.0
0.8330357911248407,-577.8016640666348,-376.4489441149909,-1044.3818712958896,0.042163328002416636,40.668740602028635,25.071068802045964,-44.03561070852369,1735410596478.0
2.090838097810255,403.9035132026578,475.0817861326989,-1584.3126808959728,0.010626536261162042,50.35340187731476,14.865931927738682,14.443575984369007,1735410596510.0
1.2028342966239145,-188.2245110965454,1072.849220306913,-52.96375680046799,0.0469525104794031,-6.327422440295731,16.144214076627097,5.281867714202786,1735410596540.0
0.7770718609996133,-548.663106069012,-896.706083052348,1730.4855391811616,0.04908418033867928,36.738766650789444,17.62873489719049,-35.87415388695361,1735410596570.0
2.216039115379644,221.6041742838799,342.00861247877333,789.5927793426405,0.02590717009182486,48.35363559599904,33.835809774944536,-49.59055993904461,1735410596600.0
1.2581328213913203,-349.9910229668209,-135.2117155959834,912.1915091659815,0.05105167698905237,43.83024243601902,13.127863106008308,12.436509384571828,1735410596630.0
-0.3250363899062221,972.1071288104795,-1481.8975694467554,-169.30370536926478,0.04483675823640316,49.649150987375066,32.01846488100877,44.53665907664703,1735410596660.0
-0.5222425040982936,-689.8284682426838,18.40443103215739,136.09408936366688,0.03354938015373597,46.42609655405331,5.1685465777782635,-45.788819080340524,1735410596688.0
1.079395034319206,528.1491643024466,1028.1728483958325,327.29085879793274,0.056845724909476314,-5.653912208468503,17.65798571882066,-30.007204619284305,1735410596720.0
0.43051766493580135,7.245217899410534,1898.2955950597652,555.1095351418314,0.04449232107134135,-9.685323227339843,14.888984727314895,13.46056240948895,1735410596750.0
0.43950477245591635,-1401.1696806572606,-725.8094441348068,-326.8249550025845,0.024172560737821567,28.350102227807213,0.5066217285460102,-3.5184319271475815,1735410596778.0
-0.15911374568551295,13.796336216883759,-1518.5251226740045,-1508.6026646981602,0.04448086972168785,-13.195277873850184,-1.944290967754438,2.736920140356375,1735410596810.0
1.419103182627339,-635.9383375742044,-383.2773726815235,-1341.0529539189743,0.04900303637368973,13.909113761954716,-0.2727328963085587,-18.288272156046123,1735410596840.0
2.344322344660577,-935.9139589962421,-1084.7272764386514,1733.1972035610154,0.061011140978425235,-28.523506235673217,2.4971813312112445,-13.950109310586477,1735410596870.0
1.9214088758075558,207.84397953971643,-1915.4593693467818,1928.2663867974513,0.043497912655733655,40.12407830849761,2.1712778963129353,-19.443567446387355,1735410596899.0
2.377551695732528,55.232217945055595,-1080.3132927253916,2422.065084366611,0.017242680782815892,28.751134501349046,7.071304518338276,-1.9850392146580091,1735410596930.0
1.367844392226985,-1150.0370665673868,91.4578791314205,-1099.6110060263645,0.019875204316657832,42.03167011402637,11.583320752391298,18.091666753432364,1735410596960.0
2.0671294321234672,-627.4118830606913,-694.421747997698,-2017.7606003630813,0.02140977603960101,46.950294147457086,23.176039905985725,36.58115044320171,1735410596989.0
0.9131390974438531,1603.6998902444725,-1237.481524365957,-1691.557299617947,0.03105469173980835,43.40266757445701,11.871479306127476,-39.467301496558946,1735410597018.0
0.12725450719431952,-632.9692780316412,-1170.375968380465,-1117.5246160866418,0.05051087016465035,63.296787612131126,0.7468080793982965,15.926238995086202,1735410597051.0
0.16088690215871698,-764.5582928822109,237.08523392004764,-1385.012386536888,0.055921201914663744,-16.169873279874565,13.576639639095333,-30.085294859207337,1735410597081.0
0.8717660474901121,-207.36676002335736,-140.5338902301582,-886.7361457718262,0.03447093437553074,14.470998563777119,-0.09433132462499927,14.267018849525641,1735410597110.0
0.9703413520494535,-1532.6818641627808,53.332506619337664,844.1505609625466,0.047761971485333767,0.4528840139777657,-1.1877223763618705,33.409694532731535,1735410597140.0
0.540846612908995,660.0978369372085,1489.5598504502868,294.3001285079352,0.042857513260443854,47.070646505710044,-2.4395367290892658,-56.666166435536425,1735410597170.0
0.6031709845190816,1360.3721209793102,-1536.4332849632278,701.7784163892243,0.0405121352393016,1.8002150540992794,1.6801806231701697,-50.381656858466854,1735410597170.0
0.016652069111084633,-177.59850526334822,-258.47488415994434,-317.7369555215324,0.054401433067581356,5.563549829762941,-0.3648273205971506,-19.39422374045657,1735410597170.0
