Acc_Betrag,Acc_X,Acc_Y,Acc_Z,Ori_Betrag,Ori_X,Ori_Y,Ori_Z,Timestamp
1.2065995580480782,-795.934929077451,-314.2449016114697,1254.814323815752,0.07559728547193578,-4.489465519153139,-10.3878101252958,32.76936061898064,1735410695213.0
1.1581517383750888,695.8514908427466,-619.1507564342639,926.5567925561165,0.012447492490387228,-16.72760947709965,-8.157490412512379,28.44467759798381,1735410695243.0
1.5564306065144737,-342.10527461026845,-792.9564310623907,108.45895183065409,-0.0010112691758251777,-36.69824269774017,4.481958363517394,-7.596492754802425,1735410695272.0
0.43519227022372836,164.07196939154275,958.5005961640322,229.34657586673973,0.007689321902143142,-38.9416324387054,-20.818369147966592,-41.866370579250166,1735410695301.0
0.932806160856837,-2005.2910969875288,-371.10597913627737,-18.87054014289231,0.032038987857783016,-23.776458981549183,0.058110385297194256,11.564709262458152,1735410695332.0
1.8447244593304357,-1974.31131711345,356.15648413242775,-788.4312640574774,0.016683808093646956,-23.99254042648296,0.7581270678680161,-11.029617807600257,1735410695377.0
1.8530456699836586,-802.9411971579523,-473.58949369798665,673.7214552101427,0.03438865209988393,27.880918687315486,8.763367547203563,0.05509330341023855,1735410695392.0
0.6303175659232013,630.7925433753583,-846.0387781197946,1441.294908277692,0.0528083133467689,22.39954032117241,11.925419530782436,77.07038548831903,1735410695422.0
1.2144352888032393,-618.843935758609,-349.22519996525716,-188.94021424622872,0.020295466510601108,-29.32703608421793,-12.939950562396145,35.54272556761055,1735410695453.0
1.3885243317645737,732.5940082609877,353.9338271756705,380.8319171123383,-0.014124725240161241,-9.86556352005321,-7.452155608748849,-20.72305809665353,1735410695482.0
1.5806953171553972,-262.70056165930714,255.35324737711386,77.41573605005496,0.004067904346776684,-47.88626260854522,3.5413806502354435,-11.328231404426237,1735410695513.0
0.8959386112521733,-2020.2998387653515,-434.99667228197757,844.3169052937203,0.018169022899748772,27.331636403489576,-19.18207265793635,10.534190044619168,1735410695543.0
1.4785848978324776,-1858.4585931663532,-105.48702192175904,-131.15025406892653,0.017432592843392353,-22.974193632322006,-12.968473985497436,-16.76620347957364,1735410695572.0
2.3415761612939967,-2518.6764372150965,639.9312850104843,578.6103458687983,0.05637930767286459,-33.393693170423845,-3.0748543541747635,-45.99602453710214,1735410695601.0
0.5722390116323632,48.3084244211266,808.5229296029563,1120.6682289462058,0.026251511492151554,29.62197010916049,-6.993852341263627,42.48558380918685,1735410695632.0
0.6377593026546721,-2379.573083797349,401.71212616213313,1032.1871606761283,-0.00134415038167756,2.94669123749242,-10.507396445753331,-18.82964526382139,1735410695662.0
1.62228402242757,-859.7715207405408,566.6641144820657,133.19045346790415,0.030827618814870495,56.55559973017073,-17.041576586782956,-79.59890188154651,1735410695692.0
2.021090965781859,-855.3368410880371,251.24097574128228,-415.0084170460059,0.03634509593115367,-28.415561635637275,-6.135636911911433,-31.4979636217489,1735410695722.0
1.009891406964345,-1095.645384351338,644.2577237119891,700.6147423160896,-0.0014133532648937727,-22.621313865636495,7.773256726617353,-62.48078358151699,1735410695752.0
2.196909913393891,-3074.5357721915507,322.04787522370515,1411.7426838917117,0.01568423606998886,-29.933027092082984,-5.682619281163524,1.3653078580693538,1735410695783.0
1.8938655574014494,-15.201413391789288,-976.7006810452378,988.5512841922128,0.008696749483067083,13.12417255890872,-3.1766998467098784,6.691536751105273,1735410695812.0
0.7549490753847568,587.1582645489501,279.95221594206475,1879.80937131882,0.02149262105037295,-51.272934297080084,-7.057690135633656,13.597017575272622,1735410695842.0
2.217636446971487,1973.895049655036,381.7018113677777,2381.5238196107452,0.041781623998336265,-6.718045534300023,3.6512581601430725,-41.87769853015958,1735410695872.0
1.907879085322952,-183.61038118083945,96.59506818380078,1451.1439646984447,0.02883264402823598,-12.150747538982545,14.189626958086267,0.4014453459120162,1735410695902.0
2.228787637021317,-2698.413951837204,429.4606271579206,-120.75484603540761,0.04583949085900728,-36.005139307280444,-18.336368395211885,-1.1536339813296763,1735410695932.0
2.3321762918387012,-878.1518922344696,-529.381143851472,321.096174679539,0.012647616967693336,-31.83394722256896,-15.034051956161797,0.4556748420014509,1735410695962.0
1.8999464848523475,-1694.3061027647182,1322.8891499451763,2057.187868867757,0.017853355059906664,-3.9413043323132007,-10.196471871988043,39.839177718045384,1735410695992.0
0.8587594832611867,-740.0627525826127,6.1939270824449295,429.2939039634648,0.025291089291235035,-73.84065062849503,0.7888196058147585,-25.07050007017861,1735410696022.0
0.7335006492060054,801.8227949111165,590.1545488054386,1225.5419018688133,-0.001387839374840119,4.413905469097678,-1.0460171681181318,-1.6289494072813793,1735410696052.0
1.6212431146973143,399.5865739227488,990.4438744267388,1542.8635440228818,0.02241528942295545,1.0621824135631233,9.456343801386474,-26.786868624321578,1735410696082.0
2.7792900091546553,-1860.778493045871,1667.7686054184533,270.4925278738582,0.026455121184989737,15.503107754657123,-6.773431194947679,-18.176756655926336,1735410696113.0
1.1892462512507207,129.87663109288474,662.7705637427171,354.3982923689047,0.03767740331010486,7.601796097472969,-15.759203672883833,-1.0289096066665238,1735410696142.0
1.7425699124245617,827.954245185125,119.61761760813971,1904.8680182552303,0.02125202595613642,7.201602600279401,-13.24185975534264,65.98648443532177,1735410696172.0
1.4125783152206104,127.41727009216015,1129.9448677972882,1129.7652711293463,0.024865545678899433,7.250073642372596,-26.614533536033925,4.373328811224387,1735410696202.0
1.7091195873513874,-632.251433418109,2732.3751017723125,717.0560555514231,0.015388299317566393,-32.10777373945945,-15.763439271236992,-46.35184393687747,1735410696232.0
1.6556631724914477,-101.64549271517711,2235.8074080988663,1389.3527724638557,0.016613538667610367,-3.0561551004709164,4.780276348938385,-6.810971650691837,1735410696262.0
1.5937081810224139,1609.6978683500517,1034.5860007142207,629.2869224043125,0.044951154390580284,57.808040695180125,-11.419950017661694,-14.347114799542656,1735410696292.0
3.193874406722119,-1472.2139635732976,1750.8324134064871,819.3992433408666,0.028963526611568008,-24.285932042852387,-32.819897133409185,-36.07553148279973,1735410696321.0
1.6528892583217787,-999.8815800719331,1528.1761140112512,1102.0779086575135,0.031651247590073345,-21.033370083275113,-5.499017036813676,-27.916839724632602,1735410696352.0
1.810523203975597,754.8889796133776,362.4339856793667,-85.73178466155127,0.02368543913804057,-10.767558714958259,-1.9111159989460624,15.925200469260563,1735410696382.0
1.0276475950382236,1780.4492737419914,105.46880842670032,198.72402086846375,0.03462535068736643,7.086427687033652,-21.995012861075942,-38.713724573987705,1735410696412.0
1.4272787547458075,-748.1904926735849,156.0667135165877,601.8757926895335,0.03821678332578381,7.341877534426546,-6.191499220158694,-52.489622024405065,1735410696442.0
0.6304715100838827,1797.853555031508,2243.93782020707,1200.92093383403,0.046374616634078034,-20.927360038961304,-5.5209999138666275,84.4863095665007,1735410696472.0
1.0767812595316109,800.4975217013856,-619.9481592596196,2074.623438100086,0.043962282760615576,-7.363064640440841,0.8941827537432419,-8.160352268592192,1735410696502.0
2.1081449048924563,-2159.698488218134,741.619614446749,547.2341230753849,0.025352164086950842,-5.128573780733687,-16.91326333019071,22.723811594072277,1735410696532.0
0.7167800046389089,-97.50873174221306,1438.918603281666,-457.4824343923316,0.024166357855800333,36.92042757995534,-25.665698843604073,-36.13140453265063,1735410696563.0
1.3122361040412693,-539.23462471887,1464.1092694313018,-343.91924041204703,0.0222670981473579,12.201634804031093,-8.562800999372191,2.7213587228921305,1735410696592.0
2.193697140621299,1175.3989232601893,1838.123853338714,463.8878503878863,0.02263669541036033,-23.8613104404783,-1.5268282170667433,40.542307052234044,1735410696622.0
1.1325822948599982,-735.5942860494508,1359.6943060111394,-190.47548235403838,0.02309760354423218,10.541911871306738,9.901875694599765,-44.23014343939839,1735410696652.0
0.6796654130486887,-189.85716344024073,0.8523977267085456,-1122.0193765665945,0.035319518823610375,41.189943978238844,-12.264823294388215,21.579459984076514,1735410696683.0
0.32365483369765297,-188.7905842327684,-379.2186821918825,733.6967954696299,0.008118364016679053,9.649809286798458,8.402515878514663,24.460709151144904,1735410696712.0
0.6705180561795483,-934.3422371198603,-216.13629782694807,937.6452008263093,0.01817257375122338,5.062178099675327,-22.95767397204,43.394707453966554,1735410696743.0
0.30954407749617385,-2015.022259048181,-395.6399041293273,1433.367316648566,0.036803076169769786,0.8508991747891148,-10.393491284885638,12.163097429646204,1735410696772.0
0.3369848051460388,-1354.4705380904206,167.24499918837682,-393.8139586838413,0.025387733208601545,-6.611406176117997,-11.634333039225591,-41.23990004745681,1735410696802.0
1.7441391406847768,-1414.4678855445625,708.2738801595933,-1088.0633914356824,0.041783751063751685,-44.982862088233674,-14.451126699520517,-26.605047602716386,1735410696831.0
1.366851557780056,-1552.6842739244262,-160.6276580777511,259.06978417073384,0.056658009448748735,-9.23338234685744,3.129221891100289,6.040940253364699,1735410696862.0
1.6518936599318426,-2120.1943708301883,349.7440475801729,-1450.754526543614,0.016486722524692625,22.53830577391318,7.827155670073486,-38.510159755772705,1735410696892.0
0.5992126043455883,570.7408548239553,1255.004785463636,2001.3739246168482,0.0386270926415011,7.996378507794001,11.459019038530235,13.459912570541668,1735410696922.0
0.5208194684354822,-754.0783345745643,-96.82719165439403,1467.041525760938,0.05609311972617099,-29.696216197937712,1.1469587789543227,85.89818340567324,1735410696952.0
1.1715017528750344,1525.5990441835431,880.853515346216,832.9838726446296,0.038412917216242945,49.68353889719277,-14.785136025314936,-123.66537919737172,1735410696982.0
0.7949612778240249,1736.528541542312,-1183.008446175973,-673.5067717419577,0.01953841835170217,31.920890943109843,-0.062069558162733074,-0.9165927756176977,1735410697012.0
1.1876400474063038,213.9150296131296,592.1320052854869,436.81861527993715,0.0760711695961579,8.69111026698301,-8.22608010343816,77.4347399517942,1735410697042.0
0.36886502684032396,707.3624497327374,-538.8954403033663,713.9814179287168,0.04539210442700047,28.74925662541853,-2.4709090455857354,37.81077108106044,1735410697070.0
0.14161738723624362,881.8907579869771,1131.0057413285426,-434.8609201997727,0.03942263503255486,9.319139427701973,9.29005423883984,2.033547414917173,1735410697102.0
2.646009664923067,-1075.9718111626644,2596.08280988338,-1251.0222312951682,0.030340977207475216,9.582782210305002,-11.476964867618824,26.436627733422245,1735410697132.0
3.799167638470964,-1927.0893934453554,2769.0629078396432,-1562.2130574262442,0.03493697094816153,9.787648700955806,-13.75923622313421,15.657774599655738,1735410697162.0
3.0897132532823637,-1046.534280286143,1459.1346949656302,-1626.358090325001,0.03703248748230022,66.72512735866202,-20.657542116462018,-60.151733758530725,1735410697192.0
2.632659599232919,-2362.7610278299,1911.7245935092408,-2750.6615611431475,0.06565066686334936,19.89584150618726,-16.771634609662136,-46.559514035091766,1735410697222.0
2.849858146466623,-1172.797084064867,1495.6925736373544,-257.9698587201542,0.02270556182069055,76.26332664882636,-26.445050390252746,-25.899401764296748,1735410697253.0
2.4278618939484256,-2003.745446151776,1500.3051467107678,-1484.9401970853605,0.03175660615958719,18.768413672686034,4.004519453714716,-42.67310662802801,1735410697253.0
