Acc_Betrag,Acc_X,Acc_Y,Acc_Z,Ori_Betrag,Ori_X,Ori_Y,Ori_Z,Timestamp
2.656404897699177,-2383.3979916574226,1364.7130254820631,-706.7272767617976,0.046187177245599495,-49.510761757642896,-17.683633694955656,-2.5925183306316057,1735410695213.0
2.184176005459558,570.2479002020336,-784.5706555411141,-391.59848695408596,0.026466596093780406,33.87023151109288,-16.837404535750096,23.46951968206836,1735410695243.0
0.8258574645827609,-407.48754198590115,-592.2836552500019,157.79935204331423,0.016346971375490224,2.209208561512867,-14.59486299041102,20.845344305410062,1735410695272.0
0.9201150290612771,-307.52043909448,394.3261676970425,1032.7541295212468,0.018762381057679786,31.608010093445877,-1.4518176162209029,26.797087639624394,1735410695301.0
0.5089764269112333,-1754.7229380719646,1130.8213452738084,-540.9775751545131,-0.0068189952024924755,16.255281074019344,13.279665538583114,-41.36667984147695,1735410695332.0
1.4612128652189822,-2769.2532799175533,491.36553830095926,-46.69947933639423,0.018342076909043332,-9.694779084840063,-9.007355028739195,2.0295704542773088,1735410695377.0
1.3819000169228954,-995.2751869954486,-141.4685346919648,-288.902967892271,0.02720001946188396,-30.785100991022695,-8.17689505386379,18.713835564706176,1735410695392.0
0.8996282406870597,-453.05917293769403,1324.7519365778526,994.3396676222238,0.03649155152055522,29.031866903610393,-24.21857318911964,29.893657182914044,1735410695422.0
0.5516286372032163,-1689.0335344600996,881.4423167053669,171.59436163870612,0.024143761660994602,8.240477127809463,-7.9945779878655365,29.499745694858746,1735410695453.0
1.3088495877661506,267.54648195038726,347.4913919745592,-128.81315771488414,0.014223780553039139,-22.98559575688352,-25.50833866357068,38.00352790162605,1735410695482.0
1.5409163804970325,-1839.5960541099616,514.8684119537072,344.79738011848144,-0.004455882483976761,8.536706906700395,-19.266207847833805,-9.046757488930627,1735410695513.0
1.8202272624139784,-365.8064143247336,963.9856672249757,411.17124470429695,-0.0008807139365220942,-0.26590504314903995,2.5815606643783795,-10.649591872674167,1735410695543.0
2.900661009582988,-2163.8233284782787,-81.30439927571183,1084.067118658239,0.026292684471729035,-64.6456540925648,-2.573605303238785,-1.5682553932910324,1735410695572.0
1.6389074750849475,498.8186471170677,59.785188303844166,510.1435102369237,0.051578056764329694,-22.760199603517307,-8.60885676232363,-25.201647152642447,1735410695601.0
1.9709718013702657,-565.4682242208092,-243.2785957349264,-267.2255930630538,0.031203512259584322,-48.12435309684095,4.159834348168668,4.005572506886249,1735410695632.0
1.6196771359067608,-645.5867674972056,694.0425964092915,1816.4104129319578,0.01749243359319796,-42.092445319866314,-5.666775141466184,-0.8504265367187922,1735410695662.0
0.6638579416436077,-1122.6165445772244,835.8302083144056,75.241079032769,0.00896854602955868,-18.06298013579252,-8.203388704528006,-50.31733395458377,1735410695692.0
1.3698265456417773,-330.39359672860996,213.12020449645001,1600.3119620162277,0.024990565171820897,-38.26184158122107,-23.7210131124304,-9.156678632189948,1735410695722.0
1.858785075543003,-1513.9030763498793,729.8486222647839,251.41895412388283,-0.014821141320968203,-21.081670890716538,-26.575410054622395,-4.698412933107617,1735410695752.0
1.1353468430760834,-3461.434686879399,659.0500328592144,776.7799663300714,0.011065654754604604,-20.97311795332741,-4.947247152349388,-14.847969755434942,1735410695783.0
1.1486564372965677,165.95925519363442,2333.5640645176863,461.6177701909605,0.00544861273439054,-39.993266280796206,4.4363102657883315,-10.254479099245799,1735410695812.0
2.547992456387528,44.715746052598945,-1.477085221282323,1569.780956614164,0.010517425025489819,-34.88282358953362,-1.0729391751451285,-5.882422940195259,1735410695842.0
1.4827930211835816,1203.9388333331021,881.8739318266182,871.0242095584429,0.011874616486417688,-68.37203776461007,-7.114478670850467,-2.3847539417191257,1735410695872.0
1.8956497693198793,-465.31187874652437,433.3124370890595,584.18473250353,0.020455780538631507,-7.466068004485088,-13.945352887219233,69.40466956791609,1735410695902.0
1.1971947824471496,-847.5451503924933,-560.2196539829106,513.3179943325996,0.049579580310950444,17.808039810819587,-4.8460494167849415,-47.77274058748881,1735410695932.0
1.335127638496479,-1099.9124710137917,30.652406664877446,-12.894894583699966,0.02335065317363861,2.892756760164282,-7.037910727617082,31.166791335203957,1735410695962.0
0.8935788905493772,-1461.4584778523113,187.24737351471146,740.3663137225477,0.023220282857049267,-13.206636021592441,-19.118268593810377,15.663984729895832,1735410695992.0
0.9490565598190795,1839.7138931280651,1561.2522012699283,1502.8210060178149,0.036942978286674075,-21.733126661692566,-29.930833884331328,5.469588149957849,1735410696022.0
1.3006122585138624,677.5118638050208,-481.1176976800216,2043.5261363598042,-0.0027676509385646305,-47.98315797129006,-16.23927230633351,-21.06126664354206,1735410696052.0
1.1005822592711556,-171.0138047472922,335.07693166420216,95.51735019277533,0.03579551080035748,28.86265889474725,-0.09823085751513627,-14.329214986284438,1735410696082.0
0.7318879683210183,-700.374259899313,-585.8824356345735,296.28069165286826,0.06540849682301694,3.222640317907958,-6.628098104846694,-6.049662869435,1735410696113.0
1.489103402966631,-910.7063807523471,553.5290201633037,557.8368105629551,0.023530665048483286,28.050402276736975,-20.33662528874078,-30.372943288077213,1735410696142.0
0.28714782099459923,1138.2880057558468,349.25007912615166,1561.1990424884316,0.02498661821356701,-2.2613043055390936,-0.23417440486318064,-15.966040241003835,1735410696172.0
0.35928769745771516,-1948.1375960544478,-519.1980013688003,1167.729330652086,0.03305990804197592,-63.28817827897033,-21.11160233877481,0.5954783724319102,1735410696202.0
1.8588232628944183,-401.07460283025245,992.6526253014431,-1110.7595832946781,0.031059322850132173,-39.091070384176916,-16.155547045911934,-0.13464207261118588,1735410696232.0
0.7995661077729461,136.0811542736132,621.6093118349108,134.210684754574,0.03925526177133238,-24.068643022155676,-8.52935013003744,5.234848362346554,1735410696262.0
2.7732325009125622,-888.9477773534389,2941.6356078541785,101.08792812168872,0.058623405156884995,-34.82464341452436,-21.915749532848277,-23.487916600303137,1735410696292.0
2.037021279319958,-1752.0126844995418,783.8633834738145,739.9807761151776,0.03670515849126948,-34.18237642301137,6.5318523549789305,-33.108802632843286,1735410696321.0
1.3248627023618982,-2740.512201661629,-460.1906352889266,-118.56275427899834,0.04354732549786121,-19.198306804654244,-16.661529730758314,-42.04129989707541,1735410696352.0
1.4076525252128762,-1259.1678282236355,-166.17556211945794,89.26286661554471,0.009698879631385937,-26.53890234157288,-22.323625148655715,23.009652672472964,1735410696382.0
0.9813171472276445,-518.5774675913025,1845.2885470417405,1045.0551308020508,0.027875164010618007,-78.15187492138764,-21.626072970000717,-18.269292223023733,1735410696412.0
1.876587779595361,-15.314954333674756,1107.5730086822005,1161.7961193487633,0.02471408015010878,15.3804691455357,-25.73436193774326,-47.98984544153128,1735410696442.0
2.2789456753475688,-1024.0308461944273,774.0461478482201,492.19410575068696,0.04273035270841185,5.739145858159054,5.406428770696214,15.175212622439627,1735410696472.0
1.0548043666248064,-59.772299512073864,936.0978588608655,1385.2069891859587,0.039866290432714724,19.798949144106718,14.811109847628737,12.445045032980786,1735410696502.0
1.022902573821674,-2262.273945217641,1815.2577272946958,993.7149433046063,0.04834058159803282,-33.83396990849436,-1.5726269267034478,57.69438564581487,1735410696532.0
0.9606439024054153,-1907.2747005805286,1005.5302974145143,-700.1983166756032,0.0243144970801848,6.810696993989058,-0.1678597423008208,11.889888004390254,1735410696563.0
1.5433887795905354,497.40588309740883,1086.1236361334481,-418.4356085381597,-0.003785162770593117,25.104681145854066,-3.87160604960147,11.915471759070424,1735410696592.0
0.7254532496389705,-182.8531364671428,470.8620227138383,764.2178218979368,0.03809627326590427,-2.322334202951682,-2.2308983757389464,-78.73771510102989,1735410696622.0
1.3320945290686075,1384.0273357890053,749.3963004502622,-330.1843760838035,0.03301461652043992,65.99131487903865,7.7588722264494265,-33.71602678598521,1735410696652.0
0.964737049557735,-1479.047618016981,2014.7601534122307,1032.2001651084565,0.027265128939215833,-4.358039445036349,-1.2653337143677872,46.646781471536094,1735410696683.0
1.2010496886442943,-587.3672110719338,57.68403807583098,130.38278251549116,0.01348406033449978,13.295219208977812,-6.55858488839817,-1.7401165669482843,1735410696712.0
-0.19556490426478756,465.45704515102705,1897.1758580495332,380.6864561515164,0.013342500786578577,-7.782557529844313,-31.61621574462166,20.525777169928084,1735410696743.0
0.619374131665979,-740.1709410780456,-106.12902134393181,329.26663276029353,0.03970080211751398,-23.421957748358725,-21.52038638128415,-13.527826294649913,1735410696772.0
1.0791287701686005,78.02824302049555,1377.5964347022723,-415.7914968713816,0.04099661631460603,-61.86173100855764,-11.178417367080002,-14.37929579734929,1735410696802.0
1.149689461243306,-1908.274662637918,718.5856390090283,-237.31638509800237,0.04435649781720775,-74.76053263760836,-15.866514748404338,43.79863607289576,1735410696831.0
0.4892683938711406,-1318.9419133535478,1166.1299801525643,-220.57189749216525,0.032753994541336234,-29.29448912996287,10.581536685459023,10.955826413848941,1735410696862.0
1.3272411826380188,-2143.373987672504,1609.6412810112338,-390.931849070758,0.054698731558412955,-30.244846864218374,31.154003608829612,14.779858320430563,1735410696892.0
0.8861148790126243,-1165.3933868412719,1639.14747522023,584.8031342090936,0.04276854848084565,-13.56077375034871,7.42681718603043,-50.00566429659806,1735410696922.0
1.5860276545024417,560.6992237104828,-124.1109671551111,751.5277073968397,0.03843901783204147,-2.700053649377651,-16.64269043387081,58.410571599459814,1735410696952.0
1.4491401337091248,-144.10468204911058,913.4019036440159,862.905428572109,0.04624221751947015,68.10926619507927,-15.061838339882698,-67.44545369418972,1735410696982.0
0.29199382014180886,1719.8075659146043,-107.70167577844848,-764.1116977467202,0.05704833940298425,19.704582600163274,-25.265109253441175,-2.2529110397893355,1735410697012.0
-0.9745344414050996,1734.624451933804,148.53248280779817,-122.83396184806247,0.07567137102399371,42.975693178095526,3.5606397306832083,13.96608112048667,1735410697042.0
0.03917653027323165,835.5098089660332,964.9471474227405,824.1123101797218,0.06167198463453378,33.930053365952205,-14.901561476392818,18.765324983989448,1735410697070.0
1.4232987655517888,862.0107973046483,297.6753766231854,141.6284587210347,0.02947865799865473,44.96346245780978,-4.396497416760452,50.58911772779287,1735410697102.0
2.3578557548807657,-2810.8398963273894,926.1674439883765,-3860.637259999679,0.017874990404542337,69.4007773221519,8.776276762615497,1.757892643909531,1735410697132.0
3.3241291584987196,-2046.966110803953,251.80283458003782,243.38561520789767,0.04808898789886969,23.466065701656696,-8.940372762742157,-3.8642644962111063,1735410697162.0
2.618364720083586,-2353.5708714629927,2111.9455724249588,-2137.727291163731,0.05594245977803684,37.70265218019288,-25.79612830454544,-37.3838503182924,1735410697192.0
3.0216908754438445,-1418.8460108982044,1657.7040885052838,-1364.0650015352132,0.03087690856358179,83.14151187650128,-12.26500251262995,-41.54307873658331,1735410697222.0
1.3477496755795844,-1396.4409139029613,618.5128439504902,-2313.638678869099,0.04907033574038417,39.5629685249779,-34.0954571142725,-22.169086383567425,1735410697253.0
2.7860633091013702,-1724.4146091777457,2130.062668860308,-2404.8637348661337,0.04759431337101666,39.16187704460475,-8.374575121325524,-2.4232954486388802,1735410697253.0
