Acc_Betrag,Acc_X,Acc_Y,Acc_Z,Ori_Betrag,Ori_X,Ori_Y,Ori_Z,Timestamp
0.9533872140015799,1398.3686086937182,820.4537340999138,714.3867085777665,0.05823814104662054,7.547074590126565,-3.7206884584627584,17.004046209791305,1735410809155.0
-0.31812556714049245,1006.6199566242194,1289.2412382162752,-748.9583399333437,0.021584112461224023,54.22488790823498,-12.649853111303228,-3.2232509107571303,1735410809185.0
1.460817486667738,-464.06085584249877,1359.9775059033007,-648.4799880818847,0.05069895660490838,18.980273162454,8.642719943789418,68.52812394704975,1735410809215.0
1.4259704833166766,-562.2763657555106,-623.8434118717071,1707.140582213098,0.04897735275262828,-6.102386208875887,7.683284381899026,39.82799062350513,1735410809245.0
1.5559741615233782,1590.3324131735612,1342.8000235029988,788.1747200837915,0.016905615010884528,-36.645635143842426,-3.471797870642301,12.7811052757031,1735410809274.0
0.4621277631956291,996.130882683809,-522.3339730692883,815.610271683165,0.012281272714749634,-22.49675682245657,-4.929135944658946,31.14755200771451,1735410809305.0
0.7939657674797739,-117.15395896126552,-61.10887657461092,1471.5649819337243,-0.015054901841600143,1.979720941382297,-12.594878932217338,-3.5544290500364255,1735410809334.0
1.0481751759142532,2527.5308362483793,844.3613601494794,60.47651041368499,0.026215697197329656,1.2684520010068407,-16.007781410317914,-20.632795071885276,1735410809364.0
0.46764771640281777,1042.2415879046025,-311.29412021068913,328.15606502946,0.00882889668868675,-38.44126354060201,-12.726363278900335,0.8903125523431363,1735410809394.0
0.36991568686544496,-115.94386193755372,1334.5564456792174,558.4454600550166,0.030198145192364984,-40.10671376611592,5.786061163327057,-0.01115952804805076,1735410809424.0
0.8805416161260968,593.2704581668356,328.88444449844417,659.7684087520588,0.015879603176740968,-28.449890323267415,-15.760498638809818,62.05042653736233,1735410809455.0
1.018641494853677,487.99321365373345,391.9287287530097,-403.8723350067762,0.02621556032896612,-28.960040946444416,-12.468982082916646,29.40375499196995,1735410809485.0
1.650190966357975,-1164.0448802109577,636.1721428564106,-837.2050702495128,0.03489495666235875,-9.173006017025502,-7.93244202774394,-29.69852425978384,1735410809515.0
0.7792652185214841,1829.738131260446,2570.2205971067815,138.32595889475311,0.02179414281959212,8.013156292532356,-3.7652680201980804,4.113340341699081,1735410809545.0
0.7329878132001448,101.12511406068393,-522.7106649263135,149.50605063932085,-0.00022677609752985543,2.8940860809110944,7.742319056394381,29.93255565905961,1735410809574.0
1.0105237430536178,-1332.943277466883,1551.0581246650584,681.3306636198013,-0.01052539370551518,1.0971944893531234,18.03395025859271,-38.634370067811574,1735410809605.0
1.5921766268972934,986.5128054877717,1239.0323962823882,-44.937702575453955,0.023529940093582676,21.259351567474525,11.847935456386676,-43.56288300050362,1735410809634.0
0.9595248191158192,1517.35353174172,410.42555050785575,908.811605138393,0.01694412564314264,19.120346829549366,-6.57578569357502,12.649437048938898,1735410809664.0
1.3395166123503737,-8.390282421611232,652.3824252831644,1018.2601938736555,0.01840550375559078,18.05641106859637,-16.235829456029187,23.83595964665993,1735410809694.0
0.6678215186829417,725.7411685103533,1023.0863905992471,1524.414857704118,0.014027453656969415,-27.982887115990923,-13.098892419907756,35.235331198021214,1735410809724.0
1.5430280198653124,1115.7963610844902,-379.60498615020435,-78.66715637513084,0.03375425724344764,-28.991443311209967,20.356170787957318,21.870699387536245,1735410809754.0
0.605865212952071,874.7472591506771,896.6499445019829,159.03741067781414,0.018874402491367702,1.4367800078800652,-6.472937096457917,7.521399780828929,1735410809784.0
0.9869277553289699,864.8262839330563,-167.70905490129735,352.79971373229307,0.04312995628378506,-20.395188869923892,-10.214129331609852,-31.17269275505891,1735410809814.0
-0.07804856007131933,568.3784980049193,322.04741416830905,903.7745987757141,0.026773057427683936,10.40746659935259,14.581765838156977,-32.15213711690355,1735410809844.0
0.8562385982115287,-899.3248432905107,315.33413001283316,738.541250457932,0.04002243443877335,-23.991215406040617,17.94628858592387,5.5669265426683125,1735410809874.0
0.2285285689887272,1264.036432985023,737.3343149421215,-1414.1993860685511,0.023504685922233738,3.2001690795620554,-9.947401464920196,-15.210733611837153,1735410809904.0
-0.0985859042730628,567.4361494168493,-195.88254594251384,-461.0381154978942,0.0446406537455101,-16.68863673615671,-19.351878146754864,-19.75304837370294,1735410809934.0
-0.20762820291967166,1209.6150401754005,899.0030294712359,1952.2696758519517,0.025026713066010318,8.565386146919495,-5.034613893588629,-25.925920067669786,1735410809964.0
0.851320966318956,310.71296182517113,-107.38260736699021,668.4111406286249,0.006237284038321286,-20.02094310483757,-10.973441403808122,-10.350203759130828,1735410809994.0
1.056921901512811,1093.5375679217948,270.26869018168077,-159.28069718571584,0.033181389305402355,-48.06415402859828,-9.020297046458476,-21.57440646511886,1735410810024.0
0.9290840866707905,1387.8495179529564,-787.6067034324701,616.5013458999539,0.06019393302772101,-33.93760070495505,1.0130846047140911,-73.3888593340834,1735410810054.0
0.47389724705466985,2836.291723042066,911.8415473157776,-201.86715127568903,0.045367514219911614,7.306180337507865,-6.933148322568151,-44.4459079431187,1735410810084.0
0.8586919388424055,1412.4647945801557,117.8188903777986,1069.2161099783896,0.030056981576263513,-36.31130309233879,-12.291805385344016,-8.420734317270302,1735410810115.0
1.573493087007885,-173.72540198538172,492.2051047298329,-212.00392352217324,0.04235958979887476,17.728161108536128,-6.510613303592968,-16.498596740431076,1735410810145.0
0.27883464344649833,193.21159791471644,1862.0730320781945,560.7188409805005,0.048786174428486734,-20.489268291120375,-9.427441741311378,-64.59282003218824,1735410810175.0
1.926659580459165,705.8790728981234,1346.082799403674,484.34247651506746,0.06752823886576681,-22.471450138737694,2.79480656927863,-79.39589919316865,1735410810204.0
1.1882593448405563,1550.2781064432702,-140.60883278095855,225.6899636200179,0.03485053923782842,-7.513673614534899,-2.9642795762539986,47.40564863127424,1735410810234.0
0.2643857141837115,-604.0412931037267,609.8649514318419,-1244.4436447803266,0.03714800099475706,-10.189127075923793,1.1414065976220358,14.509786531301465,1735410810264.0
0.3131490428394227,856.9968420872549,47.656587493375355,460.87282216124515,0.05992839914041267,-16.729127631306312,-27.002076003579255,68.8471067864357,1735410810294.0
0.32871115727617417,163.15909326487338,1267.1781697769002,-1070.2323259224622,0.051765774867154106,-50.684988550235374,17.48572462403903,58.36338862314955,1735410810325.0
1.0249615477361451,2889.285929694898,1321.491714910716,-1167.9643669549798,0.056349682405863216,3.3677261154490967,-12.583677740800034,30.41313203035767,1735410810355.0
0.7781254338150658,1820.396093702902,797.9775155540437,406.75173803862856,0.07065262977625819,-24.594408569945458,-6.352540266730923,69.06037266362547,1735410810385.0
1.5192945044243271,297.58048969347976,921.4252811916841,1157.4713189612453,0.04125521411927417,-16.399684174666177,6.01970557922307,55.91734565172649,1735410810415.0
0.24837686089940625,64.68225721444924,586.9858830737886,890.395847300155,0.041947251261645474,10.675729329844408,-21.941805823168608,52.49988310875686,1735410810444.0
0.9761829760660617,1814.4287312878641,183.11006959235925,1523.8239854306298,0.04319699298838084,-34.2207641983113,5.986354765099673,46.950177731874874,1735410810474.0
1.3829153927056341,-504.70580364225066,837.8622647713391,-535.5161474778805,0.04655164077409346,8.895774547763903,-12.659741257312639,62.68349353784693,1735410810504.0
0.3212591347452449,-70.12169236918373,764.5742158392944,-1270.4770996401278,-0.0012261755538139213,26.112696181722505,8.47160016685526,50.23683584095515,1735410810534.0
1.5357083621693572,220.95128089028992,780.9801973654148,312.9334131526047,0.0276160739418,-53.41132712407985,-7.267711404765119,52.33248272782015,1735410810565.0
0.9881654815894778,2511.709688773726,2883.7978057147316,1073.0546457072865,0.051022099049825534,-8.97597869065698,2.1606376799963902,-2.9402427055479343,1735410810595.0
0.3130536226207863,-541.0771969065506,1387.266609005469,-69.19304071852417,0.013513010483667806,19.219614736766257,12.70651245566003,79.68393960311116,1735410810624.0
1.2904975483486951,132.11912087144253,271.52081281422744,1469.6023788608004,0.01653675981203573,-13.385075537894766,-2.9618977763777607,-50.51279026409697,1735410810654.0
-0.10533484213396482,-725.0319724240487,151.88364806184262,-177.27425185307197,0.04204376639056279,-12.447099541250777,3.1055085734246575,19.315665600977432,1735410810685.0
1.9480262059517583,666.4299875070301,350.63751853569556,1534.636530881202,0.05357819228636658,-18.160959040268796,-3.2224575633206847,-10.46217699343046,1735410810715.0
0.8918035643948152,1077.2606687394339,820.5058823447542,-394.66587138118007,0.03616011382047723,-9.509429193891972,-1.6125480787075097,29.85276223891255,1735410810744.0
0.7776578106090297,398.7928923506678,-654.0355672299484,407.8058760192846,0.008626180322323937,-38.57727865870394,-10.143307729856886,55.28016401131312,1735410810774.0
0.8577028708164345,695.1763043994986,645.6230326378617,295.7334339017401,0.018449295737675613,-57.88761080633499,-1.7591915006369434,-11.761453001466007,1735410810804.0
1.3649111466157924,-274.7704061934487,-859.183076203941,577.1059948188805,0.03965928357503427,-82.45627027897108,2.1939192139229515,-2.619588163477305,1735410810833.0
0.8455004538033337,13.533597849344233,1213.5401511598711,192.55016076641698,0.030838748340137057,31.797270345403163,-5.1762633195301735,-11.759970570343825,1735410810865.0
1.2280491030009317,1096.600144278368,-748.5681263348445,506.6342387387615,-0.019726594027797813,28.907573212007897,3.0084280192441617,22.892907897168783,1735410810894.0
1.1581011363146956,1024.4800222758263,-433.88812646333736,180.84206594625044,0.027266676777626148,16.741038752599486,11.553280505348523,-59.52236819807763,1735410810924.0
0.5996129653293873,665.4403028683881,224.91904076920372,815.520032797208,0.026251434143837328,-25.059152841716532,-8.869702268524719,-32.759899142691374,1735410810954.0
1.2719982733978719,372.9188810912344,1323.5532802520147,1806.2863042000704,0.03594501454937615,-42.65543731663877,9.68824351472413,10.49941083161524,1735410810985.0
0.18082777914612724,1227.4039517688198,1240.4244223463138,186.8352074394051,0.017606421880195757,-10.630866784348587,7.774854857232163,28.971868914888592,1735410811014.0
0.7724531690766551,1147.6681274178022,828.6845204920065,-343.9141455809006,0.023117043762201667,14.73248100480282,-21.487027056314016,-58.550549819581924,1735410811045.0
0.05598479475275642,876.5268255313605,318.62004318291383,-968.4348126782236,0.01231363915042476,0.2825780733950545,-12.25251767466796,-40.73900334473801,1735410811075.0
1.1158034889118718,1923.6839524172435,648.740937868235,631.8116324158191,0.03209872128797527,-5.967136124374074,-2.9330095310333535,14.855517590145793,1735410811104.0
1.8857538044353988,762.2079281521968,9.110097784268305,912.6846285912275,-0.0016029666685163577,-33.241962978054545,-20.534138261764056,-2.526335495383197,1735410811134.0
0.8604419550644964,295.94744060433607,1326.385128995506,108.46877434976489,0.03757784277696867,-15.668721091752246,-7.442916104748738,-29.19398976391372,1735410811165.0
1.9785043203619859,830.3525153796456,1519.6209178921938,64.8111259452156,-0.010353940985776643,-27.13053923585658,-17.762090958838527,-16.569869588067455,1735410811195.0
1.9985774099345481,1307.1499831422627,336.83483229407506,-38.65342816030801,0.02285548225433958,0.9778493000957482,3.2946995950526565,-31.8845239832053,1735410811195.0
