Acc_Betrag,Acc_X,Acc_Y,Acc_Z,Ori_Betrag,Ori_X,Ori_Y,Ori_Z,Timestamp
0.403053418256047,405.0629640994167,366.9047847294582,757.8806580403841,0.04638440627692126,9.513933344850944,9.945426629596817,80.7137791483114,1735410614840.0
0.42346380701243336,907.5438628033075,-451.13287673016305,-749.1529365835015,0.02797733365620931,43.89036831284683,34.866758765221455,36.72663139354748,1735410614871.0
0.2205655000528461,-482.52696930335856,-246.2134052048587,314.78527754459407,0.025832286934225315,5.430651284600441,9.228184499914644,-64.96763302955785,1735410614901.0
3.1629847484560827,297.0034760885037,-987.6847200922707,-2771.568990584323,0.044618149631879475,-14.85776277229823,6.222723151016003,-12.709587972538865,1735410614930.0
1.5072853940893083,-493.7546379721514,325.78849034525683,-1129.6788136474463,0.05426330874826483,42.600595470474396,-4.859924992693712,62.385893407444414,1735410614960.0
1.9478453055986291,373.52763802523043,-1176.6487348787962,-1693.2642534872964,0.02550138900766836,75.01920978869191,12.47870381056853,64.05683639746766,1735410614990.0
0.8755413308943274,1639.8916017463584,1487.6736724713828,-340.3415215221062,0.07144528415438833,65.71447005809142,14.921136906482456,-1.2117895650973836,1735410615020.0
-0.08582177537338187,-28.359134986184813,298.856985018294,-774.0482722210154,0.06425761207548505,51.80466859202533,12.912978147912995,-60.57104690887826,1735410615050.0
1.3687584227196505,592.0919507941535,209.9849819705467,-1226.1663143018877,0.02359144261642465,-54.37467641448197,7.6125896917934615,21.619390638874386,1735410615080.0
0.48432043697466187,6.635076894122733,37.47543351149349,-946.8131620261388,0.03936149814076324,-11.704154689311647,-10.979198771210786,24.463589962075226,1735410615110.0
1.7245088569799445,-947.1175821361683,52.63199586935559,71.39243622667664,0.03551534579770495,-51.105268187582254,-7.480320850754143,1.6583402479526868,1735410615170.0
0.04582577305526292,363.01003805634,-427.0485040948062,-199.40033580931558,0.04612015141787354,72.39019131230589,-34.46429721690416,70.23134669190455,1735410615170.0
0.5512277027576739,-371.009826375178,-30.255816337938086,-1021.9561265622209,0.07325971605715717,10.721133503239727,-11.525680387141815,-15.806432326473953,1735410615199.0
1.5716372012278892,152.82175463746694,-1276.1675793476297,-717.1503502671662,0.04377790485403679,2.0723117957535777,-6.202067518233523,37.88069143998795,1735410615229.0
1.010774416980052,960.3228368694066,617.32065035403,-1526.815078628576,0.04714729129443633,-37.99338011317687,9.544187712856019,72.88826161565399,1735410615259.0
1.4021452385087518,-319.54506158298227,-796.2971068701487,-1947.586993288432,0.0706659975432703,14.78160823465408,9.039090271792434,37.68729581670199,1735410615289.0
0.1482906663072032,-529.5767445601639,616.3440176904625,93.53478558119495,0.05498648216070628,-42.98126679285381,-0.26812124011532035,-17.887487995334702,1735410615319.0
0.7133231856366977,379.6853244028825,616.4495044404848,837.896406416721,0.01491935646313269,-36.08660746011442,-2.351824094437548,-64.70448836113792,1735410615350.0
-0.21696453317278847,-726.5649981071031,507.6726955781859,-1304.6913578200886,0.05354265522535483,-26.87780073583181,15.14949388076835,-6.740936722889503,1735410615380.0
-0.791516505006858,63.88108651145791,-189.50338242556424,1612.5402047860734,0.06013935467046412,-30.56147460227632,-12.019572524025302,34.61947167903075,1735410615410.0
0.821850987747081,-1607.241437337566,74.83419952172403,-1198.0700496542252,0.04018730195862737,-46.702216545461205,-26.683483593345784,7.202630763825856,1735410615440.0
1.860063563616946,1017.3275990155548,-1733.2623407639153,-2562.032530894172,0.026107735342316918,45.34493148136023,-14.430387297636283,-21.370206309334687,1735410615470.0
1.5494672009217263,-39.414109789904074,-965.084236657509,-1856.7803438745484,0.04985191377835416,41.89079001753192,13.290608900284703,-14.390421805914002,1735410615500.0
0.6075319454793131,-48.62788233961436,-372.4152991777521,-542.0663338987337,0.02390783463645212,-7.782079757504642,-0.06673501001077886,-98.83022942857859,1735410615529.0
1.3811405516592061,2820.190474674846,818.0781469951364,-528.7756789902829,0.02873122702672562,8.564024408300801,-11.641282888588808,24.603985175921743,1735410615560.0
0.42015018158504885,749.9337026736981,634.9513614887524,605.8328024051992,0.04191660771215772,-0.03874377635469539,-16.04115136618168,52.578078408003165,1735410615590.0
2.361026069070902,-532.4805825871442,-1645.997342473917,-1528.6912649597534,0.013332511598111068,4.040239064312047,-11.107328589892479,-10.510326723475634,1735410615620.0
2.283937346919506,492.12434378743717,-1583.7506088979796,-2089.632474941678,0.03160925040581731,0.5836095483097881,4.5065286375520435,-6.681629743328628,1735410615650.0
2.3447975282092965,783.8279784736004,-1845.4623679009287,-1855.020761826901,0.059789492319447524,15.104471476811993,19.77556345350282,24.472596663621466,1735410615680.0
2.5850384835730496,2209.355948080949,-1011.202219095376,-1919.6963036033849,0.0641444550390552,-38.32646465722591,32.60961530578422,-60.58307489982531,1735410615710.0
0.8422582993282193,2322.588432149687,-285.68944678272027,-958.6754606909977,0.015566377456452656,6.184596593116201,21.142879115098314,5.827400148744195,1735410615740.0
0.354151547176943,818.7004617334198,1854.4261601223482,-251.8119095341606,0.039125306709198275,-19.80376766865589,7.322257625737752,52.89531952086381,1735410615769.0
0.6255212623896774,807.7019716097527,-1278.3967713332377,152.92575266696133,0.06275783614454736,-32.85866152741859,6.396670734570575,67.12254951251813,1735410615800.0
0.9326484544880733,383.55517737887897,-603.114194195837,-1322.3327835429197,0.04579470811513216,-43.14904090376586,-5.808232755660397,-4.555382822159849,1735410615830.0
1.8855662577215777,1097.7331202970506,-1649.5377280041546,-2084.1756628238154,0.044547158848447635,-85.81078234006857,-5.428035935376387,-10.733659196067862,1735410615859.0
1.5234053722508945,-230.55212294452994,-780.3724636132417,-1178.5537502558745,0.027000036807006696,5.259232157905917,-11.170751909536975,-31.867429048613044,1735410615890.0
1.2891141455077533,-1641.0012181603327,535.7034188633019,69.25860202795582,0.01666680871531912,-14.76349917968851,-20.06795394639263,-24.450452848422568,1735410615920.0
1.1163608420498927,-665.3640913007758,331.6414541327889,-1533.7163975188219,0.06392822978249915,3.0632572696509293,-32.225464278468266,45.318292151494916,1735410615950.0
0.5240234623497797,-1644.1249778245678,204.09913878722546,-451.31637936719835,0.07122060087659274,18.89334147907937,-10.70890722809315,31.359046027630654,1735410615980.0
0.8987610072471433,-275.68180748280133,-806.6234275638419,144.4366988926941,0.05512235423588215,48.20820507177546,20.92653928478031,66.82423190537129,1735410616010.0
0.6071166813561424,859.8129805954682,277.7148887283811,240.96110310236364,0.06240728376236398,44.388288311643656,1.1037712768284074,58.267282880404515,1735410616039.0
-0.013167550467437339,-187.82347853031035,807.466246040084,-523.8959996249447,-0.012443950076729104,20.63756571775269,29.283524063164606,10.323914390737926,1735410616071.0
0.71894751456067,-23.754921176912944,1335.0180617280043,678.2854191380816,0.02902285572483767,-20.70256147754594,9.149703418540982,-28.035410230925553,1735410616100.0
0.6980412404359859,-1011.8526688975505,-2256.005540624079,-1508.712309440247,0.045695967326436895,-6.1474102079699495,15.941378661677998,9.9500562103857,1735410616130.0
1.8983908698973038,1216.7687606451748,-620.3737374899099,-862.9323642047098,0.026526840651871726,-31.7103160518166,23.00489845300215,-50.038349378284096,1735410616160.0
2.197698288917306,1009.7101845966755,-1998.6043844234473,-649.5325167034989,0.036324391214854715,-0.9068806194449941,1.314071795496635,1.6210732816113662,1735410616190.0
-0.8522211055563529,1474.00031390018,-813.1527964937649,983.7145988588478,0.03155663457357714,-12.62401682594044,4.358524145142892,-27.43250458970671,1735410616220.0
-1.1174768075879613,1007.2697410132874,988.6922969748824,-158.6192864755912,0.015797055845384416,-62.46550059989464,-5.315006011369707,-11.871673633971119,1735410616250.0
0.42562723684778947,196.59731754518276,-397.5740278929501,1074.9356763431902,0.03210306854777897,-15.390722984110894,-11.051552425176432,-49.01910597668311,1735410616280.0
1.914044347929607,-1402.9063855479064,-638.4539623707367,-1927.4081983840479,0.0393607974751523,-61.855226892733995,-12.78116177498056,66.21810259319412,1735410616310.0
2.0291924807799004,276.65420932986353,-1227.3260611803928,-1626.481931849164,0.05745002724609813,-16.352716912775975,-1.188340498843889,-20.965386788564157,1735410616339.0
2.497696704511158,1289.4454085168009,-380.3502131027619,-1857.249069094104,0.05446253778214489,-50.03747513692047,-18.554662182191905,-63.17700460494375,1735410616370.0
2.323645369413715,254.52880890861152,-505.1014592201951,-2546.204810503382,0.0436906274385705,-19.621289025958895,-10.488433252513744,44.167608992476396,1735410616400.0
1.3419828531078477,1518.5887513804428,409.03191213517096,-114.92737705158169,0.04544410479158745,-4.428167667595915,-30.365718686995166,-35.32025669406714,1735410616430.0
1.4309522305833249,-529.1632229966149,-1265.4542562078275,261.2236777695313,0.043018679334193455,-62.232425374351365,-15.568774978684326,-7.347465284325365,1735410616460.0
0.6416907572085423,-28.481321300813647,-364.2317728754663,-517.3802713896997,0.04598417744537063,-28.848339332092912,1.8719286521750576,24.38041250780357,1735410616490.0
2.411058345656563,430.90602954998724,-262.72446074832646,-447.5597497557361,0.023140105618677437,-51.38309154393717,3.162044944903605,2.7731998213013407,1735410616520.0
2.0314469122218,-80.20253294401273,-1069.6589247286809,-750.8006304649933,0.049249063801235934,-49.01341913922475,2.5908603099716645,35.088868156226674,1735410616549.0
1.212362209226025,-1054.425269445981,205.17498677394906,-1974.6183031591386,0.03912071802452976,-46.68154612899391,-33.59179595986313,-19.376233180101206,1735410616580.0
1.1054723670167919,150.26231442619232,761.9593479553207,-1082.1286019487443,0.04562667836270522,23.130944856812366,-18.81883069672275,42.05021278025868,1735410616610.0
1.0774111247053384,808.2283391623278,-469.0811419893628,-523.48475987506,0.0392510617453322,20.644195863888264,5.778041654004147,5.481021010211444,1735410616640.0
-0.04036869097480278,-1224.3112165015757,-0.34764846438918084,-1275.085387450266,0.04904213538942372,6.984631675663017,3.5940978054747843,25.377704274556322,1735410616670.0
0.7770278715279069,48.21176965833294,295.38621871472213,-1023.3864372911004,0.05506310818275609,-21.563220248155673,12.180762645068084,29.909676253078306,1735410616700.0
0.21501070810878115,258.10926100371137,418.87358854530845,484.8761558203928,0.05516859687277229,-63.89968179843732,13.648093446898038,35.63752823531187,1735410616730.0
-0.27376343648859225,-553.1352187212296,267.95737302735296,-495.87822091521207,0.08280866410376324,-58.80888558195971,-9.265245078678735,70.70555560664405,1735410616760.0
1.0977001206846946,1291.8691834412198,-532.9824862058304,568.2930123937929,0.08375356285737573,-71.52429450314659,5.90313329432629,-18.19949953598483,1735410616790.0
0.9663733104313267,1313.9715906135439,-196.89355983684322,-1594.5636090675475,0.08099625731115316,-79.86793264366135,-22.34451328740789,-58.059605999677984,1735410616820.0
1.5188128814938426,-1470.0200585522107,649.6194043421323,-867.5185712004433,0.055110772140105374,65.34375843448703,4.251105164664435,-45.41124293079025,1735410616851.0
0.7934751534776572,725.727683049832,-1269.2086514299128,-15.873726774192164,0.043467326705010224,35.618810732300844,-12.593381205355296,-0.17212678414473004,1735410616851.0
2.2891882764867235,-32.567409397242244,-673.334637160163,-980.9503868569936,0.02966280049963408,3.0860114907462375,9.56204016947483,-52.908076928735454,1735410616851.0
