Acc_Betrag,Acc_X,Acc_Y,Acc_Z,Ori_Betrag,Ori_X,Ori_Y,Ori_Z,Timestamp
2.831563188052039,1596.9940766842512,392.98089851236057,-760.5788333856194,0.010194917373830797,15.19755232393059,2.842313474976713,13.37104724694564,1735410771203.0
1.8204944251039976,1581.2732551301046,657.5152559916742,-557.5169368397962,0.04358689792200408,19.212531432871558,-18.652400667158176,44.39558052024269,1735410771233.0
2.279224296294792,2272.1843944355824,774.5495889627185,-607.7451932756805,0.06106005002301572,-16.25199579663997,-25.032500167028598,17.011365150848473,1735410771262.0
1.7621178052930793,2322.2905702355656,1531.237060406555,-1801.1795172421862,0.03279028929076348,-0.5419701331508087,-4.323333912662015,-20.031906808857123,1735410771292.0
0.822441439085021,413.2729108187813,-488.9383725522626,-664.1509952224966,0.019436127389326895,-60.827812283662,-4.429765931599043,9.889152846424269,1735410771322.0
0.4106519857794538,-532.4034754593213,-122.66770803853379,318.07731475323885,-0.002629207508731555,-20.120157406126758,5.104443268612947,35.37425518636637,1735410771352.0
0.9349815768926382,1171.89344418301,-306.23717358641056,-1848.0911520416205,0.0672235935181194,-18.421000224069594,7.107322744493935,-61.03342669627614,1735410771382.0
0.7379607433254077,810.792603278901,1034.3067314259756,-338.1460804359134,0.02024551980937581,-34.831165569338545,1.820816599055707,-26.894701366968803,1735410771413.0
1.0658295874854056,322.49058997397356,-1789.5295152450112,-87.5087503368965,0.013275493780148613,-37.27793632128064,17.010953954400627,-7.291973893057921,1735410771444.0
-0.037973658647490915,942.7669132192307,-300.1111757685351,322.70528461981695,0.05504765395848366,-23.289642461000874,2.299326105859869,44.092599642746094,1735410771474.0
0.8072429758241241,1084.8084111934472,632.1555422574547,236.31361805585368,0.06971885526778274,-13.974934014902553,0.7053750866336532,-0.9225131736251342,1735410771504.0
2.3839769436175744,2015.2597550491382,1335.8796967508629,-104.06380773540803,0.03032431641360642,-41.51193368196918,11.799711314243432,41.91895065842871,1735410771534.0
2.009871567198135,2910.0068576544445,1713.5518518793497,-292.5789809269972,0.04305747859431104,12.0543864100175,-32.201988507783945,58.116807700567605,1735410771564.0
2.355739805003336,1693.8134464075204,1303.2334636085611,-375.46790543306275,-0.009212470523882157,17.779913325288554,-3.1229368579999015,-0.8461147599594057,1735410771594.0
0.6894101966034976,-807.1903261152468,1925.4608700524614,547.2175387836335,0.032472284518944544,19.225010046249917,-2.2398197535937014,-34.246838084970946,1735410771624.0
1.65170100126523,2250.37871903779,1679.7596976549012,1495.0754819102203,0.03482569934203874,-2.406163587441862,7.2103302143397645,72.21307920827383,1735410771654.0
1.145728385469813,468.197298701082,1235.1030090885106,611.6056982072956,-0.01596858808703607,2.493214772609722,8.33055162499224,22.150153463057276,1735410771684.0
1.852547394192158,1779.8883726062825,691.2738254690001,824.8591492908797,0.03839723098917766,-13.553875179626132,5.162305730299658,17.25462794769776,1735410771714.0
1.423625490197955,1520.7493104656562,583.4888930693157,-1664.1241203305005,0.04165749193469256,45.62917116448248,16.90974711461768,20.309339637425097,1735410771744.0
2.59343372033311,1204.3004900790013,1574.234682111119,-2003.816591278217,0.06073302355242745,62.577404191514894,1.9624194255040184,13.344312109710243,1735410771774.0
2.1476441379107034,983.849230372976,-376.9577739432474,-806.7729746438218,0.03456777393848408,-63.61241136874452,23.79577032849921,-63.95775484667274,1735410771804.0
1.603980476688296,234.12781007230274,-636.4662158376493,-928.4285459754469,0.062278389045504,24.363674090678316,27.891552135667105,-23.550185103885237,1735410771834.0
0.6322259336616768,-517.9540597818306,201.93715982884055,-829.913597503981,0.038271683442593046,77.12858401115643,-6.418090254957101,26.132882517111142,1735410771864.0
0.31107943980429864,372.457934076375,-735.4487814692484,-555.3718729060013,0.04987795893921665,19.88922153941596,-5.280315034111167,-2.011127851442742,1735410771892.0
0.06331955373719333,625.6681666016968,-341.1054153958278,-833.2280854238109,0.03230672946692395,-7.279296696206764,-7.44655914241098,5.360421589032164,1735410771924.0
0.6556300618047733,-1245.6359984197325,298.7993948834307,580.913289449084,0.019426310812216307,51.81798436927413,-25.52862006219333,-7.053835426247076,1735410771954.0
1.4872128560124223,205.89764932335584,82.8717395798414,506.1250854289017,0.07227244802034,77.99464410069294,-34.31730348196507,-102.37158089776975,1735410771984.0
1.3141767419767811,-285.7213147672891,-1601.2615280180123,2041.954994336449,0.04179439495013046,-37.492980508608156,-34.74643325425584,-1.039775301794712,1735410772014.0
0.6284042853103367,-174.3275037086969,958.8730067422134,965.984743199656,0.04217341994815841,-32.292104867804724,-2.671062541726185,36.79825059015987,1735410772044.0
1.5481528497537853,1502.1510174095793,1223.6679151708718,-372.16418168410223,0.027974134713101412,-38.63488011758616,-6.312186581202499,24.663931901307002,1735410772074.0
0.711531597664167,346.7267097153318,480.51680376481727,141.74983383564341,0.022001685400862798,-16.43340057304053,-9.748623669924674,-8.55291154628133,1735410772102.0
2.1803014717644893,475.3811600112616,1841.3681485413767,-774.1320226931211,0.006015474707444745,-18.16799805164608,-14.983489729112916,-69.39400489817227,1735410772133.0
1.7159676082664914,719.2450888138212,1347.5802697943398,-898.376828470035,0.03546279780998861,-3.8957506572814307,4.762663493213633,-69.17832592846061,1735410772164.0
1.8091072124006484,2034.1906861393404,728.4295893517688,-1271.7784371315615,0.020507410378305526,-70.86831754312331,13.059474900218087,44.39164361499727,1735410772195.0
1.1228863508831497,521.0737284130909,307.33218780162144,-1122.4736094569091,0.02675022069700143,-22.936480456618316,5.044232873244503,-41.501143918520874,1735410772224.0
1.7863120598868434,2274.5726909961304,887.7213459984721,-407.9480157404597,0.021365929781584785,57.23720793633896,15.727724487406856,46.7219181118968,1735410772254.0
1.1549305124430909,737.3875160605933,894.3131522235907,-1552.5537564593187,0.024918192376701016,58.19066522216321,-1.2057654145699939,-7.332095726706971,1735410772284.0
1.5803508248129157,1178.6636471625527,352.9676535301171,-1575.5899735694702,0.059479907952359766,-76.40818217644599,20.556163435622185,-10.704346010019941,1735410772313.0
0.06130171310550059,-719.3843036579965,-877.3740386093322,-1021.4041839027782,0.022972677468471196,7.351177012998335,-2.0846127915852968,-31.59227667832294,1735410772344.0
0.4966268162260045,-597.6928629597928,535.5915504026307,-435.0205454044186,0.04114237571197203,0.28938481293974405,3.851258111799674,-39.411260585663165,1735410772375.0
0.41418970629928037,1206.7531240017497,-1454.5368422868596,1569.0771591192706,0.0402904579541218,36.48216848494286,5.377267829043015,23.544365255376768,1735410772403.0
0.2838408250003243,-1483.5399796932627,-1214.3631273632961,421.55212657905844,0.017533082771461116,36.35909897803352,-1.4387071529069784,-56.78918249616997,1735410772434.0
-0.07291175117538728,-602.9469158187942,7.081523838351643,1477.7233897367062,0.02299989684164835,-16.527743332415472,-19.343938411454868,22.676828003510202,1735410772464.0
-0.2778486954889382,661.9284890720138,-47.7433551281033,-45.673819843436235,0.09133990148677026,63.169517590184185,-25.166788227396324,51.70595642761917,1735410772494.0
1.760096995969227,1057.0820218078138,1441.0582612787625,-390.61364784499983,0.04190809905972873,4.078600903457023,-13.954638539226405,61.52646941219338,1735410772524.0
1.4494549984116054,-902.5233247241451,-100.83845308782884,337.9800614903114,0.04864165999776539,-4.993262420514267,2.471440656433616,-39.81782876527594,1735410772554.0
0.6077090430965539,538.4099744800416,216.69231860645948,1284.840485052157,0.03793695936413213,-15.724567162192693,11.736366582929879,11.96531693559551,1735410772584.0
1.7080642178412697,756.8611062820202,878.8433170266014,869.6256680053457,0.03877382332073001,-29.065738754568123,-5.040482219044192,23.86210243125986,1735410772612.0
1.0474936392809782,897.6771567337944,971.1627661649844,-692.3430768920706,0.03954250404751236,-0.06194394230359812,-4.91632356449073,-22.15701294644058,1735410772642.0
1.8197471509372716,560.3579120476371,576.3254049497996,-1185.0556159933014,0.04613638194597649,-18.086680538430056,6.147032991591148,15.765527444639062,1735410772674.0
1.7596976964407558,1925.1140821232632,1212.1932202725613,-637.7860802336035,0.036441929198839054,69.34420703337682,-8.748123298214425,-2.4053631511354485,1735410772704.0
1.971265907169082,3140.4867829204886,1742.1312615866595,-189.62721708561094,0.060211644544187495,-44.24248605209429,0.12173168253347821,2.4077392220669083,1735410772734.0
2.3405173205163727,-221.8342930485628,598.761116610484,-1862.7485756814458,0.02926763953398696,-19.82829349849182,11.149299688304854,1.0948635785912524,1735410772764.0
2.3153072909153907,136.295537419644,178.04844014666088,-1886.9075352677564,0.025778099599660504,-23.01742633963723,16.03385142833745,-20.661834432682625,1735410772794.0
0.8742375942092911,-180.8292462203051,847.2906772558201,-1747.0832619767584,0.0513883978094435,37.42692742221556,6.0102030576981385,23.171663330338014,1735410772823.0
0.4848593649096772,-340.71892357641343,1365.5283900136296,-317.36490767426847,0.03362594406838677,44.69855234019309,25.94643706405869,-18.569597553489135,1735410772853.0
0.5470798790142531,-447.7255211610425,1741.5437507347226,-920.4232076108442,0.06078204283828268,-0.9183710330335231,0.12692942058614232,-47.76746311267861,1735410772883.0
2.161946077494861,-292.79562733008015,591.6334451963397,-2166.149851802318,0.0551947206600704,20.310163600306232,7.154546924242047,66.94180563362148,1735410772913.0
-0.12732122221976705,420.2057450150313,-247.5710713038593,-1278.0856354317743,0.06075169525758557,21.898998916493873,-14.24896826770993,38.77537674610784,1735410772943.0
-0.35683183308143673,-364.9756893673748,-355.6812740213194,-559.8701737086834,0.041547318270685016,1.8368168285140385,-22.249225274210925,-46.177513991120364,1735410772973.0
1.2957850739176222,-475.8855881217879,187.0817807037256,185.00722093037948,0.0735057297874434,-8.477123605707398,-21.670695582418944,-49.66566385110707,1735410773003.0
0.33437664070481454,719.5697597973362,860.1993673503055,606.3669673215959,0.04322144677486314,25.667695679487135,-15.154522235636257,-35.33930553489446,1735410773034.0
2.2805273375154247,1124.9504443599758,1264.9732457919408,1206.836721066038,0.03380646748067331,-3.60547542063682,8.474174431637717,-16.508264590483286,1735410773064.0
0.7301730970309066,673.66219279857,639.7285778589362,876.6418439110962,0.06187212371581866,1.3465214548481796,27.537558148962027,35.24078023522374,1735410773094.0
1.285591507716959,1557.4808379518902,1299.345540352329,-639.1943898446395,0.06382405356802279,-53.79518226293596,-24.694230166194046,64.12449665246093,1735410773123.0
0.976020872139866,233.77943230433266,1453.7564406884637,-620.3407210985998,0.03653300698586278,-22.861914425730443,-10.417473743327818,66.7213987482137,1735410773154.0
0.39659048780869777,712.4397408461873,-296.47701711072136,-597.3837454364408,-0.028586609752512197,25.207610715101236,-1.802445657719535,29.68944393233569,1735410773184.0
2.265819842739278,381.5113088632252,189.9862672706828,-279.25062421593094,0.011678335315341324,-41.01104756179126,3.293738841714198,17.90364559159824,1735410773214.0
0.8547735308322386,1451.0197777067028,-784.0956301062772,-125.8504520849304,0.03427722613202261,24.13151777087052,23.745003812600224,-8.735462275091189,1735410773244.0
0.9598169243327721,1203.6081786434465,1296.4845392949155,570.8243428460481,0.04245540805905611,52.69653331584658,11.220265788002978,-15.609729424867885,1735410773244.0
