Acc_Betrag,Acc_X,Acc_Y,Acc_Z,Ori_Betrag,Ori_X,Ori_Y,Ori_Z,Timestamp
1.2671354060395186,1443.7772239680571,541.471741609077,1115.8688854666063,0.05110568590750861,-0.3903974652843054,-4.614084342538119,78.73623092023996,1735410809155.0
0.8394506114543385,-393.12300706725864,580.1148915978492,1202.112742290807,0.04173837200046394,1.13313292596545,-0.7560356269381086,2.2375521504744,1735410809185.0
0.45209434540662474,969.9559706043038,1122.3804093127221,432.6921496323357,0.03472915736396422,1.4299167866642577,-17.218803949425435,-0.0972360798101306,1735410809215.0
1.0513751332319325,680.1843889249651,1673.044866051428,821.9339317035534,0.023917342616041445,33.259099239894326,10.642507995079558,66.90017221218847,1735410809245.0
1.0293937194658138,838.0209555537003,850.7078476231798,1995.4092879514985,0.01698903879029844,-95.45019465742203,0.9912332380098474,27.406427955844606,1735410809274.0
1.0805310759994906,-166.24457972559708,-788.5278167923052,-1024.9142445534615,0.02985067035052165,1.173500868546995,0.9352359528807603,-26.34424956046378,1735410809305.0
0.6784888722309684,805.8879171665765,-413.01446801802206,783.8514835169719,-0.0016976543101253766,-23.84266279504976,20.663598854814126,-7.126574389786384,1735410809334.0
0.7801850050267801,2179.0325612726588,-100.15623699132789,457.59278374842836,0.02124275774367737,8.402213184464232,10.654711695547542,-39.65011652483388,1735410809364.0
1.6637075115786881,762.6176082648741,842.4321930018674,-431.60451807835807,0.014533710796016954,-8.059106834041007,2.6220163126424056,-5.609173808442215,1735410809394.0
1.013283962855253,273.6883742220375,101.51353176166202,189.67995025322801,0.0077236691812356964,19.249214209785507,11.719292775612413,12.282875730712867,1735410809424.0
0.5404642764549679,1185.9887330334172,1000.1772276041996,-532.1141744591232,0.021432042398071297,-33.03753950429092,0.43418483993166523,46.76363579600519,1735410809455.0
1.755293467440334,420.96462777840674,288.99514459823797,204.45001075402763,0.0021438504136221236,29.1901443884013,9.09495151546859,-16.007703578953564,1735410809485.0
-0.43529771197976963,234.7618122896755,576.2158521138988,-556.0638670884274,0.00603966906515963,-36.08782014533021,0.8475186923889917,56.70264723626543,1735410809515.0
1.289722447283896,325.7529061454366,973.5477381226638,-426.1923722905757,0.04678178184500248,-56.10291266701114,-3.0985909335053217,7.597088948763928,1735410809545.0
1.0932387217974908,1065.6296591881853,-318.01694710645324,-525.3387440472898,-0.003354308851332718,-52.952479601286356,0.2904322179986012,10.476704790539582,1735410809574.0
1.101834958869465,1425.6455609748916,-142.71910111226418,-349.8447402667831,0.006172311127153347,-55.73771986073303,-2.609620358718941,-30.405956271449636,1735410809605.0
0.9794033629379575,1788.8986737213424,984.6478522015902,1035.248026735142,-0.011807827673917345,-10.76323842379303,-7.334661552941315,-0.9997385299241586,1735410809634.0
0.9762771791344245,-12.168967815205974,2475.7347697580044,259.3124514483741,-0.002910816318642418,9.205192154272318,10.799630388388097,-3.8514058417488455,1735410809664.0
1.2614630749473483,593.7910153096365,-575.8085124599497,-778.9432903112579,0.011760396759075448,-19.224391757004778,-4.320216706431375,-33.087193042012196,1735410809694.0
1.3354585433347619,581.6015841191669,792.7571018551198,246.67207198860615,0.008137486759070606,12.341992272742084,-3.4417703411071874,-11.923045430760123,1735410809724.0
1.7370762812455782,-472.17589731368116,1116.3463340206608,482.91373936797703,0.03452373897747531,-23.72782301082534,6.198279823651678,-20.436333777241945,1735410809754.0
1.0997972614999283,1252.6116608275577,1252.6209830373214,39.974096019529185,0.029655627798844706,-39.23000080707415,-10.981590640607083,-25.126783548328095,1735410809784.0
0.6396979599324304,1813.4506580908771,1158.9020993129445,660.5431257680505,0.04178817737976766,-25.47107140367933,-3.2744955698159783,3.7368795208862373,1735410809814.0
1.6621784346478599,1184.6681603465368,2780.239573910766,755.5842448194626,0.03803994501953025,-14.167305138392814,4.3797699122856315,0.5352853741551051,1735410809844.0
1.7161110471051273,369.1271612741012,123.22854726832378,826.9509217818625,0.03408869493269709,4.416502368674346,-10.926311438108518,-33.6916766978303,1735410809874.0
0.7915344855486748,1384.728537134662,1011.6529206775999,895.853302334959,0.015288528582426075,-35.35557903440673,-33.55630393577161,-5.538005515717234,1735410809904.0
1.1688028909188437,863.16124578139,314.7401950956568,-516.5018521310196,0.042048208332447684,-87.50948668619728,3.6404702426676154,-4.5984604385252865,1735410809934.0
1.4074475856337656,870.6382176013022,443.78640769119403,-839.2831213067823,-0.0019991978535550264,-42.00692494417097,8.456788548390488,-13.178566326030765,1735410809964.0
1.5489362806508313,448.66920993780343,1438.998237633622,-235.46795244425152,0.051437010537257195,-22.720908575456036,-23.906868115404095,-2.4268534731645808,1735410809994.0
0.5203981118442755,-316.6749682126565,-151.94531419666544,-547.5092317831479,0.03510444313027485,-17.491901627275745,-32.08115431661521,22.827111738482863,1735410810024.0
1.2255156397142741,891.824708044804,835.3795075669573,890.2793495992921,0.04126655835536406,-20.634990852767487,1.7191756867565295,-77.20022028551529,1735410810054.0
0.7514132857060937,1077.810974917336,1314.4304264099594,634.4401551979072,0.04067255313785004,8.429589905869282,-15.548309641144352,5.867524149043888,1735410810084.0
0.7526554728157078,684.1280637454125,1575.9878369713058,639.9292670974382,0.02528969871729135,21.6786085276755,7.080074778483912,-32.257278833797265,1735410810115.0
1.4976491615178273,362.96763680235983,838.1218075315697,725.7397797801814,0.04813119828467071,-67.33498301871732,9.85549164982136,-77.5519421314504,1735410810145.0
0.8770051490043517,1970.5256077610602,459.09670078251594,1647.918928322374,0.03306310188407644,22.78043015663774,2.3484186123083663,-60.68518183839671,1735410810175.0
0.7767778747182741,179.93580709466642,943.5884245384718,1129.1560744574704,0.0538588790437645,-17.132335079164633,0.3637892443819559,-73.62808133693743,1735410810204.0
1.0287903862207635,802.701294248646,117.75101080378079,1414.256281810843,0.050683646445488305,-7.156290212775627,-0.07046763354663765,73.54793051584075,1735410810234.0
0.7295550132200259,853.5542605263497,253.9530049643294,168.12369390246727,0.0824578164797259,-27.88332037866823,0.7830844980656284,23.938177640774445,1735410810264.0
1.3775660562375298,2170.456468649075,467.3803311528543,401.5569443748576,0.05114215180340622,-4.268346197776959,3.1432488563458096,28.98431709293399,1735410810294.0
1.042276282085647,1195.2589632450793,2092.447126936329,-395.7101950998583,0.03601540777121779,-7.4987551605662475,13.785821486983366,69.9055647160783,1735410810325.0
1.639432066613985,345.1894815101593,1232.08648649506,-31.348482137484893,0.05480332328888518,-18.537794015357743,-5.2117738665412725,26.97788722323844,1735410810355.0
1.3572836900768517,-106.46852764769574,-38.24289847065779,541.9843690760531,0.033053970410688395,-36.34873984840096,-25.053367114063782,43.63420065037439,1735410810385.0
0.2100374111619422,3042.260108678775,776.0396727665081,1512.675044213348,0.04202631258835087,-28.718050152525418,2.3290581189826125,-24.433415568906184,1735410810415.0
0.9890438991753867,2284.2651347865835,899.3743889928621,133.83492972036683,0.030717306524978005,14.463988317499545,-13.842478277197031,44.63848843160397,1735410810444.0
1.403503365091476,1310.2432254758232,1306.4376731595198,515.4039142428071,0.04679859268369592,5.4430610679551386,6.409053609429003,27.42605751328469,1735410810474.0
0.38915811885651164,384.01748165267674,-557.8783594482766,266.08648146759333,0.04445428777218842,13.485256494750093,-11.693415526959432,38.63469726376974,1735410810504.0
1.1765812002875502,1976.3171478543372,1147.380645855565,-794.5252117501836,0.0472832386308726,7.638526441906576,-0.7159818979726145,28.849845446746006,1735410810534.0
0.7060732822521165,948.5071569915006,788.5121749729277,423.54533599164364,0.025391789082808744,-12.43725216314258,-8.828266502955,-1.5533941902303567,1735410810565.0
0.8993544473991048,411.5692978916107,1154.348564172482,-406.1331430463199,0.02951861992653932,30.238406737198012,10.026735290303037,7.062768048238926,1735410810595.0
1.1673159738065957,-1405.8616393165062,752.0266331043555,92.08215183645822,0.029331519006630058,18.438041434144367,-10.487020525182123,-31.83341084807169,1735410810624.0
0.922308673809474,399.87745592026675,641.1638007395642,-280.42054521481555,0.025677629050188007,-2.843369654120087,-4.219766876421629,-16.095732293138276,1735410810654.0
-0.022606153162006093,1131.8248907839447,6.526320464124751,356.739792229802,0.04351358940624163,-35.38100123685295,-3.4598245838864496,70.84584241131816,1735410810685.0
2.585652283230056,613.1676476357641,-958.6621644409627,-565.011663152856,-0.0048750182863395684,13.284324691379624,15.995401603686433,-22.302072311275815,1735410810715.0
1.41884301842419,696.4092935401227,908.1918469344973,902.0370997457266,-0.007507494305987499,-24.15464916171136,-5.183261527115736,43.29969727660067,1735410810744.0
0.5041034677027958,1963.5513535879581,-385.2774934770033,690.4207434016844,0.004467942716670769,-25.174714368624272,3.508303929503189,-29.000940230019292,1735410810774.0
1.4757494887207572,-477.3906697852144,252.09606904069005,61.087550732364434,0.021759133270594304,-55.76033697473033,-19.33662744253853,-19.7933555723005,1735410810804.0
0.2932029177211004,2248.7124096793805,-323.7086480074013,1605.2752099727295,0.017935411242221328,-59.4136418865324,-3.244713531335135,15.91236661472344,1735410810833.0
1.778788502550781,263.76373770420895,770.6978835714192,-221.06625148908944,-0.006311699285489374,-8.531353588273173,6.428524719762601,-3.460174031637255,1735410810865.0
0.5392526537609532,2064.078855063598,384.18399618684475,429.4940079809061,0.021575242106640514,-20.3141985889348,0.8330785052205458,58.24492025267794,1735410810894.0
1.1305447623134204,897.7448301735536,242.6942816517601,768.9313648737093,0.02051388787790425,11.754501918026627,-0.059279969026653,-39.862479586378704,1735410810924.0
1.827257845836449,1768.46054144398,596.43808593551,-543.6625779848766,0.01064917240862899,-4.595895814243621,-11.305396834452818,25.5444443472519,1735410810954.0
1.7720984660618484,69.30867095290739,1279.401570725531,-468.43237267715995,0.012387148374677212,-9.075358138018107,2.459490816714543,-24.125576486251703,1735410810985.0
1.0816623121854072,1131.6575032199119,-695.7965628615877,-243.08881293428908,0.020218075188438687,-11.941878784404409,-22.334409505509395,20.118630306073367,1735410811014.0
0.867770009565106,730.3908793651954,524.3039781456783,-270.50679647909294,-0.005328113766124314,10.731130171725093,0.698198564579964,15.600680080686995,1735410811045.0
1.4148553541581348,2218.127718666975,-836.1766909978965,-302.1464209865376,0.0020682834771561243,13.112943389113452,0.82975099020081,-2.62049517225108,1735410811075.0
1.0136381732778692,337.3336099408496,1017.6237517347785,1191.573844940478,0.035323395456769935,-7.979199412340409,8.547229107362398,6.5400089442043505,1735410811104.0
0.9206510956479103,2766.3235234849826,775.5259844263098,-109.9163880567225,0.016202004413519044,-29.494897742748353,-15.211646315671713,-57.214033032402654,1735410811134.0
1.1730401215428794,682.3168197841649,533.4088996031295,760.9159648297009,0.04522021957907568,4.19696581484037,20.450247856204165,-22.36616919999316,1735410811165.0
0.6899111799167408,-236.40082892854082,-718.5859352101236,-65.46582405591414,0.02337246602719394,28.70802998835704,7.647034746432949,-59.857405348877364,1735410811195.0
0.4356299711075786,704.1487027306019,1818.6994788597694,-1157.4008258008093,0.02837115301689896,44.15087782190066,7.189995461556295,11.756733909243614,1735410811195.0
