Acc_Betrag,Acc_X,Acc_Y,Acc_Z,Ori_Betrag,Ori_X,Ori_Y,Ori_Z,Timestamp
-0.041408901758701155,-1575.96184782106,918.7931162737066,2042.9800766879869,0.0393040551007092,-25.18772975633722,-12.309845328499541,-48.35073274414374,1735410324974.0
0.6259603528923416,1156.9632242294224,490.15798480955533,2140.1912681791964,0.05473361469230802,-53.37727411091288,-28.448018688520552,-22.073716322240998,1735410325004.0
0.8599569765862048,-1117.2430514049497,764.7509116835047,972.5757863285176,0.060874587462659585,-43.035885070986495,-30.558827127699512,-18.01641637800839,1735410325033.0
1.7930126267380024,-691.6571947973598,1485.1804959850992,-479.17728403715216,0.02223180781742541,-14.887358471185863,-23.64005503987533,56.11428492313415,1735410325063.0
0.9083289952883926,-82.98679325841107,1214.2372996882518,290.8605487149594,0.04037701084287412,2.752521346731342,-17.117820828714137,-31.37317105786019,1735410325093.0
1.2548031475069545,-903.8509867865,279.1135281621714,2242.523112139098,0.00427200998145345,-5.807047904398081,-35.659571757448674,31.607028386867345,1735410325123.0
1.8435244316146917,-676.7168648789705,681.0684711666067,-330.4179489811388,0.023013043949099532,3.1318936715826737,-14.959660141042665,-5.909059240394931,1735410325153.0
-0.051409078002575326,-781.6857563507417,1275.1856160392995,956.936496128166,0.026211875089734025,-5.171618425504622,-25.842993828817388,4.93579411646814,1735410325183.0
1.9520163114571396,679.4673408297625,1502.130580645985,1124.0480865400023,0.058310993591231874,3.1866127461860074,-38.790341407106254,10.343256414729549,1735410325214.0
0.1292684999145447,465.2524105739311,-477.76176146416446,-249.40033340128537,0.037596828452926785,-66.76326962027753,-21.525290239096627,-40.465147956971386,1735410325244.0
1.5737172836143292,1203.6410611001384,715.819196573854,260.555856669791,0.06040111522549781,19.915701663663715,-23.349654219427695,18.845656453477957,1735410325273.0
0.9464207426289157,-1919.2487602317947,-446.3398339727971,-143.18558959064018,0.04637308660893734,-21.52909407086997,-31.725026746327906,24.131316602391017,1735410325303.0
0.6430632545170323,-1151.6738942027446,-716.0672194180454,498.3090734652642,0.03571698643780324,-34.050673841142356,-17.453010317288793,59.50585092019084,1735410325333.0
-0.10777774209690771,-1228.2244098810647,2929.5337122591395,443.5501948920191,0.04173196931191901,-6.96653019428264,-4.959658049032399,16.93262212056491,1735410325363.0
1.8112181936231655,-674.2486541436118,1216.092731101136,-100.65882188396517,0.02516562531524604,-15.83918298799221,-5.803177861027375,17.804784335202342,1735410325393.0
0.4535564590962704,2379.767145403499,1449.0951122981483,-85.85443553584201,0.021007325195130024,1.9495216398379505,-23.09476286197451,-16.208084580150746,1735410325423.0
0.047838220292898415,-184.89340976909114,127.17545127514063,-429.7445801977436,0.021047221164214664,-57.57843669397383,-11.482890935402425,-69.07342448029564,1735410325454.0
1.414267139455394,-274.0313983676692,1336.3375834138415,776.0284309056528,0.038050673926043825,-75.92918102590599,-0.4982447659157776,-17.61131487297636,1735410325484.0
0.40898183738476707,221.91921830689006,-320.53204011083653,-392.1057097566265,0.04152213971941604,13.121792630362762,-19.80058714082866,-43.06728008295732,1735410325514.0
1.7689722125902052,-49.28887611389939,-189.91092304718654,-249.05006679629594,0.06661108464564752,13.56437009643602,-8.785851451361252,-7.51424360614903,1735410325544.0
1.7265218220327765,2020.7612089495137,970.7624425129101,-1032.5941630706263,0.05749188028748785,24.620026206075323,-20.306892663676443,72.20393914309159,1735410325573.0
1.2953532620343946,1645.4304193973724,245.89627595286322,-1734.3332529257527,0.04633106553821695,28.298889546851512,-29.777296197321505,93.58066931722782,1735410325603.0
1.8554328203865067,1208.1404511551468,-262.5953279295579,-1267.8993075898154,0.018658655414511963,-45.038788239560596,-20.989075734083887,11.29757688608255,1735410325632.0
1.0144672100657723,1405.8379872137634,1608.0757494380255,-1357.8739168793118,0.08239887052691194,-25.753539599516223,-4.078043697411443,41.1514299585029,1735410325664.0
1.1992125425851066,1337.2813849202219,-685.1271855419689,-842.3506182106806,0.05751775399329083,20.586480102051393,4.9355146980479345,-11.68454892509508,1735410325693.0
0.8513135569223201,-53.26249855880775,31.820208335038387,772.8641667373747,0.029541526026246386,56.2482868060964,17.066456267439932,-8.28331203199301,1735410325723.0
1.961396401901037,1384.3664653973933,1765.259335461808,671.3192073929449,0.009112335292961713,-11.354235596484163,-0.5648292783005768,-30.498099028996215,1735410325753.0
0.849878375485171,979.0437092956273,-1003.4467473872394,-566.9571411896321,0.055799130725842784,59.493891100337976,-26.93735471346764,-54.112395103332034,1735410325783.0
0.21781551994862458,1072.0553810782392,-224.0520255821399,-649.4875134634844,0.04979294498544782,50.207227239341144,-20.66410803643064,12.621442037711013,1735410325813.0
1.0724170356960716,1802.8426340496228,407.2669033413109,-623.5834436121628,0.048897059073725255,54.37431106239892,-10.294024420767691,22.549012791629977,1735410325843.0
1.205968283754684,1795.5695136206007,175.99890471621518,-541.6511483269517,0.028638734776969297,52.82459166230019,-14.662581242831168,-13.29788551640813,1735410325873.0
0.4914265837062468,772.6494471749775,241.37059581720143,-36.934095015269236,0.04629721076150964,46.93082925041064,-7.023264273662839,-0.09987561952178048,1735410325903.0
1.9165294876108159,1589.0207998214232,-1035.4757605350278,-804.3956363568811,0.049023406836968764,9.671172969430387,-8.225680362035499,-74.81696387383563,1735410325932.0
2.191563003122861,-1304.5671358457635,-2070.9963059663855,-150.0926610735861,0.04733341703603233,8.324065110949036,-7.8039746354334865,2.614616598990885,1735410325964.0
1.7081304979278877,-824.6327425887105,-1618.1995325642342,-599.2538759219597,0.057482879504931736,64.67673664232711,4.039802043885869,-34.72210551334388,1735410325994.0
1.0290134405125226,310.36501504449575,-1563.2416844714216,-929.2039211078163,0.07237680448259695,33.05125506951915,-1.8435584108129355,-46.206717371819934,1735410326054.0
1.695349804015034,1091.6143259848582,-1058.6719810674535,-719.1683315073599,0.035982508577706254,1.0441427284711366,-25.746906933422075,14.614206547355161,1735410326084.0
1.5030073508875923,1312.3015531573308,-1086.6341703651617,-218.36909201114503,0.04590330467217766,-4.605709018495112,-35.86287097866321,-28.708170262174036,1735410326113.0
0.36484325621360203,1283.0989186873644,-1293.0048784256994,505.9807493946561,0.07306126197077488,-33.25430105074356,-5.093994644574824,-0.39040225354341374,1735410326174.0
0.7805258472539767,-1748.7859192752917,-2217.028621434986,655.0899573138354,0.06694598404759303,-44.41890208314206,-7.060463207845195,36.2050102564898,1735410326203.0
0.33072572467211553,551.3043732433428,-973.4467702324287,-707.9598101422813,0.016285136505755797,-6.58403447531704,-17.205590729731846,9.376026924393518,1735410326234.0
0.6238526077351482,-979.1180306197458,-773.1272975592276,112.90216665132397,0.07204025702035734,-47.33856586888611,-4.4560412112273635,-48.226126884645566,1735410326264.0
1.5283489657865001,-2452.2407828685664,131.63585032534024,941.8380842685128,0.07924736395035603,7.582223080027902,-3.0240129687475514,-26.18473981862177,1735410326293.0
0.3755709737685975,269.49278149934423,-706.8781719041026,88.1974509627533,0.05121597289751224,32.89386240622065,1.2388969596993942,38.914353454769156,1735410326322.0
0.8910278364965787,-592.4394213341936,-809.3492603760619,-466.3808103359614,0.02141295170233288,45.24787650595708,-5.530091028159481,19.223430993607185,1735410326354.0
1.0441293554038988,-474.40691920462933,573.8381514200457,1297.6232838462352,0.04128400217191155,27.268923374256772,-9.532715630323928,17.181927008311636,1735410326384.0
1.1604503817303045,-539.1625640001391,-1616.9633408201257,-235.46506272750344,0.03442077792091368,54.76787604719394,8.851358086503776,-72.29947389988797,1735410326413.0
1.4915615978952625,-210.63326394308376,-1910.9903746322018,1067.4572769682532,0.03978861606898107,31.796988915308297,7.790513858716453,54.82778369638583,1735410326444.0
0.9596950740601071,-730.5367116644176,340.32914454994375,1917.0146081980918,0.05021148380739195,118.03261648200113,-1.8498032510149844,27.170743513307656,1735410326473.0
1.7987353892366211,-1010.8225752647879,787.123547259316,771.2133048183566,0.06585750546969996,41.56642568805472,3.368376394168859,-23.55020453453624,1735410326503.0
0.577486516920915,-1183.3851503503035,-229.8696963901741,211.45651574849427,0.026887713537240284,46.69626897229834,10.384725092489102,-51.40503322177986,1735410326532.0
0.6825588549238176,-424.9716472540699,-299.86853296410663,639.1127539427571,0.05283007664895969,44.48136202198364,-13.149504169133076,74.48162933212596,1735410326562.0
1.5518776915763615,-1417.884569702923,1058.819876092658,-410.38060505740236,0.06275360654340252,-55.99896246402214,-12.461893475026399,45.20303908813128,1735410326592.0
0.8733307149814187,-1238.7220035970647,1271.5996460617105,-11.311326309342547,0.05780082435897592,23.404583275213152,-26.41182810423286,-28.947685207372064,1735410326622.0
0.24060486255169644,-804.7930314424632,354.6085683915514,-694.1958334700392,0.048159039014168,0.5412188488959302,-16.801017989133424,-29.002359366391445,1735410326652.0
1.0357702988514281,-1324.591202485477,340.98919427667914,-403.24754208284213,0.024177881279075417,36.57769544526913,-11.957488652484692,5.862235450958067,1735410326682.0
0.8385279014619941,773.6373881239824,217.1346363495247,984.2175791673117,0.07432964714823717,36.377632327515116,-10.19335604121785,-29.59224556351768,1735410326712.0
0.8210146721034879,-2959.751457872129,-22.95307913233512,692.8910915658124,0.029034580106139213,68.81791853100052,-25.2030205070905,-24.021845793292087,1735410326774.0
-0.38299339824429735,-567.4261875118173,439.8926987081028,7.916359415885225,0.06107889790726554,63.82232958445927,-7.724868405228907,46.3274752139208,1735410326775.0
1.2214049104435258,-1290.4381227635452,1868.2651374929642,-20.7626584309845,0.06864162095113611,-57.93495372626335,-19.268922426465295,-24.614479436822787,1735410326804.0
0.5109866112599537,948.4010332345608,895.3904019117067,493.6917609628714,0.0804933539577401,-46.11165083263818,-4.496052288955571,6.8219769960470416,1735410326834.0
1.8607644075863725,-1775.7807848540551,327.1039659830201,213.4940733322755,0.036858140925041694,-71.89581128166435,-18.72475270586339,-1.1991977327316228,1735410326864.0
0.7943152540170656,170.3550402734977,-244.23843491258276,504.8501062459078,0.05854297605926396,32.1937180843884,1.533563970741593,-22.05757701746871,1735410326894.0
1.7010115783640332,-1166.6631583328005,1140.2925166276843,-1378.2222740788106,0.027444638319263154,36.23206238797958,-30.271433524151064,-28.999796944574356,1735410326923.0
1.631483576339325,1130.646204189603,2010.2757458061028,-234.4577884362077,0.05790216369035571,47.196615376120796,-20.058031096401287,-24.369299516277948,1735410326953.0
1.0808691659837935,-633.9899550563631,-385.53605178865587,-449.9690321883411,0.024175682888036922,44.90604722511974,-13.788933377966273,4.405140968894315,1735410326985.0
1.2902871939576495,-1900.8484408687993,1527.9845859594125,-124.78487023367222,0.05142064698821197,11.975755919224827,7.101099424653913,-47.4654568428866,1735410327014.0
1.6609098095282004,-668.3038120410301,-684.9707659064466,419.0993947103259,0.0722408208217409,10.23389468863455,-7.448968190999738,-95.86355557566168,1735410327014.0
0.21100029661158648,-1999.9597257541197,1405.570721910965,-1034.3164381252986,0.031112959310669045,-19.287021143893515,-7.568907103328721,-34.50559482602658,1735410327014.0
0.40110328390632055,668.1098134751726,1462.6018264409413,-12.984991417243123,0.056068980290434,-19.864868597979974,-5.337103844447286,-2.1849159088950145,1735410327014.0
