Acc_Betrag,Acc_X,Acc_Y,Acc_Z,Ori_Betrag,Ori_X,Ori_Y,Ori_Z,Timestamp
1.1064668015751637,-955.3801077090384,324.20716205981824,902.4395038561387,0.030180580779659655,-40.88682776616267,-0.4440751827399154,-40.81691496720861,1735410324974.0
0.5992891036653192,-1313.8124835527933,531.6522804980576,689.5335317259812,0.022770973109165277,-69.46972301213805,-14.812771324157788,-42.07800229770558,1735410325004.0
1.254836736909593,-494.16130974163394,315.6477606955472,1828.3218790212613,0.06180602490933466,20.255469808899406,-20.636443626875415,-88.1581891074346,1735410325033.0
0.6176556849026562,-1053.1647556898365,679.5070097231321,69.63009981735433,0.04536668942650077,-47.02093511752674,-27.841844899238293,33.307672616806364,1735410325063.0
0.41859019149781646,385.6632654865874,733.2186757118543,1107.1062659013437,0.030617708815125592,-41.318146486781984,-11.937025439392407,9.402345509721346,1735410325093.0
0.34188499873571565,-834.9116862812874,34.13948698666229,805.397267616592,0.024123516055005914,-38.81997693834347,-15.40414959849256,-19.178680786146373,1735410325123.0
1.6110671280439364,606.4040321818164,1695.058426551166,913.8215503640033,0.025505956360485114,-44.514747712879625,-32.48325338267562,26.264704547989687,1735410325153.0
1.275930021914099,-1525.7092296083015,211.45732923442188,895.3181653986753,0.056323811976916265,-43.40330855850661,-18.921623143523295,26.46917798510792,1735410325183.0
0.8697251296192618,42.595724156047766,1878.2179238507965,149.53058965420746,0.035332274464001376,-9.415846242489057,-6.715104386505049,-29.382118397279534,1735410325214.0
0.25720029692540003,-2.6211439621765535,810.8055387184522,-1695.7304745782196,0.05005913739241862,-32.19495886153586,-28.77509013922915,7.419458754603337,1735410325244.0
0.23363062537066936,-1746.3846272098792,1715.6595290366638,101.85568792242088,0.07323174309788129,-67.72081294716656,-28.094041769294517,57.476166261947284,1735410325273.0
0.12038648304949795,-663.214042237823,802.7827927543303,-474.6175338471812,0.024281240398218842,-27.60097694688729,-16.42302473466671,42.57289654600642,1735410325303.0
-0.06584634227605368,-118.95993808764973,814.502134896004,-118.25011854671823,0.030105701985524144,-0.5611870662739022,-17.46724017071253,-9.863546261929795,1735410325333.0
-0.13641881403352263,314.7687288498313,1070.7512742257306,511.08734354111556,0.03578565477451395,-31.436448731715174,-19.292632287156493,-41.73762006072698,1735410325363.0
0.6677970112459342,743.518715638791,-1159.3646404180447,908.2714355185001,0.020599818691690995,14.016857287032565,-12.019137180517879,-42.663710226931954,1735410325393.0
1.156234830065467,-508.4040118954505,1115.0716443182555,-834.2889114156984,0.02800413725913146,-33.25852572745185,-18.32681939871421,-4.126046935617271,1735410325423.0
0.11412718900068852,-878.0573587910901,1358.9305004668868,-149.45766765630083,0.036761903545929356,-21.329031664395487,-1.1887047410604565,38.59446828510441,1735410325454.0
0.38115088679140047,-186.8321127100258,-777.9455201348142,334.0878184713032,0.06211390844358505,-54.638270581130016,-2.930125629471066,-50.75868160999171,1735410325484.0
1.0840977881550191,764.8483996250476,1251.7208480659942,-70.08890284655166,0.060732458672213475,29.56491801946553,4.1464122592648085,-8.886437010389969,1735410325514.0
0.6579867110428522,1229.903721389167,-298.66772380412203,-1015.1133464401188,0.04789817348430951,41.655516086505514,-1.7182891367489344,-54.980169615697264,1735410325544.0
1.0276505073222815,553.5358718101459,1020.1404876195883,-1973.4804398233225,0.04535764208783778,-2.7338077712657025,-19.62808326880862,7.32079255036242,1735410325573.0
1.9005203512955038,-739.9606182823925,1205.6720203062657,-1417.0204058871705,0.043201670336239215,-23.894769277515397,-21.31745758288329,32.62037519694411,1735410325603.0
1.5458442997268425,1479.0026393145272,1498.8373043884026,-1882.6707001110344,0.0030802484437556024,7.72960756333594,-8.08849049404346,-28.73063794359225,1735410325632.0
1.5084944765768329,87.11343807165765,455.839396688036,-735.3714065628437,0.06917791548650529,-7.833325854317131,-4.033532510857464,45.85484374956244,1735410325664.0
0.5900216092466073,1171.2469107012998,-534.4712885354328,-246.34198613130036,0.05969640044192709,65.71608128874601,6.0941100253284946,67.7720769284901,1735410325693.0
1.302187363918291,-569.5416830495902,-432.7193995573663,-453.74862390553034,0.040765375228768864,37.29639355206965,0.9692136886530376,-49.81383333921092,1735410325723.0
0.7092094617976255,179.25916836977865,-1652.0775716431758,-678.1972055566439,0.017323004462377122,20.572649139021646,-3.9181376179461926,50.407528341171904,1735410325753.0
1.2238666009774724,487.4606106722342,445.9024646316335,844.5727094572758,0.06632584626286887,82.04042262052941,-5.7258976868463725,-14.178700093455468,1735410325783.0
1.185473869144138,1526.1905841906473,385.8788930948943,-229.54356689313045,0.07950678596528997,49.300459766258015,-6.608439316842271,34.19830254593931,1735410325813.0
1.0645923623769038,-1174.2466445963612,-979.391381478843,-100.88526702098096,0.02443596061609524,30.48568036073302,0.03250699339534613,19.18498718178678,1735410325843.0
-0.15611004162361386,2407.1911268245667,462.5026896891401,-1202.05336034151,0.026340429223568287,64.1917428576785,-15.054104705066282,10.960729876817435,1735410325873.0
0.02141438342138302,933.4388013289888,133.8174717961565,733.7288815246548,0.028265627401357865,44.953148823962366,-6.519903717433623,5.683901444877355,1735410325903.0
0.937274965688537,1095.3094555373414,-396.3726706366678,-877.6434033058102,0.05309429265606427,61.66831104479382,-8.528504396281146,-35.33387747158316,1735410325932.0
1.6060346850025022,-2045.8162492397555,387.16165989486854,-21.124027129865794,0.04015130703446681,17.938669870884194,-9.170264356367216,-50.53944307672394,1735410325964.0
2.309357076489343,-1597.3307029550708,-1467.0014926632127,255.08860111655957,0.028138918874083596,-16.93176134367431,-23.08240341958201,-4.3638928315195,1735410325994.0
1.612520843655794,1100.386348469178,-1386.5566099293048,-605.2466880635435,0.05759182617833266,19.37072584599507,-25.85851903536449,-46.97104132860808,1735410326054.0
0.5589209199892339,744.9184575001191,-619.762765602826,-1108.9695444644776,0.03143993236429807,-3.04556227379317,-18.2610118788007,8.134661174785771,1735410326084.0
2.2131816258886596,731.4984989857223,930.7683317647286,13.353208877285624,0.03494032031068496,-43.019765033983965,-12.217185750255535,10.707957371179791,1735410326113.0
0.7047833153373354,-867.3610107967932,612.8491347183722,836.4739271664901,0.05239479532147071,-73.90461867400458,-3.7374013281944425,-10.912839103641797,1735410326174.0
1.0538722832697651,-90.30382386947653,-1124.3074323651845,-380.8326080931978,0.03781169938453822,-12.720610294018812,-30.823122783290493,12.573592823448674,1735410326203.0
1.6299547814370074,678.027182894918,-510.4841819365065,700.4507040241912,0.03065614129412334,-46.85172002679241,-28.201341682585234,-13.270671129894598,1735410326234.0
1.4071324323927725,-1359.5197222724519,-1595.2426978872518,194.23403845339112,0.05322156806992725,-70.2728960191242,-0.21088320506906832,-9.794487744639799,1735410326264.0
0.8261717721891482,-1444.6048376407348,-281.66291253409815,-238.20868981575484,0.07410884165420398,8.685895731754883,-11.616400941926958,-19.300405701717168,1735410326293.0
0.8004291454047548,-155.64739690757358,-2280.796281475943,967.9622867259753,0.060802656457856395,23.72188432275442,5.289073321959956,40.470865398251846,1735410326322.0
1.4054416386641655,-68.52042149394936,-48.756154655951605,-358.40050241760935,0.06030279622922548,32.500434277554625,10.043485602198666,-40.453460528163944,1735410326354.0
1.456826839672778,-385.9182156498185,-134.8238322223791,251.99212412791235,0.021169224530558896,29.33590181993474,-15.327745343217622,9.035166792486024,1735410326384.0
1.072684344368453,415.2136157174716,-1630.2998179655642,372.2313057182267,0.05648459386542175,41.32040394061963,-2.5179815197719586,-26.56641760126754,1735410326413.0
1.7440771787853504,102.23460213270903,-636.1617014472884,-539.9032274656158,0.054947275633611584,48.93457158117951,-15.814972972911155,67.77250078634904,1735410326444.0
0.8573874310757001,-2743.031462645726,-1468.620753825308,1532.1941288868788,0.07160909397404583,90.43564730348561,-9.594140186322731,37.26504124027813,1735410326473.0
1.5512670993504307,-541.8164778679509,-505.5372736966567,684.3766806400015,0.06262161800003778,31.924638158920747,-21.045180079327846,28.840072586440726,1735410326503.0
1.338602553206445,-1351.6714075304162,-584.4231995482888,198.42080381058855,0.05530728460866795,33.39733680985954,-2.4058084808804105,-77.51455207641371,1735410326532.0
0.9663554002600243,-2436.846005980473,1131.1937465617593,1287.019777761278,0.06109010280501194,30.956844429210534,-4.682519939885529,-19.689027722956567,1735410326562.0
1.6081012920920483,-1242.2675082005028,755.5586774474782,-219.27573913865075,0.05827427406204155,-71.45913621782425,-2.762575850998747,23.784876289511477,1735410326592.0
1.6193703526623227,-2485.389805307279,652.4427041186743,-1274.1604449352067,0.01794497355773872,35.50763424090933,-13.580688781209913,11.329962221316954,1735410326622.0
1.684989862509147,-869.7740397356478,-1226.3385798397453,759.6562506497994,0.05152216988564423,33.84926725491015,-4.371757154219193,-30.323556253637495,1735410326652.0
2.252249282105849,-2940.8033445764327,690.5088245677451,-958.1654679685959,0.051702120050643716,33.93914804990141,-1.6755888985000764,-3.933272705870529,1735410326682.0
1.341867457352989,-431.0502765028501,1491.8822594854057,-48.989622248769365,0.05847620403718102,82.0979668964984,-19.833610897687613,-39.63138028230651,1735410326712.0
0.9660222307777413,-235.68275219161296,176.69261115022147,67.24528462948152,0.046151422401216585,61.44638471440918,-4.79747424440456,20.732062520732413,1735410326774.0
1.5938248854022783,-347.87628042713004,11.280788417407734,26.654964129222265,0.03657673097750601,96.1325715715393,-16.595290186720298,79.33214500485403,1735410326775.0
0.5324921716399049,-1809.629952399896,401.22904480603904,-393.91459319677347,0.033476599205947824,-50.03592071915279,-37.06611418969013,60.87814617710147,1735410326804.0
1.2259494853942499,-898.4123633167612,871.967225119058,110.46115907391794,0.03932125201742029,-18.39320632681958,0.36320601432947086,-25.703245425602695,1735410326834.0
1.9811838502995092,-2099.280328298093,-197.88426065850717,262.84428743650733,0.04986365754725292,-89.2758666788261,-15.7140477671342,17.226388872458774,1735410326864.0
0.9682613169244733,-1484.5205285654824,-253.12656954690988,828.1026908972442,0.05595398729815791,53.99546989327008,-1.721111896234861,-27.8016817928576,1735410326894.0
0.8038747812073147,437.66633825098734,826.2488104631466,-792.0632099673321,0.03980395871769101,39.07024266508117,-10.864199563635804,-16.699861204564343,1735410326923.0
1.1639285863143407,985.8840524083635,202.96688906749955,-701.2755906843942,0.04009954355210041,38.57313403837529,-2.279019800942719,-25.246872470833278,1735410326953.0
0.9129396115622197,-1123.6206917299253,567.4888167663697,874.4289328845375,0.050920777075849424,31.534891755326058,2.7686090200483155,-29.08392610687852,1735410326985.0
1.679362259718502,-815.1110642736553,278.1618694650617,-610.6410657996703,0.05989330569695898,30.639068497287305,-13.788604917747955,-29.83747818439539,1735410327014.0
1.888591416526526,-1658.3824848346412,950.8867286003806,-611.6740545827978,0.046631271690575155,3.5472390656563455,1.8995940241053018,-72.18961055406531,1735410327014.0
0.6842961102850035,-2866.813763886841,1185.7917698319693,57.384108075230756,0.05678915395559784,67.22108316281385,4.8276495120501135,-25.648734481305087,1735410327014.0
2.02707092121513,-532.5308115562902,2322.511056616321,-483.3695945324795,0.06941844201588693,9.193730913177784,14.498868348511627,24.910587931031536,1735410327014.0
