Acc_Betrag,Acc_X,Acc_Y,Acc_Z,Ori_Betrag,Ori_X,Ori_Y,Ori_Z,Timestamp
2.137693773090461,1746.616859753028,-23.072177626774646,351.29091732250413,0.05248329808727227,21.562454178103504,6.381388835278121,-0.7243372832846902,1735410900566.0
2.1721762768303376,1601.004908254306,71.16245433732863,-940.4884224626333,0.0053912275671708955,-34.52050821578885,17.607844201053027,14.301181842035316,1735410900597.0
2.1198031164053805,-2314.212227890502,2152.0023067313386,455.3714616006245,0.0498208492269005,3.9543481738417077,6.718696668494572,33.46691073307942,1735410900627.0
3.142939476810751,-505.7105410760415,2654.9791263119178,-1112.88062059829,0.05987431908658772,27.03916740550063,21.398941284427657,43.948729774542215,1735410900657.0
1.6438318800096667,-388.1073273605965,206.09418395135958,-354.3546845057032,0.02436392164120291,-4.328860575771955,1.0780713807782973,-73.76403763185597,1735410900687.0
0.8809446464850873,-1816.3292534227294,1424.0109956278184,-594.125593178758,0.04470784949773506,-2.7646237942648995,23.23753953508529,49.116398043606786,1735410900715.0
0.2008394319848863,-642.8232691250369,2045.352193812772,-1125.2897850578736,0.024587644057107595,-69.36073802195425,-9.356960844697282,4.403843124830319,1735410900747.0
1.9749245768334314,865.9106617646707,524.8822504804066,54.42736735906519,0.020646613829986157,-84.66931423763606,-7.354545961644491,-30.121966308844605,1735410900778.0
1.2269472048737589,-458.4859696949027,800.4176892609711,1650.7689506237803,0.042304664983623744,6.238623131401749,16.834208226104288,-2.0277835599338374,1735410900807.0
1.7860035419031326,-601.5458349137291,1795.4557810378399,325.179022071404,0.03159177002803027,2.4553197808975753,20.689635760910072,-66.01018772031453,1735410900837.0
1.1780067577003042,-1340.1743532075452,1752.0746819115052,987.0456240134772,0.014393309082624744,22.312526173524383,20.21662736194461,36.73246164838253,1735410900867.0
1.740775752316191,-582.6880102757528,923.6482952172635,663.2777517797313,0.02969951190220551,-26.112079605092802,4.250350446308243,-107.03002487387312,1735410900896.0
1.752008539819972,65.35139214556595,2725.4712459249417,-471.41040961925796,0.0638375294917294,-11.394810616728114,10.319936425926336,41.45513450645858,1735410900926.0
1.2795956393496073,150.24780255310264,523.6741495518152,-528.3951863693821,0.039848958918934245,-26.522886181794835,23.190490671873498,2.0850174508144583,1735410900956.0
2.646801478410381,480.4911750343415,1442.024941042038,656.5801251745194,0.01707799963641632,-51.8222385352639,8.76959376459932,67.71326781569171,1735410900986.0
0.21248119595272574,-530.1706823255416,225.47075263236832,-280.3808689883184,0.030172499682970925,-66.21132989152419,10.396137473686544,4.027016847135982,1735410901017.0
0.07267770622246761,-207.98028350923073,1196.2836517257974,70.67028069496718,0.05586435041774756,-43.09809627383382,20.54477165494351,38.231691540669864,1735410901047.0
0.27468560281970433,333.5425091883535,551.2530826186858,-835.0388061424346,0.03244512777897417,-22.481158424709914,3.6564373109159582,-52.6349690184276,1735410901077.0
3.515719966329357,-547.0504587668835,1104.9229361720977,-1771.9808175183302,0.050015172096850885,-27.41141797378425,21.84482529605994,9.23454600632473,1735410901107.0
2.7966156576136867,-1840.0068312111048,1597.585721678672,646.7774302767777,0.023403123878069573,-37.04828732263162,12.402436817848608,-35.41490772726749,1735410901137.0
2.9643340676747685,605.5455620845448,2183.380657683185,-1488.3915696752797,0.03180626038633056,39.96329159676018,16.75352917888396,12.12065313200716,1735410901167.0
1.9432231601651786,-1182.618212503962,730.2203482892244,-1231.407151104908,0.02390065553671366,-53.16845835477233,13.457317211732747,-22.956348804941378,1735410901196.0
0.7652546637715552,-703.1809968215601,-337.0562922957665,24.85318346194947,0.0015379453489964383,-20.034629085229717,22.179488315532076,-41.16474623795692,1735410901225.0
-0.6145600351279122,-1104.4725122350794,-632.1473862702121,-2468.7383548200764,0.029192477444887434,-11.663010267479672,10.862042665626337,-48.530060869554546,1735410901257.0
1.1582965906530749,-400.993683425865,-1022.4210681819202,-20.64063224029195,0.04255276764202277,8.83583451701145,0.4702994673027874,-1.8129068837647964,1735410901286.0
1.8829495994600005,-3135.1577716734864,2810.6740014083775,-523.9548070413055,0.03452305843101079,-16.76798318368229,-6.1140273126163684,24.63513181783427,1735410901317.0
2.140551913212689,-1832.9149420312708,1494.9958879119772,-1044.2805990322745,0.040855137298305956,25.98480270014626,11.692659065516171,-48.778488975276574,1735410901347.0
2.617459878784198,-2558.453345756763,2399.233450083739,-478.96232897843004,0.04355105171929645,-15.558975975271462,7.0790390778172725,-43.06780596322366,1735410901377.0
-0.5122433093816988,-1311.3618024882612,-1017.5613608629833,144.44108005937017,0.03406433987777405,-42.98199334344869,4.031567057166148,-8.310650714025172,1735410901437.0
-0.6962025690535792,-366.5968626740942,428.59894602979284,-107.91262477090407,0.03187831112269571,45.79458116595798,-7.169214907160814,-54.31743958194784,1735410901467.0
1.3059964151731784,-536.0377114357507,-498.8760555244414,-98.43563397099427,0.0538856939372923,-6.104142577569872,-5.37539714556276,-42.04941311235453,1735410901497.0
2.1238957820176503,-2287.4811164613066,1723.647023863083,-1075.5792480511702,0.041040364879675786,-34.36309940722257,-5.4592675083045625,-21.495444791251025,1735410901526.0
2.589548266589616,-2473.2222799515685,2055.116338975504,-1133.570474534445,0.0329299658910408,-29.730123211861574,-21.91326840051643,17.849946625922932,1735410901557.0
-0.14820720324388548,-463.4913332434519,471.1289739950463,-434.47562550126395,0.036036750782747824,-1.438822460963948,-7.0868315797318555,-41.62174148892667,1735410901617.0
-0.0655541659436476,-42.39467074403188,277.20698535297316,422.97003659876077,0.04995687400992177,-12.726939087246382,17.204991606087667,-48.797427543985954,1735410901647.0
0.789108136819985,-224.8500916784195,458.905758243221,375.5180980798102,0.025982857696208263,-13.927392553063004,-5.614956222999632,-26.13129338332289,1735410901676.0
2.7135702568747373,-1137.9841677169031,3268.6978217519963,-921.3736445890888,0.01906350884088402,-34.85601734197401,-9.89936998068292,-52.21950019988813,1735410901708.0
1.5450574975742872,-344.9324828869951,1797.6629723550882,644.0160781641275,0.033205329892653165,-20.70589352122806,-15.486973404657608,-45.871630660083504,1735410901736.0
1.0977294129768684,-260.14129005690216,-85.35255160103043,246.80810405438902,0.05151856991532881,-46.31508586829571,-7.474788370431278,-56.795023334331276,1735410901797.0
0.4355645525550016,-664.3404606661061,725.8238754649997,-483.8606451949164,0.05062343959088303,-72.93158554634292,-11.803500040174692,-21.291484168417874,1735410901827.0
1.2172801918441307,1755.9624411192688,-1195.687796535126,-544.6850320583368,0.05075935554272383,-43.98754815685772,12.925129173537284,-41.488310118547524,1735410901856.0
0.34109145158761034,-651.934839352157,1253.8490995424227,-5.997469170854089,0.03590737218161366,-68.8171796020809,15.737351279385809,-51.5809444859395,1735410901886.0
2.775452061058627,-835.688876624792,373.80406367764135,-1488.422364228239,0.04326011293842351,-52.28796724610682,8.824821234164473,-35.47059869451526,1735410901917.0
3.3146647340136903,-2180.9052080431084,1813.0985902149935,-2099.7703879972933,0.0253605555412525,-23.54819759501016,0.5106045507128529,-61.826292010602955,1735410901946.0
2.7927184725226564,-1685.6385970484382,1168.9315454511825,-717.2888176794552,0.053439006588394074,-45.60998693392366,0.6524983968446008,-2.1243736007131133,1735410901976.0
1.0126049338042538,-261.3682132855298,915.3321731655126,-1183.6757890633535,0.03396506498833675,2.5726353506936306,20.386701407329877,-24.65407490473128,1735410902036.0
1.4884218280498533,722.7234124238965,-238.9284821579596,-15.04167394723487,0.0445945190416598,-29.22257918084218,-21.39963214799681,-63.12246955848493,1735410902065.0
1.670968004749245,-722.2769706312915,2141.3238759402134,257.35990527234065,0.021460596724487267,-41.43497939958434,-18.723242077264096,-12.452726940475074,1735410902095.0
1.6997107282711215,50.6904780980982,2807.5656121104703,1498.7689670975324,0.07387103445604436,-35.54409059852609,-5.624392196818745,-45.62620153458221,1735410902125.0
2.4396235096527974,1244.9746502025919,779.4491498576454,485.8987461386067,0.05469390299058565,55.83233249367636,-11.371999009922167,55.06527632504648,1735410902155.0
1.5355749809827424,357.21357062978564,862.1567781025985,814.6630475811866,0.04111437924029561,-3.927516241552123,-25.078249598160692,32.790139376115356,1735410902187.0
0.7778819134725768,132.59422158702205,270.22336706690027,-370.2471353228184,0.06027976555955136,1.136819874422617,-31.33171031044131,55.599735899655855,1735410902217.0
1.4121670084325675,-758.1225712444386,-553.5261088182874,220.67660346999827,0.037882908623715995,2.163752618586102,-22.01114799489772,28.213333414609938,1735410902246.0
0.7145224612818586,-1533.2055137230748,451.52718529163116,537.8348731023959,0.02711037159211905,26.919336811130627,-14.597752109713456,-10.78170766493808,1735410902275.0
0.44874088352570995,-1351.5496286288683,-335.0414163195617,-912.1137854374599,0.02396129421345598,60.570087687324644,-21.024735411625436,-48.8095486174599,1735410902307.0
1.1268368222908427,-1229.5981991557958,560.5900053684413,567.3897964971468,0.019274558340328065,52.801497337133966,1.6141210195681595,-32.16855233485475,1735410902336.0
1.6346743586956718,302.65645710266716,1384.9894401082843,-976.3877344455461,0.026165149933137066,52.85615203019249,-3.287999645306758,-5.1786575782325315,1735410902366.0
0.423634068696083,-692.3389686054311,-411.6179268974033,-819.7659623949966,0.010064251368593694,77.7901401717439,7.5464851341692825,15.466107295269092,1735410902397.0
1.1379521841812605,-1474.7913583386157,1483.8814752590251,-1518.5377459953684,0.051556506535158544,31.037210360686547,-17.673819183776153,-17.15421901846478,1735410902426.0
0.4407195362962061,-2424.9519599336354,440.68340966838593,-805.2677244282823,0.03740378971754513,52.14631470637815,5.775282837281587,-31.184469749021535,1735410902456.0
1.8042313905252312,-214.7199672946108,1218.0500427629304,-327.706246244805,0.04969165200605768,-12.914190852541878,-3.676295751430453,-33.718706985802676,1735410902487.0
0.6040146166521093,2325.740748173609,421.11221705006216,-21.39671685628508,0.01324033988597953,16.173199026130654,-7.444795339803454,-19.97482068787428,1735410902516.0
0.6418884932265134,480.53429977163535,-1668.3959294338188,366.95878868357363,0.04710058468162359,62.00735463611062,2.400979837817768,16.085183177379502,1735410902547.0
1.828375438872281,1154.5451311175138,571.3725613120899,267.8435256370311,0.03834912909048961,33.60110437553124,12.698806295552247,-8.37060963419941,1735410902577.0
0.942617091107667,357.64072437664737,1.7290167406208212,-344.1677013826571,0.022252707381134204,-2.868836103944279,23.218519586969457,18.299716342277357,1735410902607.0
0.6197898985070768,304.0085228860746,627.9975129779082,265.54927740559907,0.04513086437029159,44.59975246115158,9.9051584731327,-4.767207803186704,1735410902607.0
0.04698232046194428,1475.8163339661205,-244.457187830247,1438.6070168749438,0.04176857433421788,46.2104066284702,-20.236086569095725,-4.141563552073311,1735410902607.0
0.8560591934692118,597.2519755086454,-1208.8028140867812,691.2557939750758,0.0496442030427242,-11.30715122951732,13.670499638646119,-6.592118357643578,1735410902607.0
0.9029873309633446,112.2914010871192,1211.9921721277158,984.2356488689127,0.03281010099745892,51.7038625758831,-2.0966552941785874,18.565431490130702,1735410902607.0
1.4847240846267116,760.5816197081273,1467.9960448557313,1388.784966485411,0.019120945358956754,41.38997961478603,8.828018194784288,51.00561316247307,1735410902607.0
