Acc_Betrag,Acc_X,Acc_Y,Acc_Z,Ori_Betrag,Ori_X,Ori_Y,Ori_Z,Timestamp
0.0068603888055416284,-284.6076812337795,1904.7033772047423,905.5734837911049,0.027803929561330796,20.94659478793708,3.4499107171655687,-56.95178116811993,1735410533358.0
0.20653137992331605,-250.5435304401317,1301.6748267895796,-327.83594739710463,0.028242905715612828,-51.8792768337293,4.42653658918462,32.53256366354327,1735410533388.0
1.3020629711484233,-556.7018579598596,840.4964024335449,-1216.6427805570108,0.010155055407462189,22.980585771513866,-21.17231432031241,62.08551165464578,1735410533418.0
0.4928958409415297,1207.70049131963,395.39617379817304,-729.1341685065265,0.09085000853173175,-11.884208442677267,-17.82080800931822,22.58621658024613,1735410533448.0
1.047397305845139,1268.3115433235248,-568.3288244944713,567.8548247063211,0.021602262130164446,-10.442275943970523,2.7579546307580154,-44.09294985555849,1735410533478.0
1.4191690214264598,1892.7671468906697,50.90601371563329,628.7464136707729,0.04766697633168097,-12.99311061113907,-10.750831280739362,15.986868670896644,1735410533507.0
0.9414339320945109,-346.6047117230378,149.20770847006713,1554.2977898462082,0.04144615330075388,5.986541850365258,-14.511758347107872,-19.53883463024153,1735410533539.0
1.0638218955245242,873.8208049389037,-839.0554378385951,844.4555938435818,0.014655005344659276,21.400163296689314,-17.154358020922736,-35.101735413282334,1735410533568.0
1.8649503180492117,1311.2991305816852,-2293.290218327509,1927.6939817726047,0.02672423546166555,-0.14340665128896646,-33.41440826245164,-24.38941155502836,1735410533599.0
0.9656752692266225,1336.4359984630091,1115.9515704195323,-346.3137104963238,0.062424780320037926,-22.472362087656172,-4.622935149202275,-9.119236800319348,1735410533628.0
0.8991335174796591,-1014.1158251902548,1090.7099711344836,-110.57046571606111,0.030395876440557263,-8.277047645814779,-7.104163241844599,-23.205444538314925,1735410533658.0
1.0773707914600383,-1061.4286326114589,935.6916069807208,222.21972529686843,0.041145382417600025,8.148825698455713,-12.6541678389904,48.58915742067055,1735410533688.0
2.8457946092457305,1962.2941811641479,-2084.092171738277,-552.4491120676369,0.052089476260667726,-9.016704934220293,-24.730159992697416,21.996831458676468,1735410533718.0
1.679819754234731,591.077747204994,-1998.3908976468629,709.2695284387395,0.05040905297246634,6.494108870974421,-4.808705514034781,-31.977436391142206,1735410533749.0
1.7596374608622856,212.62147899477623,-489.6753353733245,953.578104101852,0.006968720379777041,-71.73419541967556,-13.267694131504722,17.51610593153385,1735410533778.0
1.9841681499411206,716.7643418539052,-1109.8947970579864,2013.642800094889,-0.022697643768083704,-56.638867648242915,-10.69832388052736,88.11239279323566,1735410533808.0
0.8070775459994803,382.9772653541628,-492.7967958298242,-418.28198905858926,0.007599748036635841,31.647923241407607,2.186483621367117,9.662862548662273,1735410533838.0
0.5219117477375237,698.4569157752766,-550.7155475514418,-129.86081411587156,0.04484454513766536,6.471680046200598,-17.60515017250019,-43.5305223616662,1735410533868.0
0.8335337919763371,217.16120250429987,568.109161327815,1113.6095770016038,0.050792866737887486,6.845517148840155,-27.561512148909085,15.051389605747037,1735410533898.0
1.2788231267104784,238.32254208044407,-27.294915512762543,-268.55537509640465,0.006235938729369391,-2.8150406839484967,-5.685394482716049,12.75734105785121,1735410533927.0
1.2540400437697083,168.0145945051076,1120.8767013217644,1390.9342545731497,0.012375749872865497,-1.433836979054833,3.134392165112377,27.088102021268693,1735410533957.0
1.3096528445397309,78.04201834364301,-693.7353927702192,250.9388263900718,0.012810728888100597,27.620336324804754,-12.176071568573857,-17.142868729142894,1735410533987.0
1.5534399688287805,337.81272142613943,-689.4691637498522,-41.25072821894048,0.04523938722983357,-15.532701073791305,-18.65051455108043,7.636608319831872,1735410534017.0
1.047201649086469,-394.0875460647335,-1468.457731214351,846.9056981584072,-0.012437065453635742,2.5397107278949003,-15.923180864558905,23.414362909707275,1735410534048.0
0.7361246009086317,1067.1020367349658,-201.18391450559557,1520.387383226921,0.015423744035964406,-25.17706059231269,-7.0306731900378745,-5.580424763415287,1735410534077.0
0.7692421729244989,1138.9301507119862,-133.46663762483706,799.2061772343852,0.047741868269009946,23.38661144887138,-9.142152109378408,-13.104293284414226,1735410534107.0
1.712413443926942,679.0049457829515,392.40566548366917,59.49455182301608,0.009782007576570197,40.76773787578327,-14.107829421059645,26.25559523425984,1735410534138.0
1.0282394234012473,2139.634652654758,-950.4919925978932,-882.0951813368256,0.0006583744126446908,-22.4248483245426,12.990179644299708,10.476039177115837,1735410534168.0
1.1982901750443002,446.3383505057277,-291.21921191457,-93.08753680616655,0.010768274227334592,-13.210680595298042,4.674332121996404,-15.265980968176768,1735410534198.0
1.212637524979629,754.1379777754667,117.90309438618996,767.6164769967993,0.006332248920338027,-43.43036501591477,-1.5207953267847727,4.347070111646055,1735410534228.0
1.4899815172746251,-528.1879476190932,384.7720532071518,-1584.829227018505,0.024685183459489647,8.91986491031781,-13.26899811902091,-62.45585626737652,1735410534258.0
0.8280386009698895,898.6527249061207,665.249254748433,15.517930533855235,0.048279228207440024,-3.854774168840498,-10.623750105848316,-0.9485696662226388,1735410534287.0
1.84197334386305,215.96752286395372,-1599.419605134034,-271.2149470410234,0.05356138438520445,-20.649587486598932,5.547657826850806,89.77241496693253,1735410534319.0
1.2601143346984767,135.91743766325857,-2212.2645870104516,1523.4537075282628,0.023025111945708013,-6.874456457922535,10.517903694112015,-78.37562986913528,1735410534349.0
1.4988785014158625,684.2418011590055,-1209.5862161927962,610.9080372765811,0.0018286055805986356,-62.127928013629,2.670561736288068,-28.689927621698338,1735410534379.0
2.529040264312778,207.65358878525817,-1479.0387225623906,2038.7806041275837,0.02717054197491124,20.87956500957194,-10.983039916033785,-5.261027081939439,1735410534408.0
1.7168216903791769,1539.8671493538034,340.95367359958993,-215.41878983970366,0.007604603316625856,-35.165740863891685,-13.162409065229944,-19.011465666907792,1735410534438.0
0.6493746962225562,-289.08344882592803,441.08182502112777,1540.20709482695,0.04920029751543319,-72.58341997323333,4.444198585523433,-5.963274867783685,1735410534468.0
1.0419015401445249,-631.0012882887311,-124.2894101061886,1590.208781535969,0.06577642895690902,9.910100161904564,0.3629666014638149,30.783904437639716,1735410534498.0
1.226284027903921,1236.4434623893244,-315.0283791838368,470.1312888367003,0.04350369861316315,8.2709979032796,-6.9811500098714445,49.285761326242856,1735410534527.0
1.2126399085960162,-265.7167839781514,-1377.9405517862094,209.88476827600869,0.030451717876705125,2.8806460987250766,9.134544558868665,36.678617521127684,1735410534558.0
0.7879320025500122,878.8387862387387,185.12843245864428,-1664.318596794564,0.023314253481152875,12.212160726407513,-5.3923846638378485,-0.5421531501787342,1735410534588.0
2.016063898025603,-167.15432637632802,-2116.513422379499,129.7300390366139,0.019845692221147456,9.205186678816483,5.278286930808897,39.01681331066863,1735410534619.0
2.44308343589959,-1955.3874897282392,-1155.505960276639,2294.5247013326116,0.025383342242464624,8.173975204760612,-1.8671812847811946,-72.39886308856337,1735410534649.0
1.864272072566544,-2085.55465901144,-61.50106532996983,1338.0673346250508,0.03761773029418759,8.871504426264423,-4.788099996090131,21.533648563874273,1735410534678.0
2.6303478524528696,-1691.3608395253166,-1118.8080156344627,1528.3724247702485,0.012112564311398174,-27.689742233009046,-11.97046814909869,61.49803911577391,1735410534708.0
1.649602470644342,752.2867195123067,-731.2455056595554,423.0168164880918,0.022786247544205843,-68.97131733667798,1.9020565344540028,-53.17597741686725,1735410534738.0
1.4802359938286633,222.72571411842148,1139.015829518909,1404.878648382308,0.04941696823515274,3.3918379681503046,-18.42323472596484,-18.041185017252957,1735410534768.0
2.2649423317319974,621.6420468658307,1460.951561895019,592.1949933642117,0.03698586154357726,-6.937664089877255,-8.004693774601009,101.25801323183447,1735410534798.0
1.3224306719461858,142.6599780993655,-1639.357138724862,127.12378218195062,0.04088023609254702,-56.378250338597695,-2.3192682643706055,67.59882655838823,1735410534828.0
1.1454675014153657,1065.1287218864827,582.4508833051926,229.89345080059502,0.05116233731247244,-2.9757030987224447,-0.33262447964144193,-11.878848203108888,1735410534858.0
0.8598719733307171,130.60793135565802,105.48686530637147,784.5024858988082,0.03689787846435853,29.87706395799263,-1.2053338717438744,-45.85074975356589,1735410534888.0
0.6092130724339149,-116.45626036645123,-466.26309032972205,845.5353884983183,0.006641981743272981,5.449356231149805,-14.004220203583035,-7.63402912404305,1735410534918.0
1.3091719356503608,-1060.1414040334284,-1034.2341914665087,501.9853214270094,-0.004717228533986203,20.720940875481944,-4.06892518805699,6.441318262120556,1735410534948.0
2.3251540707212737,-595.8795140455311,-1041.8035767485326,105.95085109240785,0.0299146784359337,4.784812694450407,-16.117373474523518,13.785992507049798,1735410534978.0
1.6645713954389336,-418.7707071144907,-296.26371448720124,1062.6304683464145,0.03452749235451785,6.975750472063752,-3.9149521334251753,-37.01714981584078,1735410535008.0
0.41732527989374724,745.1081013686401,-216.80916404948545,988.9843996138031,0.04013195891475714,11.199348631134422,5.765807084272149,45.01485201211635,1735410535037.0
0.9150456834386056,763.6849104652028,-931.0266433265558,100.65034603195488,0.019657188214445953,-7.8315450522333165,5.085066110615884,-1.3722888185575144,1735410535068.0
1.020735753210732,564.6401067257628,229.25931602906513,144.74552539752392,0.03443875101395283,-18.674250106880805,-26.095719421511898,-50.48972695540368,1735410535098.0
2.0194280252264982,328.273239126126,-939.4759662721583,231.2187657528163,0.005066489670431806,5.021168701041789,-24.031914533989266,20.344256802827577,1735410535128.0
0.8029068953089663,3022.073672429313,-26.94446237259268,-41.46097015906537,-0.001390635193210631,17.156047033619,-9.747397231084797,-17.694286625327514,1735410535158.0
0.563035551104093,1492.162467247427,-956.6788775472066,-244.09737055280323,0.038817128079220636,0.30087363162569547,-9.75689834366851,16.774690448561458,1735410535188.0
0.9775392264948339,-1413.354409748629,-826.0537363468584,1165.033904568351,0.04969032628649231,-23.603688694644624,4.832401785606168,54.89964293086761,1735410535218.0
0.48994720323149066,-1766.5392720659788,-483.5465248470832,-176.55802559519202,0.026490860074446905,-0.22067879715061522,-16.259722421719673,-29.4111415934395,1735410535247.0
1.9314275275804986,-1595.0694675500745,-1109.9943212086032,443.21142324870016,-0.005084979262940643,-6.390868474319955,18.270642031383577,25.67798840257641,1735410535278.0
0.8802976293620505,984.5209107776366,-165.28315721900287,546.786529429497,0.02535657192508756,-13.834480704853302,-13.421099261952177,55.91560253941424,1735410535308.0
0.5031274273566227,25.424197820618588,586.0458162789826,911.0653230660063,0.021256718812441965,2.9056823493718635,13.463454629920346,-47.52290082966159,1735410535338.0
0.4488290329271571,-739.3443756429504,37.740371271072476,744.8995200038346,0.014272277494324644,-26.360573159546764,-4.264911342926826,-71.84283754016899,1735410535369.0
1.4649933490451077,1826.1939691014793,517.8386992519142,631.6176719636451,0.02712630903690418,-12.087098204161794,0.9994317385926443,52.643530739908826,1735410535398.0
1.8052360388482187,393.37851703115706,-1477.0738838417317,629.8133836477308,0.052527138311284687,5.7264489220187595,-0.08815063832968217,25.17450185416669,1735410535398.0
