Acc_Betrag,Acc_X,Acc_Y,Acc_Z,Ori_Betrag,Ori_X,Ori_Y,Ori_Z,Timestamp
0.5388204310167881,1005.3066260025082,-1093.8214108399177,534.0787658891102,0.04978314844033908,117.40919088833977,-13.127283023395913,-7.464485045159609,1735410729233
1.65981006941779,-85.22232122968853,495.6743553434685,-1580.6283940500891,0.05520063981247007,-30.39119325230735,-10.116508349036492,-46.5628380456492,1735410729263
0.13149753936803865,59.588352954255356,653.3283727423468,384.94292039093375,0.06335740338346364,-44.473502191242275,-14.90548961596649,-58.81914369998304,1735410729292
0.4850722351739208,-1231.957076547676,-1185.79295081288,49.392645219434854,0.03169317505218602,-31.249589836683015,-4.431682393539894,-58.257326460876165,1735410729323
1.6483668231051338,2113.4701057390525,-1529.3827297469431,-682.2502164446294,0.03475277041096442,10.091953385422759,-25.562731737189413,15.401691704871471,1735410729353
1.2737268761964566,-171.93294356580145,-867.0307185455354,-1478.435192535383,0.026631439767268113,26.844889754261366,-1.6504535204061255,-7.360423502924204,1735410729383
1.6051077140208316,2350.2123041075047,-1071.6096856149245,-320.22210539466346,0.02879701385725967,18.190410805657077,12.496777696375727,-11.622760542953413,1735410729413
1.9993836518799541,1278.3879491840976,-1017.6014807777767,-1057.4677517198056,0.020382592347597383,66.38274796033562,10.542922276328227,29.09039653506968,1735410729443
1.8178560937443837,401.3742464255658,-270.1518771299325,1208.9673964994988,0.022374993569850687,10.666098475347844,14.92454035291658,28.042889923058404,1735410729473
0.962246177658195,1817.7380849227352,-672.3195584028012,-1563.5080656703642,0.03074461914051994,-0.8261019273210604,15.94742021417504,-22.594815603460248,1735410729503
0.7874623470344033,-1737.1335470853799,-40.668521381833955,734.7156508149966,0.022468241382072138,5.749108458223995,19.500238181389665,32.28935304777105,1735410729533
0.7915524953096217,-1510.4957996014773,-1648.3397305858277,276.93643677782234,0.03721010264294188,34.616317361710855,-5.543823032117865,-15.2962220565669,1735410729562
0.45750368502599154,-1347.015434281364,-607.9080722512055,-304.0578068821879,0.03401538596650105,17.533869611121766,3.722100125587082,48.016157972792485,1735410729593
0.8229677845573882,142.70745856921303,-1482.2338352148845,-654.9063462181197,0.0672827249394905,57.79382021180945,-17.115589927112573,1.084569611847563,1735410729623
0.7730078774180966,543.7339692005792,-543.3390786458974,299.281789684914,0.039865383818172936,39.424654279901304,-17.983239482413097,-52.632724103263,1735410729653
0.5607285389972493,-57.06384209918849,-245.68078369164294,1425.2569803450388,0.020212830829938105,41.579959641047296,-0.627897406726933,-130.88589149725993,1735410729683
1.4936544695632414,-585.34736527712,-1117.3143901219178,1693.7444887010959,0.013407015360864392,-9.491056851591349,-1.7867071250783026,-30.972370960222314,1735410729713
3.380283728073112,1238.931638052542,-3275.266335020683,-560.0319116729866,0.06343675327747311,-0.329767322869186,-8.880043189736744,20.94154804044714,1735410729743
3.1264233898325102,3132.9784147569917,-951.0943437163755,-983.9204130046721,0.033916885219445504,34.75047854420599,-8.838463386207124,28.762269829015374,1735410729772
1.651609461820649,1753.507536557348,-3804.3663083727506,-788.2197741540325,0.006415898565125671,1.338467726376197,-3.8987091976977446,20.424230191014004,1735410729803
1.826322792243653,2097.344258420224,-1807.5458681856176,501.00228130613027,0.012411075380151525,0.21295101333863053,17.409270633159554,-46.310808035370016,1735410729833
1.0066919749350238,409.75159913896596,-1761.4259723805308,-456.8935911660899,0.031096116543223737,-35.69586015205186,-0.03595310974817423,29.00020650558262,1735410729862
1.115162334661517,404.26590830235193,-454.38855568294184,-464.45597720854335,-0.0005199993796350076,-2.2062113220067374,-15.584693429917579,-46.032802218209284,1735410729892
2.1490709469517646,-374.7218700002941,-1629.6990629046638,479.2219922329877,0.008364604770999047,-32.45550840407057,-26.509615994262877,30.826889207913837,1735410729921
2.039355969776392,36.012161705448634,409.76544007927214,260.60788063329403,0.04367107339855346,-27.595679911592136,-19.97091405189851,-11.786113918856907,1735410729951
0.9615494935035352,25.811966812048848,-741.2341495478769,-711.6714019980816,0.037885164547297775,-34.36739527867938,25.349195083982742,-15.435307225907088,1735410729981
0.16007595794779417,243.99564725757963,-1285.6651070977612,-472.7446636555678,0.036341914788761844,34.66819792817924,14.849579835476847,-22.973331939655466,1735410730011
1.247111058000665,-868.837782907964,-395.1726380781551,-804.7373937131031,0.00016359454046498134,26.785334959712184,20.827589124207073,48.19366853929701,1735410730041
1.0395144439309578,-915.8612746293334,-204.8552061799865,-1073.3255632792163,0.045699924613219686,-11.143927809403145,7.7027843949842065,-13.519410874915998,1735410730072
1.2039112654296784,-472.6836294441362,-1662.1947541625864,868.3173404891486,0.027269253730174373,-15.849185163521302,-2.503773924488211,28.385229514121544,1735410730102
1.2781263316432092,723.2697994844966,-27.613995572105978,-687.5858812377382,0.04774576553600507,29.65717066229687,-12.844133701663381,9.066856827069245,1735410730132
0.9400104538404632,2830.079417604844,-824.5421125268471,-2132.108349264954,0.021787803524051633,50.5298943369435,1.4972349440454895,-7.816534540967883,1735410730163
0.7751289271507009,1048.1907584928292,156.65540756661403,-919.1847813277191,0.028247292670542816,-38.43998397279389,27.33165159328143,0.41443381287143666,1735410730192
1.0875489307893726,258.7652428936684,-371.6196703333702,600.6327875648899,0.0608013925760244,-27.043611379377776,3.2018514944584027,-30.580841224621253,1735410730221
2.209470412909557,1523.588132141774,-1813.12570164412,734.9255009249412,0.04543817535401917,7.965130210111518,-11.201076557700258,-53.55721765876375,1735410730251
1.9660531639667334,2011.827819548024,-1373.0016818734598,-541.4426751734821,0.04190649855437736,38.828592648751396,-13.447968012142889,-13.528159449170444,1735410730282
1.6556478102080614,780.7983391755106,-2187.3319974058422,-116.80116439042541,0.015083634280451508,37.33127581454261,-16.648774108212738,-18.579251384867817,1735410730311
0.04733233607735199,-2504.810407519566,1114.2318969290566,202.18599448716395,0.03357297670912087,36.81673609443659,-32.843021509394895,-19.803143336658223,1735410730343
0.19114659544671425,388.9572197525689,-913.4887876217547,-505.38753279873356,0.04330109421930966,9.473764847300735,-24.179048992690014,31.45723245644345,1735410730374
0.48427118622543286,1728.2786690651355,-76.17918174532417,147.68895071644528,0.03470578613053044,-30.107809101296066,-0.9048959866912067,-4.502939793504751,1735410730404
1.7124821668594763,14.792823461641774,-85.90824120443915,969.7526824401497,0.047222537415230616,-0.35966788409663764,1.4591287426834914,-31.619369732513285,1735410730433
1.354026557772735,-1559.254485775396,-266.5231413690926,1167.8548398313815,0.03649414487033,10.488518965663545,5.371562422829737,-33.55311252014867,1735410730463
1.8362738624338373,-2094.2240626566995,-810.6101183959328,-875.5655982736364,0.0227867475217814,21.73048120781111,-8.02564006556269,-33.19787643888666,1735410730493
1.296496485894763,-1306.724585912976,892.0731110288259,159.41894995245366,0.016370425464552203,-8.908347569418357,3.282935991044045,-1.5098801410665832,1735410730522
3.1214902921043137,1863.3814592786641,-586.7033346626715,-1151.2198616625985,0.005106552148714789,53.88929519181977,0.1455689498014311,-16.05275580266944,1735410730551
2.1420078058569465,2216.9582829035962,342.21310017494216,-1148.2305565763247,0.015567796173039692,-19.241345167113714,6.525614429603403,-62.59534700627546,1735410730581
2.053046007592111,1701.0608362316977,-2030.6249291112258,-433.4104328188879,0.03103308731942709,9.398266760461992,0.436313369631671,54.03410554300643,1735410730611
1.2715260908720578,1142.199056790254,-2099.201007628023,86.20519498865326,0.05282720665763954,39.794688616010276,6.030130031788357,51.689460367407975,1735410730641
1.0109305834360187,-261.27877644549517,-1977.0246941431367,34.60485755110042,0.03250176587430444,14.879278823977748,-13.398420192108816,42.281118233679344,1735410730673
0.9789957236631579,786.453647253757,-831.1193095637866,2181.820076877711,0.012636364040601134,5.5582592572900085,0.5396607370897111,15.869763597547186,1735410730703
0.9597951661939801,-725.933257991311,73.14814239766616,1213.438161488386,0.015413569353998905,-15.497228098318569,12.34464828430892,-21.72443073706833,1735410730732
0.35828559540040134,999.1965853104957,13.096327239615505,-162.20092039654475,0.07835505025717401,49.720611153475346,0.5940076437620148,38.61754615317315,1735410730762
0.05386673738788472,-280.508135186994,-548.0180038696667,811.7654991910108,0.016001838265003884,40.23220935349483,10.641874770156672,-0.21911448562714497,1735410730793
-0.0960101255795821,819.174333262338,-278.1050584019557,-258.98293390870344,0.02496083214642323,35.50889002828556,1.7709416329367005,-26.934431651920182,1735410730823
0.6830212323961735,-441.9575869912511,-501.43183725630433,598.8037890035232,0.03262342150778869,10.805195176715603,10.000033889173121,-58.329914495735906,1735410730853
1.3347055926214788,-2413.348830218122,830.0591698402684,994.65279115492,0.032719242398348496,-16.494269483604548,5.491524207705256,8.503184390305176,1735410730882
0.6381605370038368,-2326.405237729374,-657.8575130077044,577.5194492712533,0.035203491816833715,54.952446734376544,-13.315119064223365,-22.270601972967388,1735410730913
3.0044075561950727,1693.1692450573228,-2660.4713249649985,-236.29549825347317,0.06217482982521744,-11.70026426165302,6.023788802594777,-20.904258924742436,1735410730942
3.0574565029439293,1528.189386634859,-1007.8530755305882,-360.96744215261106,0.045933252235555215,14.197503968964472,1.4092786989433583,38.05680799635159,1735410730972
2.9762646966332884,2815.652344027003,-3548.935964026652,-574.3555311575941,0.02362007189381596,-6.064761602437672,4.343477133344905,28.72273549993096,1735410731003
1.2991313418749595,-187.1781355223568,-911.1225660851683,343.48814837175837,0.0030524528521172177,-11.544369578454974,-6.895995665202832,-64.11720486335624,1735410731033
1.7354255731591057,-232.2299717820398,-2724.785493728419,-80.14558567458263,-0.005016710465507728,43.30050511780866,-5.587969783025197,24.737452238450604,1735410731062
1.292599542837976,461.0466195452895,-749.1802000459754,-500.19260386810004,-0.003942891836641737,0.05102585835944873,-11.350642106359809,6.574217347478516,1735410731091
0.8898430733795613,791.4551060586599,-749.1468029449414,651.2233839196365,0.03075237703671412,9.74560940367294,6.629639979797092,-12.567572431399121,1735410731123
1.36378650195776,15.24007014097333,757.174848463114,-466.57027865473015,0.026182155927162346,-3.9949645968038165,-2.2392476056584134,41.74263501781657,1735410731152
0.6738110789855661,-1476.7639340002,956.6634092524148,972.5205009219338,0.04153150206804698,-21.278297734636695,5.382659093750077,-43.5315646023213,1735410731181
0.9344576988710844,-1791.734459390303,-1281.4738092705495,263.32595116941616,0.011450161705284284,0.11672407628850312,2.1930473078016135,-12.099946115190637,1735410731212
0.7241599256198087,-691.4243332981875,-954.4487591721305,339.5551784465175,0.03582284295256834,-35.5703550387827,-0.9842542557561407,-16.711976868034306,1735410731242
1.3806132036688585,-2105.493893073069,203.16859387158962,605.051054539221,0.04246411345283374,-3.8008389234211855,7.28529461951508,-55.96304611968679,1735410731272
1.1895731275062342,-653.008425564803,-86.17433536876325,-66.44208034799144,0.034030899386550115,56.81174956603524,-3.467212342597084,-33.56335488901607,1735410731303
