Acc_Betrag,Acc_X,Acc_Y,Acc_Z,Ori_Betrag,Ori_X,Ori_Y,Ori_Z,Timestamp
2.430207106000618,184.82810560524177,-766.0129178662485,1174.0350999797747,0.033085369656887,-9.755556902806212,-15.190199796589416,-1.7597739583424037,1735410595105.0
2.617405278565433,-579.1283857196402,205.7115380245782,2414.749814172358,0.07397854865406032,-9.417893913420054,-6.323695238363054,11.825853845184248,1735410595130.0
2.4831614829983706,916.4153808731385,-1846.1791078286778,2348.1719192598616,0.04220065445136808,40.25898800476021,-6.080460904449574,11.663357196624784,1735410595160.0
1.4631538372069501,1054.0402066131094,-125.61807728238632,-1652.6197268292726,0.03431974998754739,33.48817649114056,-3.1805851967603296,58.20204963861545,1735410595190.0
0.35261737804602067,1298.9633038781965,595.5136748836071,-985.0040511655249,0.04860412948998111,-34.420281543083156,-11.66963055396849,1.9789540700759254,1735410595249.0
-0.6076337764479715,-212.7356553989306,-172.02120018373802,948.9660059565068,0.06340480843490814,-13.234706338065838,-26.326626655198115,-27.7096028381863,1735410595280.0
0.9570415722131522,82.47179653448597,-519.8272095883723,884.1108858287571,0.06805983474022141,25.71287120518083,-3.559788334562123,-49.170264444081546,1735410595310.0
0.7644537294411363,-1688.842966386774,-11.24896162034571,767.5878551859093,0.06609185564472028,1.4658703276161482,-14.401403127038678,37.66282730827882,1735410595340.0
1.1874242010365141,288.2174721149204,-1071.2135391514462,1254.370209496316,0.01702879448850862,3.2491989863573547,-13.086190157797457,56.40913302878311,1735410595370.0
0.6783053822738923,-932.7735318404192,-542.4951112182221,248.736924171074,0.025671968163333836,-3.4956820057592237,-4.843576364845665,58.081236865339505,1735410595400.0
0.5763250663355757,-1807.7654816584118,-687.6475168276596,-232.5165145319953,0.044118624574726886,-24.719352699264846,-22.673034300133864,-41.92215161726479,1735410595430.0
0.6692261557954676,-99.40400969591343,162.27434543562413,627.4874477776084,0.04021939100672401,29.240240793566862,-13.497438050968324,25.658511665829117,1735410595459.0
1.6378646545181454,435.0520351779104,-1160.9102639805747,-163.9104563543732,0.028734437390089563,-14.049385214738564,-35.23095558336765,-21.011008544836372,1735410595490.0
2.2122192817185944,-131.55221243258154,1.0511882686686533,-1890.8397553548434,0.047075773550878754,47.35868430087646,-13.903688927386712,-3.9308347966116686,1735410595520.0
1.0263571867360293,-1653.4373810881816,865.447998806078,-498.1459263544738,0.04996252030549637,-60.866632983823486,10.308517344433984,23.137328770460815,1735410595550.0
1.4215084095239154,-1500.8888203509473,-1072.2765821187827,1554.8851232798763,0.05181486838937491,4.712280775153417,-9.297070333918299,-10.54762746864662,1735410595609.0
2.0168200314868545,-1290.3821554411843,208.6139235971449,2120.6217105913092,0.04363719895510869,7.307415983436064,-16.010710828027786,6.43455808936374,1735410595640.0
-0.005252297557453933,764.0765762220527,682.6182544477367,-1496.7919003207037,0.04668051261219598,-5.342056107522392,-2.9521496837318844,11.345214738549489,1735410595670.0
1.0052841461120858,1031.2121449724164,-94.29485460050117,-764.9784320099402,0.011303203358460405,46.8154896104426,-7.524537169089182,-8.739609146156766,1735410595700.0
1.529748700891898,354.6745358097594,-304.76441914440136,-529.500645389969,0.014889229220094974,41.4213276456795,-9.38639379676894,13.09132777341955,1735410595730.0
1.219080110637985,1158.6883653083748,316.2477416816298,-98.65757322241689,0.04353679981606628,50.13100190481518,15.639728564760263,-28.22436890278214,1735410595760.0
1.4473394505711061,-1491.5076920905633,499.1193993668562,-192.92889770678562,0.036207139335054594,88.49286032494841,7.670512505351656,21.686981691509033,1735410595790.0
1.4223562312140636,-311.16050973317374,96.56917235839461,-987.8926341818943,0.05579155222016567,78.71162035373123,3.021755544610329,20.647256516596215,1735410595820.0
-0.029946195659254105,165.52112860681856,-544.5428954220756,76.55525078266896,0.027553637892825902,33.965328123898225,-4.398960030919863,5.2155322938596775,1735410595850.0
1.2637455815650003,-771.1510963860719,72.63248721554294,914.7627349060792,0.04447852184867181,47.81000693029175,12.047417947603375,-16.571705130390537,1735410595880.0
0.6736291770512673,-560.2827957263057,543.773904615299,1370.4128397404422,0.049023498402849336,-35.45265270866423,10.069448723448872,10.587095182576823,1735410595910.0
0.1817613643664997,-671.2684145028547,-130.72388664569752,1153.4214632317808,0.0357373678236909,35.17477092697116,34.89909735996916,71.05703212319123,1735410595940.0
1.85116124369869,-991.4958817802041,728.8843598394066,-1808.862885430012,0.031050038785341943,55.535829411072086,10.020948957329248,19.53729793077433,1735410595968.0
1.2912687682658746,-323.99640250439637,-1275.389529103184,-796.4492446187824,0.003232608753454727,30.62985790879733,-2.7319315106587627,-25.33128719087688,1735410596000.0
1.2589563191279391,870.039259819571,-790.7534137583975,-2181.7804747848418,0.022991233936819597,44.22724062017778,29.3712384017495,-40.65777633328099,1735410596030.0
1.75425820483822,-1268.1411238649832,540.3314066418495,-173.93979882299936,0.03980736678044569,-21.183540661975528,8.2295078988271,-59.52065433091403,1735410596060.0
1.5981540542230102,-905.8494816643654,-1715.1131176890153,1864.3127066504999,0.040672254312832404,58.08960778587429,8.526884718921393,4.205756279807846,1735410596090.0
1.1893092594874506,603.1330409843929,-2643.4064747783195,982.4751995275715,0.03771213050822304,9.074181517853937,2.3218329264646798,24.92407275866997,1735410596120.0
2.5952653609721894,1279.065893936166,-2228.4003750717884,2254.7775166682272,0.03059300274940764,3.725351058226856,4.257203862316519,22.327079837093102,1735410596150.0
1.3982032965708504,-1244.611897034805,-738.0920133241424,137.4685824286305,0.04257770125547409,20.069980428198132,13.076337468848845,75.23025896159609,1735410596180.0
0.19685763310331322,1719.5178117120877,940.7276509238052,47.5451964303233,0.003490506363068819,-0.9170384270633924,15.496721858078415,16.559067013135447,1735410596210.0
0.504864430391101,-666.0017078924386,-961.9543939196581,-1347.0506985950778,0.027507128687456278,15.772054032260868,21.842903339332796,40.670867078722836,1735410596239.0
1.0546034032873466,-271.440934477036,631.1635012793297,-1612.0235537052827,0.032605145662348387,16.817821785014434,6.108509213546595,14.397775808483274,1735410596269.0
1.15093009236086,431.65932558848203,850.9801041413428,-607.3523132043586,0.03725786896679207,56.30791383663227,3.9446649638452413,-8.985173273690009,1735410596300.0
0.4448337790795296,-1468.8033962484355,-208.2285442438908,-1500.989871930397,0.0449494834677085,-14.765093402015069,20.77779902972153,-11.973231511161039,1735410596330.0
1.890457342102634,572.7973106203195,-30.995288319093675,2499.6755898140254,0.0007684654863624185,47.477443698116666,10.22698357331911,6.8737347413625365,1735410596359.0
2.1173291959650387,93.58022999501617,-569.8695363520957,2176.0499618253943,0.024476186277948946,37.50020733298845,-1.5762103862977828,-15.417668134765094,1735410596389.0
1.501855066798502,-877.5768077082048,-678.3599617472878,2840.4521167587936,0.05077568250466204,41.136809916351325,21.32804048419051,27.12680938975508,1735410596419.0
1.4002083169166148,315.1340801115757,-548.5148794152241,1354.9932546605396,0.040865600779014036,38.78902340739933,16.04282558895178,5.631035831630154,1735410596449.0
1.4916418205746411,-9.260417637094122,-31.593321662439706,-1842.8040008266557,0.011784698987049022,52.191356751410495,11.270819343660456,-8.919680027983912,1735410596478.0
0.13786563212184388,145.22580502922915,807.3199605915959,-1003.8687468631917,0.02373720661017788,18.665564918693846,24.490014689970522,-49.478829876469256,1735410596510.0
1.8517042155384873,-301.4925271695008,-415.52729315484197,-50.5201381873203,0.032948287486529684,40.39642807537021,25.92994413104799,-20.752859506532285,1735410596540.0
1.2413813485806946,670.2954646002147,-460.1748182280362,615.7926628291698,0.038384041895809816,55.66966486540478,15.323954091434867,-59.438813699592004,1735410596570.0
1.4683143880228084,405.9311571370001,-852.1493880122613,204.04052882616645,0.031057065027589963,44.377602985585014,15.907871956872043,-28.643309718610425,1735410596600.0
0.9812492064144295,-452.94063998939737,-486.78811051711045,484.39362596874855,0.04309755290424185,42.90394734315787,6.8123052430095274,11.696395130869917,1735410596630.0
0.14883989442564072,26.722380472415608,-1651.6687625192403,1221.0236870274339,0.012847465512462512,-0.9509407038459834,19.940058488750182,42.45896303320117,1735410596660.0
0.33829548228044415,1347.5575726588584,54.624449356565776,304.64513566023237,0.008306992806880038,-6.468261518126621,22.84831215998077,-50.52157191409678,1735410596688.0
0.7946247875062251,474.0398302221108,-1447.635183840656,936.6732737435508,0.03469511860297678,-10.47413527718617,26.814973562910897,22.374027336349243,1735410596720.0
0.12070688254808881,-1067.061570515532,-207.77354637628616,-493.6371874535547,0.0015510056063114397,5.246313217274729,13.619621394252844,20.09381356369369,1735410596750.0
1.6345420369166954,-1084.0111340521887,-156.55241620050458,-935.7077649300288,0.025301794767477372,57.377813198295364,15.522890117032732,-43.47753708908617,1735410596778.0
1.6398790114836568,278.33976563022964,-538.2720842657436,-2004.8765474288994,0.04907377051116979,31.38236623546471,-5.724783176216183,-44.40979921982666,1735410596810.0
1.1143868853145669,522.9721844624472,-599.6958508736378,-1723.9886656108938,0.03710865445705964,14.45117722862173,4.133554879555683,-69.92376484387225,1735410596840.0
1.7055165778709025,-90.73567083411251,-1499.7323490655276,1279.3255822190722,0.03650700300960165,10.524064487392362,1.8867081668104964,-18.05292352492804,1735410596870.0
2.882450300634253,-1372.8753597024975,-807.168277644871,1187.539222701388,0.024947167352983284,65.22468199382352,20.589813898797676,-5.673396264168245,1735410596899.0
3.1721121794674376,-585.0714064537356,-211.6716758737066,3023.680717800113,0.017363858821059053,49.665696782188874,34.310379900033865,6.0137452630002475,1735410596930.0
0.6073217098161225,20.32255967387914,246.14922062976996,-1525.390435216992,0.04644167699175515,0.9273028562196366,16.898151319500478,30.851240585173233,1735410596960.0
1.356907002774969,-1403.2412666742143,294.0631822812114,-1461.8304622787925,0.014837238901982625,21.029107637374487,12.750973353590586,55.77617910651302,1735410596989.0
1.1355995521104196,-1334.2636340384636,603.3953919219747,-2374.9046592776685,0.03420962475782181,40.07464632475382,6.95571075382346,-21.87072443654907,1735410597018.0
1.473487473695235,473.10376510174797,-862.9844644837699,-1082.8784273567994,0.06663870643911535,78.0396736524088,-1.1817212379816544,-43.53709773558699,1735410597051.0
0.04649858083735489,488.4636112048041,62.347808316876126,118.15816464053023,0.06749090152149681,18.56149367908942,20.76460071320365,-70.47192568282998,1735410597081.0
0.6905750414078136,476.9409906354264,-1298.7123830242992,132.60603688661945,0.048653953473930374,49.31993331744988,27.101710668906573,-53.679574567678756,1735410597110.0
-0.025032883653436533,713.2924007757845,1214.5724135695593,67.87428194296618,0.04592445943747907,12.643541571096712,-19.112513866643646,-77.9559473190742,1735410597140.0
0.5929253180598419,138.4272412830686,49.908296982833576,-1359.8736085603018,0.02728548781465988,73.31244920299191,-12.282088362617506,-24.622754366075434,1735410597170.0
0.22899821660960262,-98.51249407847601,1352.3646408232626,6.073924527151377,0.047438951593449366,42.928369366447946,-10.80213043445359,-19.53861744760715,1735410597170.0
1.164027356707053,61.419801362850464,522.1239353044687,66.99396293476514,0.022139538721028428,22.4411398984926,1.703413498431078,-10.411110744868179,1735410597170.0
