Acc_Betrag,Acc_X,Acc_Y,Acc_Z,Ori_Betrag,Ori_X,Ori_Y,Ori_Z,Timestamp
0.1254207129361038,648.2368465626723,-1712.4052155041127,-1184.031314848206,0.046396368587021605,56.638963711372554,13.617885829915659,36.17887529959798,1735410869156.0
0.4681847654316397,104.95242719035262,-1769.8769172514149,-824.488709555367,0.046579796895854654,34.04093827842686,-1.6342080691860303,83.26186140925667,1735410869186.0
-0.3664169666930752,-212.75314025232478,403.6544111749582,-831.028748684039,0.06825688122768092,16.11662874426995,5.4918150348701475,31.383143322546427,1735410869215.0
0.18178108478934873,305.1467767439169,-640.9037115308544,-1266.36061834558,0.032483044622706805,29.960690701909627,12.805919683344008,-61.6154942259074,1735410869245.0
0.901473456221042,908.8286755432027,188.92171020546147,-818.7144109145017,0.022472335771942575,-43.56996256377768,8.303127154515936,-5.093756548585844,1735410869274.0
-0.31756344243291496,-812.3871810114981,327.66571534858434,374.67637742895954,-0.0010502189167943127,45.83784531616803,-4.247091822925583,13.694070756181535,1735410869306.0
-0.5352209856482228,421.5620716467399,-30.48958103125028,-181.39269525976104,0.03849915599403598,-11.481735823085195,0.3431877275853008,30.16387149905989,1735410869336.0
0.6058227717377423,16.73957677357086,-0.9400902793557293,-805.7076819916479,0.054169801665166134,17.396341888098284,4.466820663298157,63.294578598847444,1735410869366.0
1.7001837608325168,-967.6119817226561,-811.6603955132482,-83.26876467359475,0.04875289607395248,42.96977387261596,6.232599539858948,-42.16254304793882,1735410869396.0
2.6504094319454445,-121.063471416683,-416.641459933022,-985.8126143566922,0.009161690855103079,63.777265749047324,15.084606655616831,-14.496830275645133,1735410869426.0
0.19986629811211776,12.400176501965234,24.498988224724144,299.6191246669155,0.027993420650142778,41.67780075831766,18.023362298694124,75.42954333107868,1735410869456.0
1.9099786557580778,-2487.184335421216,-1642.5487724871157,571.3926499540953,0.06211075359471051,-10.91064333543087,6.767956488322406,29.11086188878203,1735410869486.0
3.2936605422396887,-1669.0659567818964,-1893.461003270968,1114.4537024878728,0.06406677619085094,24.8614771938337,13.919671814281052,-25.625676967266394,1735410869517.0
2.565461745846927,-1450.6377379533599,-350.29714192100005,-67.15167327811088,0.04438975123486921,-16.3293967975898,16.951627798849643,-30.84230366821762,1735410869546.0
1.5455064260880582,-2138.0795577398144,-811.1049211930792,1619.2188647177345,0.03291068620674165,16.735208661219332,5.030911541292841,12.628974306897952,1735410869576.0
0.6703625382075632,-1443.4219033936843,-789.0282111969929,1040.4125854744411,0.0050029619345917445,11.277571339505343,2.834336842791596,0.6596712500864541,1735410869606.0
1.5104056123947434,-1557.9003504465031,-1403.7001203280197,657.5787018937888,0.03747801346483595,17.77502727339809,-8.067177315209463,-50.535215026477715,1735410869636.0
0.8345159067542537,-1747.2442420104867,-604.8725794761058,190.71277979710317,0.036170815897865374,-12.843958137984405,27.68898107763711,25.79738100333732,1735410869666.0
0.32759420713632714,616.6363961724354,-115.21480348482288,-1275.0399943043253,0.03900326731418012,8.826855405414253,1.37112327844239,10.981731422806835,1735410869696.0
-1.2216579605858842,-1532.367304647854,-163.0586938921075,-227.0546580329568,0.038802558243782974,6.1037610121806285,13.649121066050368,9.372797412578784,1735410869726.0
-0.08047932331015412,-419.61932113585715,-778.0081720509742,-303.4397156368421,0.04154111541789218,-10.39976895573893,8.630618502900578,-18.551357753467173,1735410869756.0
1.316212843632569,298.40462964084924,-303.7552241772455,-275.5952315392075,0.032884975160830915,44.82510359761181,2.5858580747475663,38.26178927233647,1735410869785.0
0.2765482913455845,410.58363459321595,-805.2175498313487,-1333.2877122688774,0.030491088913101923,26.928670519613565,19.256645148456585,3.9948752084583727,1735410869816.0
0.8982451511453962,456.16416073053705,-230.75707876815972,132.21232627346262,0.02876227660219782,3.4740668435046302,-7.820015768162463,-9.569075663530665,1735410869846.0
0.6203271429363381,279.7188988071351,-2732.1246821245127,231.99722815040036,0.051885664503629,10.185110315339344,11.35731127496788,-16.502175976982493,1735410869876.0
2.0547105805268493,861.9384654022087,498.9069406942302,-1427.6734377180537,0.013749072974650403,41.66006705396683,17.193254223933888,-3.9511698165314435,1735410869906.0
1.3041463685852692,1084.4368917947534,-329.6089164037894,-761.0154193257075,0.023200857980586857,71.91594907451244,9.52652118128793,4.477374353957092,1735410869936.0
0.47737381515767485,667.5527498313572,974.5538859845565,383.74580460338166,0.023661566158514474,-21.1672934481161,-0.4483878199200628,17.034029667823074,1735410869966.0
1.1562662179816108,614.9635239328223,971.5022459124422,-499.108111193997,0.0680922462092184,4.485256432523133,15.312743161961466,-91.03249938017012,1735410869994.0
1.62491505857404,994.5202053426362,174.6746661231991,210.9622104214818,0.046448778433072664,-0.8945892404926141,5.954496225740973,-52.303549073570366,1735410870026.0
1.2253813170695316,-502.82023072948255,657.491774953469,-1518.4821083209747,0.04322105846511996,12.297324882333717,9.229973378694883,25.725495109938358,1735410870056.0
0.4095443791469531,2207.552705600181,411.3803393400559,-604.9600738936557,0.05084027979461732,-23.55567290799404,10.438389789328978,75.06460312920564,1735410870086.0
1.2269447399216689,3173.262298345215,36.513817726198596,-2334.2996753691937,0.0656894697456729,-14.135252031011266,9.933373217512765,87.00100473437834,1735410870147.0
0.8616066138274393,719.8531644618758,-636.2927194991959,46.36532741496535,0.06448049756832812,54.01199479096767,27.60255581402587,10.705544625739037,1735410870147.0
1.882254889652557,1908.7054034802836,-520.2606943052863,-1517.60166949997,0.07432138277876661,49.0027659257634,9.925338305410504,-29.940876436739977,1735410870177.0
1.2895663337237195,-155.83966056618544,1259.9962072462918,151.87184868995394,0.06483096690762365,25.40632137988369,-1.5376706597138492,16.50755163798103,1735410870207.0
1.4326582856777184,258.6021103463875,-1690.6208765754347,-597.913425779699,0.025206578494411252,23.459696916198478,6.047550188495993,-31.992369584820864,1735410870236.0
0.6919799814366663,827.9548777456264,865.8379118816389,-137.72333798678574,0.027664637505993756,12.91762556448205,-5.560669462465624,2.2089177182195625,1735410870266.0
0.4849379611927708,-223.51911309518297,-334.5013445568773,-1405.538741131893,0.027381568161058887,46.409326361324375,15.777808770246274,52.31225178664508,1735410870296.0
0.38563084229550176,-497.4786982683712,-728.7103989743032,-139.7216937581751,0.033293636302019106,9.835117324978459,12.628202620769462,57.92472815654085,1735410870326.0
0.34567689810386865,481.17746323380493,406.3050794651935,-1643.5976774930473,0.03282414028046704,37.89220704040261,-3.808699139821396,-6.872731085736159,1735410870356.0
0.6836358748766698,-1920.3568331710762,-922.2285399616205,-1226.6594266857494,0.03555878337617127,7.254324106692957,18.987938819800323,-54.4554984356098,1735410870386.0
1.42525043235879,-572.4261211273964,148.09181868911037,-1042.353062504233,0.04635623574629143,33.66561338266898,7.963220804165558,56.94304183840117,1735410870416.0
2.0581635027481715,-1459.7399964221252,-932.8515460943738,-569.7340533642399,0.05619915640075164,58.94338589727694,35.12130863391579,53.66341318512603,1735410870446.0
1.6640024432593825,507.54446855419224,-486.4983473696392,905.4013198334285,0.04540187974680824,12.107813905085223,11.214840378367782,6.270510277057454,1735410870476.0
2.2152246999781893,-187.277063888542,-841.3041726466,320.481061268864,0.04830428005385533,25.88354210318853,-10.77654046608627,-0.7512681956151361,1735410870505.0
2.256645403549936,-483.3252437494733,-1243.6567777576133,204.55906257953296,0.009024510056628198,2.08139806529778,-1.1218720707176288,-71.15134476012007,1735410870536.0
1.863047330952049,-1641.4644904153424,-896.9575688757574,964.8249155068349,0.020310578149014907,-10.725196240880889,21.299902533299186,33.93610780751325,1735410870566.0
1.97595793966603,-962.7121967501082,93.41562828609119,-356.0242886171825,-0.008893872303257862,8.75525207837947,19.041722086218908,4.460126781458046,1735410870595.0
1.1543861037226724,-2125.6644493960093,-525.5559781073572,-178.7604095461695,0.02622448597158695,-26.661986785941128,22.547317321587517,-27.899102112483188,1735410870625.0
1.550957634410307,-1248.667460920736,-1188.831178853232,-127.8819165861961,0.014743284198166288,5.3355446186838416,-6.448015716353538,-51.95973025377471,1735410870655.0
1.8927957565447295,-804.3287500349154,-80.32891507057809,-111.15551278950988,0.023295719170804446,-25.55601596115894,-24.292984986889266,-44.37985500157119,1735410870686.0
1.5423813696252326,-747.4653358000169,-1771.2252429888263,554.5380560893605,0.037442237918184657,13.295183987626704,4.705524142353115,-37.22156306172091,1735410870715.0
0.6685487311288726,-927.3582071581263,-475.53207457284424,-493.730897396842,0.015013314149032331,26.557382371371823,-2.9897671801926595,5.2721785374003325,1735410870745.0
0.06582568017718282,1134.551206020754,113.44347399510337,-741.1113316211673,0.017416517541191796,43.82536874742432,13.570872032366907,-6.741653350075783,1735410870775.0
0.5869560790984967,-39.46222493729147,-1303.4536955337744,340.79359341041317,0.02024658802398785,-12.461141966148869,8.098225421551607,-11.19018080738754,1735410870805.0
0.5693220409500028,-125.45736049681173,-184.86715169183586,-29.7217689357488,0.05031169624895087,73.67057296271571,23.092464183697842,-7.056831421783336,1735410870836.0
0.33814168943698575,-330.6510505655831,-9.916615610969302,302.4852966825569,-0.004669493153303613,21.60855800974863,-6.55318363793929,2.9640803196679624,1735410870866.0
1.1530540166075836,403.343061054894,151.97394200187466,-1366.8727177537792,0.022431308563304525,-7.336307019607979,-3.339644532713054,-27.62537433773511,1735410870896.0
1.1617206163961025,17.167675864092644,854.7349712448953,-2821.823528748637,0.04415494615400589,60.56583839703675,-3.0965746279740767,-31.792971959617503,1735410870926.0
0.9350496965422392,-1412.917095898902,949.16129675718,-597.7859905922508,0.06542128223966409,27.668298871047362,1.6144800089038487,40.432225905739074,1735410870956.0
1.7840262109172538,1026.7992038527077,-495.78924377685826,-24.311552265611567,0.029514991191718423,13.335051204021084,25.306302291636314,-5.380100942644232,1735410870986.0
0.4993791182524979,501.8731634295383,468.3406941155288,-358.4236109171663,0.03982971301259958,-15.04556844639577,19.1248147679136,-24.516452448414753,1735410871016.0
1.3414458834812473,-482.45410076981807,856.7364528871484,92.88759429504523,0.03794559682477097,32.94515054128934,8.457151498608848,-11.066579463294772,1735410871046.0
1.59965700647009,876.9355940431849,1082.129662544212,317.59792701383344,0.034716657816566215,15.791188801677862,34.39740593037787,-26.587048375620476,1735410871076.0
1.7465158841459094,1819.7840889335098,1231.5665881448488,-549.9245195428296,0.020373486210554966,53.28136252706126,19.46102550704589,-54.77512003471776,1735410871106.0
1.625374217683833,390.23128690791276,161.20986664847374,-669.595953116839,0.04272547462367597,16.84430389727787,9.370773458622896,-9.568320209567442,1735410871136.0
-0.1682510453783277,1456.6665550335526,-317.5180327821845,321.91419568160745,0.04614618307355303,21.977772826024022,31.463885996288848,-18.247373630208124,1735410871166.0
2.5172336276001737,945.3089831144558,578.7497657682795,-534.0314179380316,0.03394866232289399,70.49672104249413,-2.7156557539135324,-12.052329588668398,1735410871196.0
1.1591630418782073,-313.6214198811638,311.33845663463507,-1684.2112849067569,0.04020096909910459,86.94580614321842,9.346178785839317,-19.923157619605703,1735410871196.0
