Acc_Betrag,Acc_X,Acc_Y,Acc_Z,Ori_Betrag,Ori_X,Ori_Y,Ori_Z,Timestamp
1.6617364247704864,66.2487005717604,878.9702647557601,1274.342273708072,0.04591326521033198,75.8421450568633,-0.006290109445191705,5.416247555766141,1735410568429.0
1.19534702070773,-1256.0004856774462,1015.4044677870845,664.4732153342701,0.041504081420012544,-6.872096020210975,2.5548050759442957,19.389951513591054,1735410568460.0
1.2074601779818686,424.3157856699612,663.755785511001,1415.599115956522,0.05170565531129044,66.17184658608977,-13.952598542713567,-57.86530877887246,1735410568489.0
0.609660051176574,-389.80135258229694,1501.0102629560308,1680.7442604474206,0.021769415684009443,53.55075100081333,-8.536530919315314,-2.4765697759799075,1735410568519.0
0.46335770294176926,-3288.4656754210537,277.03236987890045,457.544451345836,0.06308737201681533,74.09280568826233,-10.883397196483369,57.206428959852346,1735410568549.0
1.3660185157040776,-1471.3892010502627,-497.29042310545924,-550.6530093275202,0.04213305727991802,-59.16118424892615,-2.5143961044560257,28.986153810915518,1735410568579.0
1.523680510446507,-810.0605703852219,931.4228261971041,1440.8289344270222,0.05300926781293007,-36.980721469998585,-1.5915678475996753,31.75197650040102,1735410568609.0
0.7772171654934906,-20.456309615223972,-727.9549872770579,789.9358583157749,0.030900042889762964,13.749600676911346,34.49898484678709,39.02070503341066,1735410568639.0
2.2096494741816484,1172.5522865295616,893.2681234439937,-1543.5569759359485,0.04658264408514625,-59.501781927352766,7.675082649182688,12.305610776520579,1735410568669.0
-0.12359728518136914,1990.0453573987652,-1182.5722281727483,861.9223745948949,0.03877324821396935,5.427044020783661,7.89586199624571,-21.432502524902645,1735410568699.0
2.519001319760394,-2012.881711679499,131.02579104910956,949.8059760213264,0.06110636292706149,2.938328826656985,11.082310439749817,-2.780166975886062,1735410568728.0
2.0817562483632424,-2424.080211632852,390.15321690314704,210.0464282709233,0.03183160192092439,-51.07049430903503,-2.123790733592556,36.46425995989553,1735410568759.0
3.116783476009207,-2095.000703643876,1126.3923217959682,866.5640828708468,0.07111654456942547,-35.91350612267449,12.761868856678765,80.5409295963797,1735410568790.0
2.3297397031596043,-1984.3235281917437,1368.144003449619,61.160740921411616,0.057841762748494355,-67.44172248806652,-18.3224021365008,-50.28022570474205,1735410568818.0
2.2085650970673942,2582.211623075071,-2275.9082737145527,578.5949123248168,0.05142252557553989,-57.80547401541947,-26.26978561769079,32.92339072192581,1735410568849.0
3.435766103025448,2262.3374205823716,-1365.4429312137281,612.974091531055,0.04617757533255486,-29.99154912068336,-2.6323084206281324,-15.732138451203408,1735410568879.0
2.6227691686906387,2722.5697726939543,-917.1141511615863,348.5948552254562,0.03517525207055508,-15.092957091164216,-10.086924003002482,37.34652921624281,1735410568909.0
2.3629866678152522,-1826.4711541240108,2993.8432867924093,-292.12112677614016,0.022303257598782194,-62.58649719631853,4.825875487513497,2.531676899055179,1735410568939.0
1.7266130782831186,-2979.2555948284003,179.54532908225804,55.74041510208925,0.06989965973914712,-49.38885327072424,1.7402317822711952,-44.80950727784408,1735410568969.0
2.0949737640265194,-64.82881844046074,2303.385055011875,-746.767440100037,0.05332195669114098,-37.008398137692616,0.7918668567624385,34.63840249012973,1735410568999.0
3.3141388787442136,847.9725189085323,-1784.2836738317155,772.9351711141524,0.06872121945346404,-92.3630373116105,-16.568308892972823,55.93558982717791,1735410569029.0
3.010486259419254,2765.9477547611796,-1896.3744154499693,552.0759034528879,0.03721523649241815,2.0491852378369444,3.5771749600318876,80.25900332222594,1735410569059.0
1.897849495152789,1315.967017007728,-1653.032075074005,-653.837484515379,0.050415067155687034,6.910638717316175,3.2296386239857893,9.450426035385048,1735410569090.0
2.9589540460665877,2807.865939743091,-1029.6325706899088,-55.88031571849821,0.04356900374050047,-29.648745061510517,13.734070614293675,38.16131658378796,1735410569119.0
0.6282502876078614,-317.01874016943725,763.8098307643655,330.53623943293655,0.04848460947620423,-48.45503683201121,5.92504575955134,32.13266736681409,1735410569149.0
1.3801411542681705,-884.8797829449957,358.4801460907204,-36.590925297860906,0.07496552973064322,-30.33235853734024,-9.85771955395284,5.585112028856354,1735410569179.0
1.4562278582678878,-32.90964359352586,818.5463570164462,471.15173436180646,0.05182282854646384,-21.697537152273103,2.5034942090508503,18.98878293227442,1735410569209.0
0.41511085099163714,-438.8379362291133,536.3843578747408,-407.314401861933,0.04395473427219726,-113.76503768079644,5.673133935455594,-89.2113857103929,1735410569239.0
0.3827218014052426,-1058.265432579894,1555.2865808419238,1143.1692007866839,0.05472716696833597,-28.142071740131023,19.879950401589884,22.215080385498027,1735410569269.0
-0.24856555478560188,-224.52644651509053,763.2552907101586,1390.3038950724215,0.07770737459979321,-31.37038326405046,0.3799567479304038,61.124928984472376,1735410569299.0
1.1132759108509054,-135.167039187686,919.9956329172619,390.84441140679473,0.05516771300385625,-9.297773311563319,-3.703775484451482,29.29077020481234,1735410569329.0
0.6397700961513881,218.32229734647012,374.7329869310302,-186.25611840894737,0.05746046260293676,-47.05040818451174,-5.611145122521447,37.83258518175245,1735410569358.0
0.16660363258847322,-468.6001955018728,1952.528617407307,314.5385360674818,0.04955357852448242,-13.852809384712824,6.011024680968627,40.635487550658176,1735410569390.0
0.42407109730845705,1047.5248653370952,-214.00676016706598,1057.4326386417474,0.06922311790360824,-4.807266255539474,3.3290008028230487,29.19037931368799,1735410569419.0
1.9501514407504474,-2525.856057515054,-130.3773443174091,17.551198806350698,0.061576227495576855,-21.272175239741724,-7.518651997570437,28.48837127185045,1735410569448.0
2.102255610354365,-2586.7898948678817,1595.1456572186867,292.6993996297524,0.04816456906695274,-86.85224159308812,-6.808183111875966,3.2357518438160184,1735410569479.0
2.4081138894599743,-1242.5342543946342,-151.8829741244292,-262.7023414773771,0.031017276669356945,4.081178041135502,-15.10329395103171,15.63510052980267,1735410569509.0
2.798077294531185,2945.0496730011064,-231.3893057437599,47.63587190983475,0.044555135059059184,-36.54138833203904,-23.061267197050437,-14.346793196505118,1735410569539.0
3.059813536128355,2032.3865522160575,-1761.6561725886845,144.62255967199485,0.0604539396954653,-17.480261492013344,-9.81975040342159,60.09175961390123,1735410569569.0
2.446134294233654,1313.7166743253429,-1141.3988585441423,184.5751390604281,0.06050803813335197,-12.267482073415398,24.098886853538627,-24.170966790958843,1735410569599.0
2.852938206026663,-1470.662852167074,1151.4011020476419,296.25080552867644,0.053594680648886756,56.30876035238141,9.180490050910896,42.936234499911926,1735410569629.0
1.8781620571054802,-2577.763943869046,1162.9298868369788,45.55947018386603,0.05429828607089388,-29.452404068779128,-9.8464164597721,-13.978781481083892,1735410569659.0
2.6852971471824985,-1503.0462386794125,359.9047844649648,72.93924369490998,0.0629433729077969,-24.052308532270768,-11.636225724153146,-26.67922984741695,1735410569689.0
3.00999731306452,-1522.7550075072868,925.0426520878802,694.2683552608981,0.044854591504626146,16.521713936425535,3.586097204922045,-13.798139318410193,1735410569719.0
2.25985634787146,1836.4246197030498,-2235.8799169287613,1099.0985078466047,0.04732145386332136,-79.93825585592974,-9.868719225260598,-16.84983351983422,1735410569749.0
3.409398016029481,1075.4770410013718,-2846.140931195201,688.0454895332468,0.05828120801396388,-70.42395634247791,-8.865544199630294,-21.699500343152675,1735410569779.0
2.6006305501605333,2009.2444735037213,-1949.6192497102193,2578.4485406849008,0.04740465953505122,-47.664705162805035,15.972702804981129,-27.52616101660157,1735410569809.0
2.2492047632078984,-2092.578506185455,305.2825635567291,-307.358396199133,0.06597339130015888,-72.1007258179815,24.98416012405936,23.555859750560387,1735410569839.0
1.5742158346605821,-1318.0943743884393,1529.7619951448269,1131.141152319129,0.046082248930726724,-76.81496776803749,4.294411320044322,-42.48408787225769,1735410569869.0
1.7342563305196788,-1224.1936044525924,607.6794579496935,761.7391876948265,0.06057580589026455,47.099956231464006,-7.219912765513958,8.871430457757846,1735410569899.0
1.1496223396772844,-783.5542619713344,273.6366577021339,404.0863451377858,0.034123356700983445,-84.93575504554329,-6.796078464273307,-63.31428586921092,1735410569929.0
1.4378382083451349,-1265.5538559640127,-2504.0205211710245,396.33857468758487,0.0563393244919825,70.64629578011609,37.68363619572259,-20.734026242895705,1735410569958.0
0.6643749479308482,-561.4191716608133,28.7413069321737,338.10920877465674,0.04324046894774046,72.71478592547166,-2.2186526385712284,-37.652767478515614,1735410569989.0
-0.25441155853589337,305.8056847373024,6.949383886563453,844.7076004281757,0.05147343645407387,29.89745570896428,-1.5527506549320886,-66.09499000385344,1735410570019.0
0.8330269185950077,810.8719726495154,-633.2497317660404,188.19028300349885,0.04631837503970412,35.60707584864214,-1.3925219361441368,-53.89711025463757,1735410570048.0
0.4117291510762497,-428.5967663559753,286.8961795736254,-119.70627680844949,0.0379880212000119,42.32287656537879,-3.5982836880891997,-1.6567292256665596,1735410570079.0
0.67434732318601,-481.8516941636142,-1058.7228580092465,13.791388485173925,0.06411802580244393,88.22961507698982,16.58778111799182,-16.45734164462718,1735410570109.0
2.188300081904023,-3047.3565300184264,400.6399227055722,-1945.2378775233296,0.05679443013292573,58.52747731181791,21.270078632953823,-32.0783722241962,1735410570139.0
2.7159250761232356,-979.0090482846543,799.0261059812342,-80.80086022478747,0.037696689609118046,-43.78653175518529,6.991483211918423,17.402642918736813,1735410570168.0
1.6541686009537377,-2651.894311147435,1783.8383366603157,-682.6044543341773,0.02962247610497201,-54.252578368670854,2.4094888354539696,13.051633391229139,1735410570199.0
2.130999404590458,2697.299554435971,-1959.015931806249,486.57825592543816,0.04662500451549771,-5.789950300592004,2.9069957822158816,-15.52400109161935,1735410570228.0
3.1975655827189735,1445.8408956578774,-1132.532386269144,-443.86772601583897,0.034162822362974514,-82.96267887648418,7.765095359521943,-9.696107210778763,1735410570259.0
3.3529940248114545,1517.5198677502522,-2432.7046911068414,468.15203836379317,0.04414831239098724,58.368431237173105,10.76799120548393,-23.033060181368658,1735410570288.0
1.9247183673497121,2065.910071130163,-1847.939333183707,1405.4888384265907,0.038365931974707404,-84.2197910789458,-9.83602003834489,-22.141035227659117,1735410570319.0
1.8610694370902305,-2523.363869119477,854.226301408135,-70.83071544730706,0.046370426163947806,-46.280059770738895,-3.024125955356838,-16.01869663876364,1735410570350.0
1.5943506201451483,-3587.5823631432577,1286.4996273677978,281.1557993017104,0.036356633890093165,-13.149655953071964,14.397047524551926,13.234588783452605,1735410570379.0
2.179549030052493,-1966.988165432669,1643.0372825331633,550.6320703646611,0.044092727857370874,-3.2699155130562083,1.5474094561223333,-3.384255450221751,1735410570409.0
2.50970515392749,-2436.8425647906174,3441.676849345272,1047.7131627403292,0.04375429075178758,-112.51260436153927,2.1593587486013064,43.2155979744478,1735410570440.0
2.453577900095548,-2338.970151203421,2457.754873049733,-449.1173111919102,0.042118817709598265,-47.06022132815921,9.556242022349668,5.883199569947715,1735410570469.0
2.3472855745698564,-3315.1798335765443,1337.8052394706763,961.0401771150571,0.039718875132663284,8.916653535664935,18.240528777045178,21.11643604905202,1735410570469.0
