Acc_Betrag,Acc_X,Acc_Y,Acc_Z,Ori_Betrag,Ori_X,Ori_Y,Ori_Z,Timestamp
1.1900134101952822,278.6899964000793,-342.13220787213754,-428.65407052051364,0.04504797483621357,18.54587462207606,13.309809268047509,49.76965780412595,1735410900566.0
2.373746745705464,1675.7666405189864,1062.5437969932732,735.13621542421,-0.0034740748238154748,-15.743170023303776,0.7258726636930142,-18.44002705662228,1735410900597.0
2.6308960231289547,-2035.9492788034186,2344.900184890055,644.1048196206556,0.04243603784815229,-31.122682207899057,8.28264705928857,9.04579148942586,1735410900627.0
2.4238705420774207,-314.657678051709,1746.931440099887,-802.0459107223489,0.06818161396203375,0.5749448337612222,9.175216206378497,1.1955023652523096,1735410900657.0
2.687222488714432,-1445.8166385089864,-504.4215492171254,92.51585199351149,0.06081112381709893,-26.415174777718573,5.866169311191676,-22.15251051272389,1735410900687.0
1.3694391702037452,-22.87578807308978,1749.2963299128396,-238.18892512383985,0.047484241496147085,30.14960251151762,17.178760164723307,71.94701160433634,1735410900715.0
0.8927350171331857,-922.5067449882824,1884.1131188263794,-843.3064137491374,0.02853745261405571,-21.97744796599501,8.903222420547099,50.74128663456743,1735410900747.0
0.14561524061850917,352.7824000847815,703.1579623388465,1789.8306966065495,0.01058823861341645,-19.627292837692742,11.038358417046261,-20.93110932840971,1735410900778.0
0.8348020249738644,-1955.3707665697616,-111.31630591215185,-39.945568446759694,0.04581858071007004,-13.194837484134956,1.3317218004079212,-29.513132886596306,1735410900807.0
1.4556497395460126,-193.06946345196422,-315.95266768071633,294.56169836619483,0.020026122610936788,-36.80649760911912,-0.13789909479716123,4.642144764798837,1735410900837.0
1.7114687187633826,140.3362891553678,580.7087799917183,2221.77341041371,0.04879634269383036,-9.382529419473808,21.523845377246094,21.263997575186206,1735410900867.0
1.2698940575659081,-71.68924089561608,1331.3544509884969,358.66670207329184,0.04793682962080207,-31.18700162852914,18.48236345371822,-48.18099731380287,1735410900896.0
1.2570844548483013,315.9262062227309,1722.8491805336905,-500.2500129252884,0.05738730012137854,-13.665843928363241,-4.549474412360405,25.26835169352132,1735410900926.0
1.6906793133165667,289.9446781691057,1543.0839268588159,-1503.4167402117262,0.05348647458216671,-10.259603357250496,12.01969291911685,35.17303160177274,1735410900956.0
2.6732046785165213,550.4577638741611,1741.607693936689,473.31436073312454,0.030821429707705107,21.05374365188316,-11.407096430172723,53.251934553306455,1735410900986.0
0.807866506850292,329.3496530315962,-1037.8336446276555,1158.7637488058908,0.02170570939148262,-55.53236600849485,7.854597158739723,24.09279216820513,1735410901017.0
0.5953035907075114,358.90084247067705,1244.8658333437002,716.7195361738059,0.044909032625471614,29.388689297130245,5.789864897813246,6.298455065710911,1735410901047.0
1.0582291882914574,1402.2259440253317,57.10249766861779,1526.3758346395284,0.046502419155326796,-19.903084042523954,4.6693599386529065,-73.99933720348062,1735410901077.0
2.301973089310287,518.2136348669346,2255.453676728216,-117.5066946264493,0.05321285374858145,19.42069810007645,21.184111626747665,-37.298906244798005,1735410901107.0
2.7348489863303858,-298.0392708342763,2128.523995103943,-1143.5394643365078,0.049543353701924586,0.47919502470787734,18.90180679412704,-28.07963598991727,1735410901137.0
2.447597100161201,-206.76230158537385,1654.2335909251447,-806.2419778241451,0.01921867281982545,-53.38664377299465,18.93526075503958,-15.985359915449443,1735410901167.0
2.8123711768512556,-1558.3834614828945,2565.49405251489,-635.9390091495368,0.024098531151231496,-36.74169895111505,2.9119946713013842,-47.052613478783,1735410901196.0
0.8851755150353807,309.93273480309466,-495.7733730363931,-790.5263295764086,0.020282947199803003,-27.735750432046046,6.294066373781767,-29.132880965227788,1735410901225.0
0.01900699888776436,-379.65621425190534,-316.90708692421913,83.8737816447715,0.01280016083571097,-90.54687830539889,6.1337129596459485,36.464811201505995,1735410901257.0
0.5076818901079971,-158.55413921028315,-354.4336908325221,-319.719486324378,0.07000718740778891,-75.09816538997178,8.816770427092806,-34.95326338449069,1735410901286.0
2.891775474175789,-3218.04698813713,2468.189543771698,-1448.7330500717271,0.03575160420326523,-22.68009670776722,8.564795043869232,-11.266898705102221,1735410901317.0
2.7861162525557637,-2576.871288165619,2538.165771251249,-1395.319562038874,0.03672513639383217,37.64268758167396,9.544661070100279,-57.42374517219257,1735410901347.0
3.40042067103656,-2417.7429213660066,976.2315262999406,-1437.928500457138,0.044289522496787054,-66.67999105591352,15.845885323926925,-14.160989697479167,1735410901377.0
0.726907281441617,-1546.4146343140008,239.75983396939398,147.54452872112438,0.04735396747776364,-23.03240322599796,5.783007598223514,-38.62369293603257,1735410901437.0
1.0543330705270018,-320.6762247285082,-1189.0026656681737,-1015.2225061885931,0.013275310997994907,-60.15908304146844,-11.116922762347324,-68.42626686450967,1735410901467.0
-0.3723276469404283,-65.57099422671448,-578.5172551329092,382.027668577648,0.031085115000310783,-0.43653193107058996,9.799775250702604,-52.93469082601908,1735410901497.0
2.6000809698779808,-2902.585665518365,2176.24045448831,-801.8290775398864,0.056388984463492484,-15.590324996393294,7.689442324889585,-86.1854781103307,1735410901526.0
3.632573699653455,-233.2219988712709,2815.638852957837,-528.7816951159967,0.011618611647682714,8.073061439496527,-5.572601492604793,-44.523216085712136,1735410901557.0
0.29421385097878827,-223.4615835329682,-33.215347605785894,-18.66304964148094,0.05214727977979578,-88.39520494825419,11.804980284254176,-54.25430894368266,1735410901617.0
1.3696236936342,-440.9354343834413,-80.53723725600787,-2027.7936769974542,0.0338711024659519,-58.60170813230238,-18.02850531377531,4.728043425684092,1735410901647.0
-0.163908132861333,1519.1377066736775,-1903.8158099591042,502.1508463835355,0.04001314548040146,7.053905609608911,3.302817088734476,-34.020584486643216,1735410901676.0
2.6411409977707407,-189.5885707016015,2329.4783551024807,-348.1998227615264,0.05495103134994174,-66.03772614072065,-18.06955278624766,-82.93455463509213,1735410901708.0
2.021140998268367,-1074.7055457727545,1845.308734413235,-1040.9208065565626,0.05511001567292505,-29.141443617519823,-15.529619343668735,11.762778664057727,1735410901736.0
-0.14638575148972033,-220.145189663292,1533.3893271647166,-851.135537817582,0.05919516285182502,-35.83961025454024,-2.2638129290189735,-29.222848117166116,1735410901797.0
1.0409575852642718,539.5607958245538,451.3919204050458,680.3298909910317,0.0293781911573274,-19.258323073237783,15.682354238259958,-16.74257135616038,1735410901827.0
0.4529970397724682,352.14460914188453,1017.3076984869034,871.9255672371464,0.040176272533221896,-49.64348720591028,-6.382027554103875,-12.217556258004915,1735410901856.0
0.47000493252066966,-530.2696473070913,-584.6047254305588,60.8609092133006,0.03756141098381576,-11.338727217193114,-1.975612590056766,0.709025401821318,1735410901886.0
1.8635951669788504,-1823.3024567764812,2961.354080762517,-1141.7347650308604,0.056840953069485146,-24.08340560176621,-19.231866818317517,-27.00240011466533,1735410901917.0
3.015777218722049,-860.8967422043731,2171.216691320139,-200.84830665892855,0.028896761283370133,-18.591877057660135,14.266294039261654,-24.505952090783683,1735410901946.0
1.1355871612988313,-656.2049791258579,2525.749437458927,-1742.6329918420256,0.01498447644800897,-8.213571015079488,11.669281040132198,-10.436387836047652,1735410901976.0
1.2130081948274825,160.31266118069652,942.8073521186236,-167.50489422417922,0.05352424732720807,-62.87386144792871,-1.1995930581366199,-17.524257486394806,1735410902036.0
0.7361244856884214,-328.7974594913721,445.7665916726837,785.6732070854368,0.07653285916058483,-66.36263539952047,8.938796274052182,-65.17655480571324,1735410902065.0
1.9747320253895866,-1781.8270491037174,2350.77922716382,-710.6483003116224,0.02296503698290214,-58.66140075240284,-0.9223936194088544,-11.593922653218415,1735410902095.0
2.1281060699899776,-2916.782537212377,2962.797905388527,859.7050505105643,0.06181246720553556,-38.61040995212748,-30.480261294185343,-53.74225490896746,1735410902125.0
2.0242245152971967,-540.2931003057155,2115.1144911363185,-564.3170773764257,0.038529665926842926,67.20505787887797,-17.729744949705683,28.05246091449788,1735410902155.0
2.4091049838177394,282.40142389273524,1940.0510232711717,229.7271779894267,0.022841604940172386,41.984773117462844,-15.938729756720488,0.9523771549975173,1735410902187.0
1.490422693070692,-1253.3773986724577,1430.7567722535082,1255.7828779805245,0.031191672637390973,-10.972140841823492,-18.397025124135585,30.363658561870146,1735410902217.0
0.6902263479598678,-936.4011704633127,779.2525826518214,82.15318995577164,0.047991630108136826,3.543534582439406,-19.809560821845253,-32.34478867291174,1735410902246.0
1.6263745955207645,-1808.566455030596,-192.45960788225295,-1251.6894308508583,0.07495250073804535,32.80543257384659,-23.358517854450184,-83.40751577615431,1735410902275.0
0.5578145294216601,-189.12171128951138,1056.5234095502542,-837.4014056731329,0.038313839193101655,56.86017946676701,-13.272147283173494,3.388994104863805,1735410902307.0
1.328051625311063,-285.17379975048476,2059.9851900671415,-77.38449181101177,0.05614529184532874,25.751985286907953,-11.576874990429594,-13.697630853073658,1735410902336.0
1.2542986666661289,-978.4752170503355,2530.942379973094,-70.77879530488812,0.048403347311685545,23.828571360695985,5.647197056069857,-21.493034190517186,1735410902366.0
0.7147252718706448,-905.5425343008214,889.8869943491908,5.916479588570127,0.014762717897693824,14.505596871553273,-10.99046967781851,58.676889225915815,1735410902397.0
1.1499716557575095,-471.14228080778565,-243.77486919686748,1162.7041834714862,0.03409903753886891,24.78095083436636,-2.4294073442250212,-36.04880845653787,1735410902426.0
1.3972081339267985,-1439.2750291558634,233.21484381804635,-326.30100668661305,0.04798701857897326,30.85347522359092,-1.0920936320629382,-40.74445917410343,1735410902456.0
0.7565071462605444,-1832.7669453127796,81.42572174528891,-49.9480775286712,0.050165744906614615,56.69557125590892,0.44572644206659806,-9.56316472887919,1735410902487.0
0.00897838203092316,65.62438376394425,-682.9435567564686,-215.0830407411553,0.01862964621689551,28.03986972453037,-28.380980307816934,-47.975486331902694,1735410902516.0
0.9033130450944573,-176.62420959883127,878.5625703822868,324.0190757907832,0.019694994880450102,54.551920499656944,-4.07519748551052,-16.74439881415919,1735410902547.0
1.421931548063446,630.3657619100657,-51.67220446519795,89.2788977912583,0.042874224008220926,39.306976925280225,1.5883526552434901,-26.61154962736949,1735410902577.0
-0.1890885605683742,462.9271852228861,1149.263591817903,-1003.6652976419698,0.025186437560250487,-14.246606927471877,-7.020327849098214,-16.466443037585428,1735410902607.0
0.4385921183290332,-389.29169887518333,-836.7241027482894,-45.60529075050408,0.02658740161342124,27.73612389097213,4.770908372317221,11.940872410488709,1735410902607.0
0.902825975795803,798.7000112710557,666.6981007193941,-1302.6972312810924,0.020680625863246017,85.6187392545882,-4.25190084155161,-3.498523587402122,1735410902607.0
0.64443124814919,-190.48831760516043,-622.0253772869427,117.51461769310276,0.03544594781475277,50.890698005960026,-6.2849118400063535,-15.332136467333985,1735410902607.0
0.9162353575814466,1367.444630237524,68.22759320198134,-805.2634014331301,0.013167814191838313,54.90480516326362,-15.949586594559747,0.5216999628737646,1735410902607.0
0.22338820128436454,-1168.1046275452632,384.90303481132537,591.0950057621732,0.0317335472745974,7.066050685929024,-4.0908725661060465,9.923024611673409,1735410902607.0
