Acc_Betrag,Acc_X,Acc_Y,Acc_Z,Ori_Betrag,Ori_X,Ori_Y,Ori_Z,Timestamp
0.6670877482598613,-1163.5585063962214,721.7988967396645,437.677737584742,0.0232706927129756,2.2170970782121913,2.116527935555746,-20.82261167465159,1735410993779.0
1.521343832973984,-326.7807878443557,-1636.8329404647372,-177.25914005852064,0.010623397550320185,18.06516783027632,-27.696772458996577,-11.638798599814075,1735410993809.0
0.6859070267333522,477.66070780166035,-1309.6754903315973,-27.034712916113563,0.018156340249810044,-3.0704358459100174,-23.310439463111425,3.2746974090960306,1735410993839.0
1.4934865963811965,85.24773262253572,-1416.7854565082043,672.5925194436975,0.021483355872325433,-5.165632436567204,0.11991189222813237,-36.76050859314411,1735410993869.0
0.33702585718959677,278.7107814017494,-1572.6433661864125,1687.8038542081893,0.018613412818655452,17.240394786768277,0.7195948088176443,-6.061449608272659,1735410993897.0
0.9101302444892502,-377.62412015503844,-1251.4868103724589,-16.425561976568133,0.004278932634543443,-7.298464252974274,-3.177439856610528,-13.129717253653704,1735410993929.0
2.0572590029687383,890.60850109016,-383.6885512082685,801.7318838167703,0.0036243463642171778,31.011987146050366,0.852950960183952,26.082966001692174,1735410993959.0
0.8209836669778815,-1933.8432760902542,860.9787054983424,-408.6398338494066,-0.004080955502572757,20.95553425397665,0.2476357289087932,57.48886054227542,1735410993989.0
1.286640205198632,1108.0075304120858,-1493.6082242030259,176.73064737945947,-0.017780431708290627,44.10054527456464,19.603527845171392,22.086522505639905,1735410994019.0
1.773470881506328,759.6631472997537,-1214.9262382067827,-847.5864299255604,0.01678405934290256,-48.65565071232845,-2.6011192540314134,-17.33880693404947,1735410994049.0
-0.2300009738588984,-295.1948328030305,-223.63476096216408,1543.8149747166144,0.0033643953204193326,-8.241343239154418,19.074656344294496,7.1757070409058334,1735410994079.0
0.7443243870649233,-495.48730646121896,-853.0019091395685,1125.951550799379,0.0031327974619108174,-5.1935197491744685,2.9608002486399596,8.383792508307254,1735410994108.0
1.414726318785469,383.82084977113607,-1546.979603317991,2290.233333467279,-0.012088062704193974,-37.52530535666084,27.71037821302137,11.939616077303892,1735410994139.0
0.9950316828421115,-172.4157794034485,-1078.229255176289,983.2699817455607,0.00231143733195366,4.906458707058379,15.97318578878538,-35.05936792758759,1735410994169.0
0.8130638021510356,-439.4148588455545,-1594.417395064879,1057.9974871364445,0.037874672348799494,29.00975850363251,20.88574994128022,-53.945644335578564,1735410994199.0
0.7871410285878884,1226.9130226301224,-1310.161623199152,1224.2130152963794,-0.013910041017629788,8.927480570714383,-12.623294962652498,17.19297923667876,1735410994229.0
1.4598305325290588,538.6974268529738,-267.0136782693812,1495.6972113026159,-0.008076359858588457,24.904391903729067,-10.783740942974575,32.93639842753286,1735410994259.0
1.0460711468060437,-455.4841537839449,676.2143501341209,-395.16083677389975,0.01331578001336579,28.81649797168757,-19.16134244092497,0.8085718009594542,1735410994289.0
0.8387394868145092,-1715.487195592143,-291.80493472373695,1411.3313234340378,0.030636121368625792,29.936617819336718,-10.260295509687715,-31.622725561422424,1735410994317.0
1.1743015034294957,684.0518850256377,-422.8898208452259,570.6027493893885,0.03837240547781986,49.90748645950432,-1.464639449663859,11.790983360589788,1735410994349.0
2.195308694701132,-23.11355744457751,-2045.46984731207,-146.29483601827638,0.045232014507092036,29.758533050131028,19.434847877329403,14.483102982621642,1735410994379.0
1.3969022308651236,-596.4615532895793,-1614.9747065358988,-612.2588886869523,0.0394842029229975,11.876103897568616,25.178816702907582,74.85635353108381,1735410994408.0
1.6740582032473879,-698.275386668982,-329.4018366301135,401.4103510861713,0.03319811557013661,-40.13467008787279,-3.479428420367765,76.83667452592955,1735410994439.0
1.1310011718953838,978.0945735179007,46.415861325031415,79.51673125827051,0.024073959372426387,39.90848729292344,-10.285569311367198,13.95407603425056,1735410994469.0
0.7068508557582623,-1120.1215863899047,-219.47433539719782,-317.08078685534383,0.019990595971679116,65.47469282316675,-10.891767583013149,19.181119037732294,1735410994499.0
1.495244646036018,-93.23108258723693,1099.4200864125235,33.858927154938016,0.034480778639595255,48.58529561561565,6.604471030802242,-3.1227733326746394,1735410994529.0
1.331441048936054,938.8441211877223,396.6963178008259,105.372558885845,0.05624828557040403,22.483631000409865,-9.84908850931015,-80.49037821138153,1735410994558.0
0.249639459134117,-290.52100229524376,-2803.4371654203123,-549.7801491970829,0.04967668862618896,40.01736745882878,-0.9993143679664325,0.8929108631323359,1735410994589.0
1.729538687984303,-920.1458039125297,-131.65153624841082,-360.1629349993862,0.06090742244236218,35.511437143793295,-3.5422780303395225,-41.3856796463005,1735410994618.0
1.244992044778747,-1436.2942042998034,-657.8223260537002,402.14382894957794,0.04840004029790126,70.07037983922964,-5.913123213774728,20.954166750891638,1735410994648.0
1.4582976707689208,265.35405819795983,-452.82858238605513,-982.7714752179809,0.05128846038114066,86.12777365790599,24.033026184923084,54.250554176906775,1735410994678.0
1.6259718486377142,-1764.9345151779112,-1666.6846725667767,-1026.2415710976188,0.012587817300725813,20.578449933782803,16.489514300513505,71.95032868042846,1735410994709.0
2.3355090863096866,-1450.492067429896,-1689.4631476315672,-520.5976006881964,0.03410935115228553,-28.263997676660395,17.07983879845551,59.41808656638413,1735410994755.0
0.6282871388888482,-1207.8154403828587,-1382.909857772906,-739.7264286534968,0.010752230187442431,25.239187083707428,-3.0795907676388574,-8.20544923962204,1735410994769.0
1.0971506934386432,-1272.6129393641231,-1442.925305393881,587.4520914398249,0.01624954582205031,17.203904329909143,0.34929880706328653,-19.42026343857648,1735410994798.0
1.0127409417004594,-903.0589136470164,-1034.7318764681625,-625.5169307822719,0.02425422296647628,36.8036117292013,8.920744456592095,-1.3615490428926043,1735410994830.0
1.1693904972200093,-555.6011023675152,-1043.04363983135,219.65901794986632,0.03928138840098053,27.851677762753205,-1.0678762416197194,-38.8846954172899,1735410994859.0
0.880669885234498,-2887.8352564870106,109.70678690082116,-2381.6718018750594,0.03456968347411313,72.81169516791455,11.209314573814718,-28.78039998940269,1735410994888.0
0.19139247263655335,-1990.716369406871,-391.45185354314145,-1048.0250121885842,0.03459770463789159,105.6972226825437,-20.745303746572596,-5.376527887417247,1735410994918.0
0.11391832325688511,-358.05087836552866,-1150.7399240665563,-1376.7738714333918,0.03584212016445623,77.914355108417,4.019150488283165,6.218153674065221,1735410994948.0
0.3677185744444186,-199.92054888964873,-653.1587576467003,1272.385255459897,0.05120168661008424,34.25276296909196,-19.542396123884977,-8.578039393122143,1735410994979.0
0.15348646120509946,-338.89691958188007,-933.3774257591208,-117.76225270220391,0.07232794203313435,36.67320435657663,-24.10880015518591,-61.847569713415986,1735410995009.0
0.29204167331053954,837.5475441276676,-297.1831051653369,-162.56631971612458,0.04279455175726829,81.09905084375657,-18.979876561089554,-22.657318430761965,1735410995039.0
0.47192661161921695,-476.6439869739373,-491.04718276223326,449.82151107908055,0.058277326745075915,86.36534841378271,-2.887407121305041,0.21527050676625592,1735410995069.0
0.2960165353500128,1056.196182359808,870.1353733070559,121.99897039128109,0.07002538755895692,36.208828430454155,19.43706490888816,32.28798999510343,1735410995099.0
2.02946216039673,-2034.8871790684495,-1396.4565448482463,-1119.14127272644,0.040190344216789325,-35.71362028933518,17.22578173580989,-57.095101204270776,1735410995128.0
-0.3177556195808866,-2079.071695114889,-353.6227377515396,11.465733142761792,0.018384218751976968,-45.82812913709168,19.05877605401633,-4.237125767639208,1735410995159.0
0.25383487593522336,-200.8754835225098,922.3018037794284,-991.621921048709,0.0494356455413011,-50.59503029507128,18.722236168378526,-37.12949534243812,1735410995189.0
0.8144162245440218,-292.36909099032863,1009.0789367530615,-969.0006903164451,0.012729163058786724,-3.7673222925389034,-3.078363676724079,-4.182107616233202,1735410995219.0
1.8608611580862218,1642.1416452252602,-49.28388747872471,-993.0185287052482,0.04822618294312521,-8.199399027685775,-15.725066243904227,28.026491181033283,1735410995249.0
0.12808723706169967,-765.2687389148351,-805.4776039512617,-145.50814921693177,0.06016514391093976,-39.52382552825958,-21.22251257605236,23.105064580793133,1735410995279.0
0.7879197882352053,-1423.9451137743417,-1708.427979670481,-176.72045915941442,0.06511610357460827,-61.862683454691535,3.1584132055949503,40.454003582355924,1735410995309.0
1.2750701975098988,71.41110429008643,-99.47939582592613,-131.0512095900226,0.07181626709335728,-58.13504972222972,3.74807571467058,-37.38883120825899,1735410995338.0
0.3353347157796239,943.5729870010638,382.0791042437986,-116.56069400923275,0.07059124514730378,-18.790086939332618,7.531129673696223,6.4641086761706035,1735410995368.0
1.4305463619689387,-745.2388869686773,426.4719082174446,-597.8054246823506,0.0514980660229125,4.54685550973252,21.65624239595024,41.97572643535196,1735410995429.0
1.1195361272825073,22.82886225025304,1252.982748862378,-1940.5261074115897,0.03517835343135525,-3.476266223580428,24.549261233033118,-11.897250118749271,1735410995459.0
1.8441730306292459,-349.46397633116476,678.1440976825718,-1065.0125703809063,0.028939570773417418,-32.95031562843747,0.9359624363280057,-65.6690919100736,1735410995489.0
1.1587163711338224,1054.1201687324965,1882.4693389433487,-1603.3670081568498,0.034771790731971994,-24.749823218937326,1.9521499162264497,61.88351843705005,1735410995519.0
2.053692572504562,-786.5292276342959,-113.05485014747336,-1876.4634969582494,0.04831953663642897,-65.9620814358935,-12.804388368768759,16.880482706749536,1735410995549.0
0.42636712874272525,608.1883251896791,-217.03184398919274,1553.060451929549,0.046080255008201544,-34.36440800942834,-19.093497507285253,53.201400890090305,1735410995579.0
1.0681705543991682,1205.380133420384,515.7649950698581,-1949.5967547530702,0.05387535667253983,-58.258441300777534,8.285287467214669,53.470443630425,1735410995609.0
0.4297579377237186,-548.6386769048893,1665.954331173545,-898.4025281629386,0.06759380131542723,-54.22563930628564,-16.312840394936572,47.7765457699118,1735410995638.0
1.4127170190073173,1706.9048453391742,-46.3345130212885,-1554.7130846552507,0.0337752212818503,9.598169502160154,-21.1627945725865,38.6158576410089,1735410995669.0
1.6564159704823465,450.319133095373,-99.76991741808905,-506.82308497818264,0.060018243827460044,-27.533993457601113,-16.58641210000895,-51.248752660372794,1735410995699.0
2.0274978801963623,1108.5071807340082,695.2897858744045,116.3048181977872,0.004309959896253383,-34.33684972368426,-21.17936268604141,-16.61169703945204,1735410995729.0
0.790889643743033,1670.3859381570041,-85.65437441258962,-1104.534896984735,0.041589052547301386,-15.478224603174535,-18.969154715045395,23.825532665969376,1735410995759.0
1.7976747790813636,-744.4894209798044,359.9368708458884,-1095.6259371666056,0.04514457759386471,16.477630236931056,-28.162066534964456,-11.672468514405141,1735410995789.0
1.3329809718598298,-383.7302153136411,-64.87957141031609,-1412.294763027321,0.04831201426694121,18.23244983195157,-21.514756146806132,34.0559261049684,1735410995818.0
0.7841801524518157,813.4924127900254,-118.2015627788661,-1075.0753357828414,0.04795663215523903,-16.40565874397225,-13.191321569647688,8.32982218152986,1735410995818.0
0.7382029606416642,960.1633915905547,358.1228093299837,-1689.7311002303388,0.04852037467501064,-35.04158850523594,-22.70837602944643,10.01239975622352,1735410995818.0
