Acc_Betrag,Acc_X,Acc_Y,Acc_Z,Ori_Betrag,Ori_X,Ori_Y,Ori_Z,Timestamp
1.4501551957818624,-225.81751231220005,-229.8341292623827,-1010.4393456922808,0.026301405152893108,20.26955684520798,2.2144502421356065,-38.47525218895925,1735410809155.0
1.5092863903727394,-635.1437268067716,135.57950821568176,591.0876385606313,0.009504500047391541,42.08307652476645,-8.266351459809382,29.71327134751872,1735410809185.0
0.27952181437976087,633.3005925087032,1565.4662075734548,-74.04177722060314,-0.006490149018136347,-17.75947405356937,-7.21040069062015,34.37242226882561,1735410809215.0
0.5495948241055735,1078.47144189997,774.6545380654197,-194.6376340029778,0.025724038513979645,-7.633338893826242,-7.567707875216466,7.700074169101313,1735410809245.0
0.4105293434573124,-533.4643991639034,291.78522346337763,235.21465981528712,0.025165104916795276,-38.93754010036139,-10.053561551403636,36.83384879806239,1735410809274.0
1.5338988926801131,709.4411322537657,684.3693310838278,-169.70132868773277,0.05215066721527071,-31.42384846904334,-8.840222892766791,-21.828315995995155,1735410809305.0
0.9425849774282234,2199.8690964205825,1472.2172316922329,807.6580488076303,0.03453618930779051,-46.71023355093281,-9.196454075207312,31.656319661802154,1735410809334.0
0.9058222358081274,2262.4627465861017,1207.607083039392,11.08354830919717,0.004192557870716637,-21.45333009073114,0.3693515642578675,40.4484549686824,1735410809364.0
0.4571501413775957,378.0553906248054,-109.82742953244144,1422.0751700075205,0.010279273232181394,-28.061717882316913,5.144415722876119,3.8727378500052634,1735410809394.0
0.57908865074774,1997.5607520613007,633.9925832502933,886.7924513663347,0.0073897431666439225,23.518363534977432,-3.82678398139141,-23.893139834857937,1735410809424.0
0.5282629705386888,253.2773651020342,478.7940594089059,-518.0139845686471,0.016592892666545567,-10.287898746235989,-3.0021685860868152,-3.8805368555739417,1735410809455.0
1.1594042537428961,-176.31522108068202,18.169691078886785,290.52913582772516,0.008619003257629813,24.6224073768728,-6.894402258029144,16.232824648788963,1735410809485.0
1.9926349284187013,1312.8249113104594,1730.532173940765,-779.3075018086665,0.02156707188561895,-59.17800751663259,-6.873187078299876,-0.5928432879272829,1735410809515.0
1.5487671815257984,547.9673452834771,667.0526584489769,985.7523809706728,0.009239234429888298,-73.58361774456826,-13.327546997078736,-20.142914611107827,1735410809545.0
0.6152926807902788,184.8404868871412,1339.5019997352024,-501.005534487402,0.021649595513197256,-20.10242799986142,2.4589201015422306,-34.05364737520811,1735410809574.0
1.2542912223225182,230.39411969777927,1705.2197910387197,1348.4411808942154,0.003125649014475304,7.2674526257554355,-17.938033455180836,-11.14849306965409,1735410809605.0
1.4251903286436176,623.0164892041325,472.7468688079983,-43.12243667252932,0.038848536093862976,-6.898684256926162,-2.5727895312855367,47.643309670824124,1735410809634.0
1.655825580213296,1796.99608768016,162.52247514684188,-1067.4085937093437,0.007942193684920697,-25.485373854917665,6.422446989682956,-4.69550034308917,1735410809664.0
1.315184579913794,1112.869816666228,1018.6729600954268,-114.68499199391869,0.019723948444880894,0.258598340588712,-6.2737945280556975,-29.303461287051213,1735410809694.0
2.106551944455039,1068.8728045157175,205.83904989380648,1004.0397056531889,0.021512375824172952,-17.44310707767343,8.819451507178098,-17.996452775477234,1735410809724.0
0.9422634251084333,-678.6162081841533,122.37317938262908,-277.4680417742687,0.03100013041493814,-19.43093006325401,3.784133135902433,-51.748622744787255,1735410809754.0
0.9983189559598696,687.0175772138275,1427.470349506685,1176.7078406337419,0.021205592149945017,-39.31598227956319,-5.91280896208257,-5.003701032018419,1735410809784.0
0.4862612682996853,-572.6393030697172,-1404.4238303231054,-497.2169098785986,0.024745288964266275,11.060401537573865,-2.594954107730315,-55.38871806226134,1735410809814.0
1.276141556585079,1800.838260743532,528.8953438777216,1264.5605105880393,0.02087874799701128,-41.382144453062864,0.3446179440863675,-8.404354434701304,1735410809844.0
1.1849343110644304,612.6494863670615,2096.6811328496806,-38.48772790420253,0.017944014904387025,9.445055349016746,-17.535055063237767,-61.99446690147806,1735410809874.0
0.2951871777990883,1336.499317657148,-1054.2241627180472,-337.6497581166266,0.037308396374048355,13.506589377199507,9.490636761241019,-37.628208672584336,1735410809904.0
0.9282403030792874,-847.6003528794135,-306.72223103699184,-192.89427952401007,0.017737374164799993,-50.54627725368556,-1.494996372021822,-70.1408177863087,1735410809934.0
0.6350988226747557,280.52355974421437,1323.272329248387,311.7800015725299,0.03205665759498187,-34.92544710019853,-5.022960798908514,-25.31536293583293,1735410809964.0
0.12312600955079822,1272.0241674903218,1146.7873855659905,27.628742214154784,0.028154426651448187,-0.24188837133804242,-16.692666134320426,-36.6676154906318,1735410809994.0
0.7973201974924894,1103.480057188654,795.0361080734026,-250.647157671454,0.015629388679508097,2.2727878163347466,0.5907771870651188,-18.28648335361868,1735410810024.0
1.0151518589910928,-57.9092482189717,436.05037408265184,-282.72252785195656,0.03474875352205513,-10.162823845923375,-2.025072966105378,-21.90067325447008,1735410810054.0
0.9283332847028971,2539.5757007875586,584.3434258876317,-828.8080331066815,0.024164904762881488,30.388145878816452,3.841962730501548,-22.709137687423965,1735410810084.0
1.261635867146082,867.7656939532525,1425.61514876591,540.9595522706338,0.05700602964504396,-44.6142929075981,-0.7205564943633337,-60.7638875831106,1735410810115.0
1.2768653583310063,1311.3481579124946,199.86212852684645,-258.0941967915818,0.02067229981826319,-38.99097826440454,-14.530239102328034,-19.613238418328674,1735410810145.0
0.6252460666177926,45.73805520670294,722.1663053455862,748.0090832381854,0.04134513211601394,-52.39011849061875,-2.799751059525499,-40.15491099493482,1735410810175.0
0.860789638092403,489.9241368519597,1467.2633855384233,-694.7478288685502,0.025352314896046318,18.387468159041113,-8.124583017940601,-5.926031520703106,1735410810204.0
0.646819278142416,783.8429804836592,-728.4744138782992,1413.1106475328993,0.07800425274797344,11.263558658764284,-10.991402339819878,68.85738143701249,1735410810234.0
1.007754667598003,1639.3207839786128,2938.052485206943,360.86803781143794,0.034006078459272546,-39.08988349151615,-3.112737855331105,43.22224885486022,1735410810264.0
1.642794456543156,-983.8743708306888,1126.538617959195,384.4271522850555,0.06511640226343918,-54.98964064987872,-9.323479024065502,65.09005370754637,1735410810294.0
-0.16647191798015726,-313.66541799349466,-1210.1018697778165,1020.0057307234554,0.031195190847905965,34.391496844805644,1.559326636263431,29.88597116734349,1735410810325.0
0.43581083014662114,-675.9647104919272,-706.4035376690292,2260.823452667939,0.03775333268908612,-24.041636177709478,11.146267203420997,68.15592200369348,1735410810355.0
1.0056033437331544,852.6595560905887,1164.6623538529734,927.2618726762483,0.025918730501107927,87.1019034497518,-12.965843199911749,18.903584056973944,1735410810385.0
0.8747910393414906,1356.5235446304498,1117.7026702983305,-235.02617563468823,0.039572495908268064,-35.47600936604553,2.9695902633250575,47.984088159677896,1735410810415.0
0.7501293382774079,883.3578594474969,-96.49354892657664,773.3671461764777,0.023684554099424826,17.824404972554728,-4.405380935425901,83.9801444052728,1735410810444.0
0.7949921920884321,751.6191924315265,377.3538360703292,-2.3464945580255403,0.0367873494177771,4.348797920398528,-2.7896653422711153,75.42555733425823,1735410810474.0
1.8837026659196532,-187.06452079467704,719.5695204547255,-112.00370015363495,0.02550222400125316,-13.783459496010284,8.47072901403877,42.561053689651104,1735410810504.0
0.9263413727471131,968.7614649937465,886.9753723664812,173.51798837426344,0.046916439963447944,-53.89551177882104,15.235309986788966,44.74522960438761,1735410810534.0
0.7912034336708698,870.1052813591837,-473.1987556052636,10.219759539761867,0.04477004166529709,-23.171907435797667,-9.857602586460152,3.4586522705041816,1735410810565.0
1.2565592840052648,506.0745540041055,655.6673351504087,47.09516508688293,0.042936424836369114,-13.113658942931558,0.7743368979332412,-3.1742009038878045,1735410810595.0
0.4519434563056369,1440.1533548413254,327.2381973763298,510.7136726037549,0.017291882393562837,-18.71508720455377,0.9276151869073919,37.97728186034601,1735410810624.0
1.061513779534125,1100.5807734594734,2293.7835997267075,931.5919248240124,0.029932765033410785,-4.654617882700877,-16.148221318842396,-12.238666197076924,1735410810654.0
1.2467502635135044,219.27782375359368,1207.8926299841191,-448.5286531803978,0.030812641261228173,18.898711921701032,-21.914629519624295,35.068057981597256,1735410810685.0
0.9841652718816717,2178.3548567799144,1025.9505178779718,1837.4010735774184,-0.005580357545631583,-29.59147817639729,-3.407579020928291,-21.00009545886858,1735410810715.0
1.8632465612469307,1290.8098508866547,1775.5839309750475,299.66847259346474,0.03806331869898218,-18.89416487152492,-3.0629226924242294,10.435327654416898,1735410810744.0
1.6556360369533074,670.8452617010778,499.9607204688139,-159.0079161969561,-0.028833494599490986,16.894453334444265,8.00608980564505,31.44641237944653,1735410810774.0
0.7271151142124617,-115.83340756188204,1292.6852078163201,558.9888347230308,0.023617181615796096,-17.966628232069485,-6.376009930205103,17.312200853639304,1735410810804.0
0.23984367925659134,-1214.8912119085082,292.0636466567541,713.4048342946829,-0.0013212565360689026,10.634136615909702,4.008909615132639,23.20739495730573,1735410810833.0
0.8148601012412585,420.3157348905587,358.78229044939803,513.3901968978681,0.04161980869532584,16.96762704758637,5.2821570129656905,24.413726251427104,1735410810865.0
1.7196836936283277,2294.446314120104,446.65817395402064,-1845.8523134166667,-0.006881789056930562,0.1099997096130032,-0.5221562875643077,6.273789518356386,1735410810894.0
1.7992551567691972,183.04513722494335,707.3985099201482,-419.3166883040526,-0.007605571713678068,36.529266238408056,10.415000246080814,15.58438093555388,1735410810924.0
1.6365019234716294,1210.3967677934788,1014.1748697980195,-287.911471377014,0.015329456959099383,41.598520187549,5.587039995342527,54.77705319780329,1735410810954.0
1.0991475972688605,1050.5328697297055,-1165.7296750264243,432.89188197641477,0.008390257606292185,-16.066303929405613,17.812073122839543,-24.06866634826738,1735410810985.0
0.7645687772973019,-272.26559590161037,-262.37842547900016,848.0239928132052,0.017087851572536648,20.66959112322531,-6.3736545346392495,-49.678124127618446,1735410811014.0
0.6271529839861989,1724.5722803813856,-159.02630358718795,463.2637975741001,0.020215956184001446,-34.22533323309195,2.8071675110895074,-39.056237358924484,1735410811045.0
0.7667476042192376,-1618.8186505118629,502.3084925851795,298.94132031087264,0.004878159424665856,7.170640415887403,21.97889783790945,-40.64391823913163,1735410811075.0
0.9585648180745956,1552.8425533368732,61.19024929731643,213.1127731217074,0.0004902751641482524,-11.436751133257614,-0.0013433584283015776,-28.32436369045225,1735410811104.0
0.20624778298365387,235.97109954515054,1198.8195208565621,1335.9867798504208,0.05482540237865001,24.90180495354815,-0.9699548919039727,-12.176773534502935,1735410811134.0
1.4246030860077665,1193.6801724940087,-923.9180438302758,-352.3722791330533,0.044226624648828206,-9.50817246425871,-6.4845168791031265,23.218762030551275,1735410811165.0
0.11822118716492858,248.04313899324177,318.38431034334656,760.9261624370974,-0.00510273700282678,-25.68840317415988,6.698980436374599,16.667272790792605,1735410811195.0
1.0133661871974156,-533.1446848928583,1053.8889894705046,798.4796623545458,-0.0042152173742784176,-4.236474981754922,11.662405354414373,-54.76084576749858,1735410811195.0
