Acc_Betrag,Acc_X,Acc_Y,Acc_Z,Ori_Betrag,Ori_X,Ori_Y,Ori_Z,Timestamp
1.15053608368133,722.1641467080626,1920.8829752856109,-18.258099187484817,0.0737114609579757,-7.96753925487625,-20.032200716287615,-33.16160792020426,1735410533358.0
0.22682508814126867,1264.0984230567954,1985.6337221508484,-444.1657505923896,0.0567726380994491,-11.249646100413736,20.597316186054144,28.09040216316751,1735410533388.0
1.346546308013693,1368.0795134122754,-450.2484100383448,-132.62504575280684,0.02087012834110317,25.550030213002636,14.174913824055858,-13.151521353694726,1735410533418.0
0.547122260760138,261.854701970371,-196.48281679015383,335.1274871931444,0.04501216290588352,45.12047289221224,-2.450063948230989,49.941337750154865,1735410533448.0
-0.43236028292337814,1151.4745177113587,-979.0176508296925,626.1290458025032,0.01843314272331083,42.994578375756596,4.86294413667204,-29.8767879611222,1735410533478.0
0.48379505595476247,2386.55657006431,-937.3015729573675,610.9890003133672,0.013731725069247885,-40.33738008430046,-11.521127490719628,-45.072465339863726,1735410533507.0
1.2723329674047976,-26.477941695363825,-263.64105332434485,-76.31641771758484,0.010081545841940733,5.561644175495365,-27.632333268686136,-16.515466222980564,1735410533539.0
1.3992976427662986,1257.2786506351608,-999.490974079242,1734.4230681655458,0.03469526098670154,6.656432754281601,-22.066642144943938,-15.694114592314756,1735410533568.0
1.789316670609405,-368.7537046760376,-1658.7130958386351,431.596126400013,0.011373755208725796,-36.739428272048414,-8.754386814892339,-2.5757535774224944,1735410533599.0
1.4953980509129305,-361.09836884356605,337.50836837246027,-291.80684442086897,0.02795861523687089,-46.10830899056831,-21.089380440880404,-17.647750615680962,1735410533628.0
1.4076382774097747,247.6465676329008,656.1358393200475,-599.7773429476672,0.025769225542282424,2.5716211739744095,9.51259031897575,-13.687099046613184,1735410533658.0
0.7046688888364454,2.5064590103187356,648.5893748579384,591.8660540370907,0.04179933575593309,5.070938960585731,8.44128703404153,42.87827866135668,1735410533688.0
2.0973914747349927,1339.8592965465068,-2321.2372993921695,1131.0058991658473,0.0033281033834945753,-15.024568729839455,-15.180580302659383,30.072083242009164,1735410533718.0
1.0445426633068964,418.0973287167218,-970.8111418508308,-577.7570600811514,0.037163603572988965,10.778577520858079,-15.003004206926487,-78.35008295538191,1735410533749.0
2.1138258188779484,1935.1275358833107,-362.46078785028544,1102.4047499426845,-0.0019134460391489055,-31.829206021082356,0.9163840871382405,-36.71891488936734,1735410533778.0
1.337170237612248,381.450405610559,-2659.7085451674297,513.4357727501537,0.020637731012453954,-7.453763324972746,-0.37835315762712085,-26.73214307028956,1735410533808.0
0.8308768765172905,971.9202437080536,524.4373134558069,1148.2184968690012,-0.015007695907498468,22.768263301518516,-0.5017696188986065,-61.016073653213844,1735410533838.0
1.0120453452799292,517.434351574039,-57.56335403570673,531.8501023598528,0.03577206049857712,50.52120454928376,-6.401682783669994,-33.52341428175797,1735410533868.0
0.5115498807442427,1118.0925697924092,-1438.3124948721681,25.77267400651499,0.027560691750022,-25.257314492641214,-20.47753907456679,37.11068492004975,1735410533898.0
1.783059088114066,991.986777118175,908.5686941122198,-930.0605804168813,0.022676899662652586,-34.86476281319641,17.891233418215567,20.94621913529373,1735410533927.0
0.9906807122433756,2709.7431036937905,636.402433705873,-579.744019057388,0.010174267376516492,-47.97907503759336,14.03674146408092,-40.179802131902804,1735410533957.0
0.6406201877633918,896.5649387557031,75.14666779190077,-125.65502789602562,0.03681882112485923,-37.96727673958729,-37.344209724325964,-54.11665576429748,1735410533987.0
0.9174359547160499,-331.67109796215743,611.0776730487978,845.9908390847279,0.01406062585606406,-14.35301468211223,-8.501733581556804,-61.403971776254416,1735410534017.0
1.6300677491258635,-546.177711477346,-1647.2400273301566,118.23278845301684,0.0308425781370035,-18.347165962046514,22.410818554844365,-1.0439436017150852,1735410534048.0
1.2369314489810712,-188.03389178904064,-795.2477100167434,1292.4950625127317,0.04368757372652207,13.533175663794893,-11.853841173808625,5.332433366670752,1735410534077.0
1.004496118511186,-691.7194258812257,-4.524579201586221,59.07583955595146,0.03387582796479953,25.72677493394115,0.7419774253083098,-62.5787652135288,1735410534107.0
0.14362683300092383,337.8168565100888,-97.2059769148826,1375.8673865168055,0.04282391138512773,-3.283367227470485,-10.173542509166783,-11.483396184485187,1735410534138.0
1.1072134347106113,577.384525768271,1276.9831478020817,85.04237129783581,0.022772518067524217,10.487832399223,-1.3678121500016691,16.188909767454255,1735410534168.0
0.9243114520765704,-528.6274367904834,469.74071859197727,-468.9427705167468,0.010309744398061118,8.040597732314113,-7.301160202652815,26.788930350246957,1735410534198.0
1.884976166981256,227.85830160109185,-115.5124337559676,2317.2016685716408,0.05112652919247229,8.522683533372955,8.478005590249793,0.3447923968384998,1735410534228.0
0.622556333615607,767.2056238530034,134.14756265738217,1348.234776982968,0.03605753396798189,11.817122099383788,3.606239061620353,-17.56038310126533,1735410534258.0
1.2604304028121351,673.4877290496546,-25.620906608502253,565.235907523013,0.07265568819174445,12.792922212448904,5.449561982746247,46.22769966175426,1735410534287.0
2.212468478186362,1337.7173232163632,-1440.8811008585774,-222.50173796019294,0.05666189955147573,5.180402243710212,14.838555800589972,40.599743449208695,1735410534319.0
1.9605937901618866,380.5557026632109,-1436.803843067434,1520.3692779374178,0.015989629372943917,-19.90415594581424,-7.990802511817268,-16.270588639026904,1735410534349.0
2.106644444470708,-1933.7343245374018,-906.1840988604872,-250.8292419944653,0.038646508683737715,-22.796209096715053,-7.913504386401421,-15.419458110449336,1735410534379.0
1.6792008350600525,-1094.9633691934434,-2169.0477069714025,675.7574787847939,0.012149361210879327,4.641168980226392,1.726905220298935,33.076459190651505,1735410534408.0
1.506432318734285,2056.997023728771,-303.1858735943299,49.35525318102407,0.019368937610760473,-66.18044471307627,-9.969274621530635,18.863470829367817,1735410534438.0
1.1730574209349542,1312.198004730526,80.64070861056769,1175.2058722391248,0.022319777268065437,-12.655205982827528,0.04899345719959758,-39.33604259935532,1735410534468.0
0.2202394833341793,361.6231607073139,526.0138637284394,460.030512466006,0.03580172669477977,5.258162347837066,8.233489036583794,1.1542518007147322,1735410534498.0
1.2321342207630641,-216.31482189350731,-90.41668329738064,441.5553004530116,0.031003487380315973,-49.84667608440411,-0.02769559480402517,5.783026662946906,1735410534527.0
1.5811367728166648,555.052235175458,857.5168051504638,1389.2666902139956,0.01942957028453152,29.996146327030587,-8.320089458597902,20.150955571806044,1735410534558.0
0.5165463116151316,1430.871320631708,1312.290550529272,1099.552303425146,0.033594841908223885,-10.929436381331602,-21.67217963819717,3.4538679129030463,1735410534588.0
1.8973364481402946,454.94918760854443,-2066.1326045844735,778.0371879011741,0.060598502623591684,-6.808092460251691,-18.638497460454513,58.06382813826454,1735410534619.0
2.4166747461314704,111.92017768287053,-1219.004489122929,590.1119379109546,0.05002723204375217,-46.87401987733084,-31.083812642873312,-43.425192005776026,1735410534649.0
1.0414593552061624,-2253.3950624298504,-1593.314179284001,947.4425034092342,0.019395570323599575,56.7900443528166,-20.42993322756832,-40.01023967094095,1735410534678.0
2.347186461455414,84.31191394448717,-1518.3421250481313,1077.9796243613341,0.029726088842770348,-24.31259071396807,3.646410543049451,-37.213549574456,1735410534708.0
1.3837660364479611,1132.8171705188654,-1170.3971622774827,250.8256043128979,0.015119762196070512,-5.011266718679968,-21.71309602273295,-20.470693174205685,1735410534738.0
1.7815413202822725,2404.1758554020935,1114.1730505041378,1094.5696280687127,0.00961884154559492,40.134526460675545,1.672273093302211,-31.277169856633634,1735410534768.0
1.4327319868232207,772.0284435202528,-844.909383300037,-252.3290983918854,0.03611928246948009,-6.273424800359859,-13.40534121716193,47.51025421880639,1735410534798.0
1.266465652842122,546.2404149436605,147.85300256366915,183.43945628797252,0.05494581032425899,-55.68152914430071,-9.715303828731122,57.76351951105033,1735410534828.0
0.9785284594734415,88.56934022970995,-663.3036251613868,-737.6149656478879,0.051468837828868734,4.033893312406769,-0.9796444682637875,-42.220926349115665,1735410534858.0
0.3361322515292847,1719.1111792444754,-955.760534751929,-59.14459536703413,0.05372787326727236,-27.659833035469283,-8.261084303724756,-56.92280282264964,1735410534888.0
0.5771020166690528,-268.4365673466039,-927.100530490653,1071.6492807356617,0.03400549368786317,-3.7899219314881845,-6.232029671732425,18.470583297685554,1735410534918.0
1.3476588401519316,91.78384737480877,-2179.801800773572,506.6743401026889,0.02678588593051224,-3.8828243855735747,-0.7187547582590899,6.961562365113222,1735410534948.0
1.4578195702446166,1075.182297011303,-1355.1122157710422,668.8444861615313,0.02625168727822199,31.386560014985456,0.8614738356215561,52.96823114268212,1735410534978.0
1.1136243962076326,-1071.898999656225,-355.59948259531507,1270.428527503117,0.04769754187945,-11.940070786644938,-8.09048484640352,-29.615025684586946,1735410535008.0
1.7468470173822874,2136.8780964196694,-1409.5408019708707,384.34312551391173,0.0030153768020402295,6.081557680070061,-22.41927739741097,18.963593683309995,1735410535037.0
1.2882924615196671,399.0469232559767,25.96683672838404,269.81628492304935,0.03903697787070009,-2.1529902873517415,-1.5907623485470141,22.477275422935243,1735410535068.0
0.48630630644077943,417.256267474223,1118.8455959904277,1523.9454376953604,0.04665399138256234,-9.376853023906557,9.915887028477492,-23.005749255476815,1735410535098.0
1.9678108886564556,1991.9092671902195,-1228.8825499955465,-333.4555430209283,0.007526047653250902,-39.722598367023146,-12.544990366497743,6.950181373631935,1735410535128.0
0.3989820891570319,573.553024924987,244.59097730225335,-724.5421297300052,0.008365383841995373,5.970863659616465,-17.451468435579525,-28.806478776393803,1735410535158.0
1.7037265145757443,1633.9167359756334,-897.7892954606025,898.7133574384544,0.041297345607150475,-2.526541237178116,-1.9417773872926067,23.440152058803534,1735410535188.0
1.1590827929378604,-68.02119729407605,-1310.43827227449,1376.056963881894,0.04518655179889551,17.638335242436877,5.439325669701985,81.23026131110863,1735410535218.0
1.174273664164216,-3036.1590960770072,-657.6994657258953,92.35291616140901,0.05264667689785964,-25.34050975474743,-3.750445544214399,-38.281135356883794,1735410535247.0
0.18000368883173157,-1708.1871790068049,-161.60285092727236,64.25072469675331,0.01827487375204815,-3.8995859400251565,2.0794856743757366,-37.62751474446158,1735410535278.0
1.3722545838989857,-1113.4566063984755,215.87796934017058,-210.01517199364616,-0.0065428324168229045,-3.9012133084777414,6.1515272925458415,21.752715704592035,1735410535308.0
0.1914565172139533,385.4991492330554,-226.1217945183208,955.8462121579141,0.025947340893127425,17.575518212654003,-5.983461357975286,-1.8542642376066305,1735410535338.0
1.6271791551962016,865.6535677334557,-313.6357616885841,124.04661398748533,0.031305819675588466,-18.64630712547506,-14.166188534166661,26.635094439948205,1735410535369.0
-0.09932944191501025,-95.71968121102805,-317.35807844412534,1584.666829446905,0.05558442208401751,-52.944810891088,1.5022596984519918,85.22157624835675,1735410535398.0
1.7475054127301788,-92.44820201607979,-110.19316113200978,906.4917192399207,0.03646358224003861,-16.434841608482966,-17.03965916150788,89.38336156097336,1735410535398.0
