Acc_Betrag,Acc_X,Acc_Y,Acc_Z,Ori_Betrag,Ori_X,Ori_Y,Ori_Z,Timestamp
1.315778577713858,1550.4634890756918,590.3083124342793,-111.37594160520699,0.03819893782442397,40.91799164627258,11.254520364021577,22.994628976858237,1735410900566.0
1.7208989459338697,-85.08089488521705,632.1425255473719,-805.0880535670066,0.020147784139805246,5.338811954523923,2.8961909861846307,4.017001476807826,1735410900597.0
2.4643137204873433,-371.87585237235567,2278.5468672698125,-302.91015156096444,0.024979958427226678,-14.717036923736135,13.11449540935131,18.95087248164435,1735410900627.0
1.4492927112990095,-1167.6440841193526,2310.7770576787734,1298.8607842968786,0.005017735022772182,23.124519036753522,16.463054505903777,5.431227611585168,1735410900657.0
2.3631518990631033,869.4296327527502,2118.584548596236,-446.7138407373084,0.04811442682265679,-1.2383703869967242,10.765494773282512,-21.521435315751816,1735410900687.0
0.8738986198352586,-118.02921122425875,765.1980444089612,-1180.629030240403,0.0505350935427989,8.099524682907205,19.54284328338897,21.12314912302428,1735410900715.0
1.7721637990154826,21.599234641745113,1392.4667631349325,559.0464366664934,0.031172985180914957,-23.62079275395706,7.434063203163719,-41.05928620811815,1735410900747.0
0.8050739354977677,-290.90770517628516,551.7522633545143,933.3480586294211,0.021746396634855288,26.39172783373134,15.75784994424922,-17.187052196276966,1735410900778.0
0.7787597314354536,-1546.7564907834817,1610.7432280479857,544.6288102014423,0.008641643049960037,-70.91205448903621,21.483379179731784,-49.70710542460901,1735410900807.0
0.06937295501268292,-1035.453815621319,808.9872913086512,1258.8754972180875,0.01404008383281886,-2.652478770173829,5.578808980836666,-15.372033758579727,1735410900837.0
1.2546872648261267,-299.82173409322826,1276.624143181466,513.2180110237049,0.04212876006181797,3.780016991122885,-1.9643388907858021,16.006580260542012,1735410900867.0
1.1952124124093886,-440.40917431804303,830.4402612834227,1818.100775828268,0.05050547112190738,-23.74483237754275,-12.876416423469108,-62.386189082400286,1735410900896.0
1.4278126422733903,176.0697763952349,254.43210234137268,1454.807204424457,0.06307844718148395,9.858531909270466,-0.169332001365472,62.24911828136661,1735410900926.0
0.18856909998797722,1084.7364532087,1595.224380299786,598.9252257902592,0.06009427674057648,-33.06614593591712,4.844752110634087,1.3290504912130814,1735410900956.0
0.9533468080447811,1918.0285815638276,1946.6897960017825,622.9215991011989,0.018949218894173808,3.972082744386782,6.894115844857226,86.35271374891447,1735410900986.0
0.23475892274804055,-1614.4305092286556,51.662949286932644,887.5022209132153,0.014104220942615823,-33.44468358318733,30.91434005953959,26.550983606695684,1735410901017.0
1.8677508215651906,-2054.581960360637,2013.3487815381777,1704.5202736629763,0.02562744781872028,20.22285280496889,7.133056377163987,85.19080602448128,1735410901047.0
1.3006712017683206,-237.8991474398939,-261.7077851034222,2336.4178406943447,0.03476564349427724,-32.24795185043949,8.382476073349345,-58.78559489629432,1735410901077.0
3.930119791496063,-1594.6078352452828,2443.641294432555,-943.9310502233607,0.008307895514542928,11.179955054678501,-2.0022758232799838,10.156779882745752,1735410901107.0
2.104214213023341,-2020.671100798119,2092.6401692088525,82.45963309863123,0.030530274227209112,-33.83294767415326,14.806101245133405,-13.788850114650161,1735410901137.0
2.4692557797871255,-587.7193394147315,1560.6723852073842,-944.921339462274,-0.00027786047475826525,-48.93184549298922,-3.544867017146238,-58.801536706626486,1735410901167.0
3.141252525595452,-2845.284820849828,2719.2819727164306,-922.5638461627914,0.01955721765508606,1.6831411346951537,12.075029907504096,-27.93477739677737,1735410901196.0
-0.1741475087832841,579.4955372302525,-892.1261764486378,-150.28306734755031,0.028168136110036057,-32.262067214271475,21.598414580496975,-42.235052042887666,1735410901225.0
0.6544110608024042,629.5123718944701,486.2118608216713,-1301.438856054656,0.05015763029648572,-101.97507005243325,9.521900563537157,68.55863854579904,1735410901257.0
-1.2540082325053619,1877.7417335859868,632.4353628213016,45.02759238996697,0.050533627131413045,-0.8576726663612959,-0.24067040746004587,-37.77326233670991,1735410901286.0
2.1970227068132795,-1830.0691080593056,1959.0585935900026,-881.5977104650638,0.05525035463588379,-20.888021501222983,6.809402200376978,-41.63439653367064,1735410901317.0
3.259117515200182,-2058.8338215571625,2452.8088160968064,-1800.593167097952,0.05516780268342386,-23.241874735424133,7.684904494514236,-45.17197201331466,1735410901347.0
3.4935569576189858,-2765.1480727848398,2612.8699678835405,-809.7692741987833,0.05267604167017044,-60.168243689518086,27.69464768442731,-21.683985565697057,1735410901377.0
0.5055613318954133,-474.87792253224757,-963.0975113631697,554.7778475641902,0.023095022626639906,-56.9827669071004,23.228161249689865,9.651541910844223,1735410901437.0
0.7445624184841713,-106.45940449212719,-1435.1515345266346,-1281.9985183524955,0.030677321475137624,-12.961633636180263,-1.7233796943839574,-27.632814594176374,1735410901467.0
0.7271941690051777,1933.1317570724468,-204.9345698041328,-1192.0466840586075,0.060145648133758264,18.7262644665238,-29.53424133384925,-54.44324451078728,1735410901497.0
3.01072267675131,-2078.0084262977634,2596.9820760090756,-958.0953896672498,0.07094934252116224,-7.199349267319292,-9.338553292789308,-93.0432070642587,1735410901526.0
3.3242036365763465,-1127.8548487638946,1227.3641440479228,-495.61082962300145,0.052320699372155624,-46.088318074581366,-0.7006525124996017,19.26709814074431,1735410901557.0
0.4334346829208387,-535.175424982227,-204.45878307477835,-764.3157068681148,0.029021801511348148,-27.30371542222911,8.571930153324654,-37.875527701023074,1735410901617.0
0.9386043655147008,-343.58053587124937,1800.0755199197044,-221.8256897876667,0.029953446397278895,-30.30478482620401,3.089443781557299,-32.06932465703287,1735410901647.0
0.13575700115893885,-1290.9541724176365,-228.59400066805586,310.60253577379956,0.05361378976149375,-9.844817153159653,-13.448897559455563,-54.41803459009195,1735410901676.0
2.062037086332349,-2659.2462695249833,2294.915548396072,-873.1890636136842,0.04413146381959907,-44.34091805303751,-4.126901987055991,-42.682133358197206,1735410901708.0
2.5915061635266987,-568.5616507557145,2447.9237926990377,-1101.4031825109732,0.04097210672339978,-13.359946727916753,-10.73940560990794,17.262491036294115,1735410901736.0
0.45053831020406165,954.8673711493761,-192.67876632746754,-260.82634193843825,0.059335545342169685,-61.79071053686536,3.868745824336113,-1.865712467403963,1735410901797.0
0.029339105097112683,-324.66020201174223,1521.7482965837098,-640.7283373227373,0.045707146976949775,-63.98223654330678,3.514369416504751,10.30428601593573,1735410901827.0
0.3849371744141251,-1028.2455606065141,-363.6171749024253,269.09104316473395,0.026832835723158543,-57.80310838752868,-12.188812929733036,1.546801384375506,1735410901856.0
0.15878561921614998,-90.56629826401877,-558.0784645378974,687.8047134247487,0.030614868296797146,-29.77430709684342,0.33212760849418554,-56.08930795884493,1735410901886.0
1.7197437840851637,-1076.8338369946014,1656.472199735521,-1608.2568190451643,0.02169645784555029,32.20758174365488,-6.1064595609587204,-48.18148292365808,1735410901917.0
2.2657763753294873,-303.88727222903185,1897.7728921692533,-133.42236587440027,0.05398609446601583,-49.731610606925884,-9.931898679419845,-39.65995145007932,1735410901946.0
2.405599449694893,-1544.0804679318549,1571.3032564631458,-1158.0001326495517,0.07432602068113742,-27.622622929757554,-6.114810354785073,-29.200320043231564,1735410901976.0
-0.12003965414836992,-987.9003233556214,2654.201779535155,-1090.3460728370446,0.031911511486564695,-43.254056890169814,-6.57770303082209,-35.769094841758836,1735410902036.0
0.2774980319139978,-466.3825424398111,156.51332524378,216.7760051341162,0.029354748781620928,7.903192255771927,-1.9944901357103437,-71.68173913363276,1735410902065.0
1.3951134080469503,-410.6319194392845,1866.4678681259848,53.842830692324355,0.02545613160008571,-1.9240963185709958,-14.570193302614342,9.758066266649681,1735410902095.0
3.158864915951896,-944.5801920165736,507.4481276654617,118.44601334974249,0.02535381362321225,-32.93909653116188,-10.120294272523237,-1.4735407658716095,1735410902125.0
1.7014988890030986,-234.8660645455817,582.0612084071524,348.18015903775876,0.026313649236008176,51.88171596028901,-18.64258267278921,-23.97919003744551,1735410902155.0
2.6549627957732405,-633.9036720153001,3295.975345220395,81.28462405930895,0.06817037629146358,1.0725181180760934,-6.503575275976403,34.65301092418056,1735410902187.0
2.4861568487231294,-1619.7823962247264,658.4098316266404,-244.97956576559994,0.04891037793159233,76.74055703703955,-15.313483309750549,27.146288648136576,1735410902217.0
0.9763335956311748,-964.5248523404837,-20.314553309245298,-550.0030554344157,0.052224237569001436,33.2288371271563,-6.774475408863314,19.21425533990918,1735410902246.0
1.2809688290684969,-332.9493245488175,1745.037334386679,-317.7080364837805,0.050693072295494905,11.153057216957702,-25.407276506768806,28.47402770591512,1735410902275.0
0.4029608046377404,1222.7139025760962,1458.3642178839928,106.0657054853504,0.024167188715814754,89.16856883107384,-25.449577708761865,-12.35536876372634,1735410902307.0
1.4698312657758528,717.5590421388944,379.51578412917456,-788.4301132508045,0.04216296827201723,53.389754656429446,-10.409870680985893,-72.03753279845228,1735410902336.0
0.974917822523038,-477.34906713643477,758.6205181637818,318.71381633458805,0.03840752850189866,40.58462542464938,-13.79858092059472,66.19358914643291,1735410902366.0
2.2223209696499158,-100.69781177096615,629.441218344175,668.5764268256386,0.06148565377559337,7.115084608182986,-3.7752519308306383,20.423014899606905,1735410902397.0
1.7945362516246117,-606.1747110474655,231.55997718279275,-1061.6953226560852,0.042056463222050526,-32.41682135249883,-21.79155917570126,34.15248174336705,1735410902426.0
1.3985066016400731,-963.8602419472534,936.3531345534205,-1258.1186584480552,0.04441820662280022,47.0053335966238,10.1740995495567,-9.907125605893325,1735410902456.0
1.0550126968448785,-1688.9056981368167,1213.6763829988927,253.51775101775667,0.03960302843934768,-0.9610789477635109,-9.065252110409112,8.786104528853347,1735410902487.0
0.1928048967393724,791.8249514927812,-41.696225134092515,94.48402681046164,0.043151253028219975,27.416451085351902,-22.993775223576034,1.6230553279618416,1735410902516.0
0.5095593427055236,-437.41356721305533,-93.52652513122197,347.26700106453393,0.01185496362385462,7.302849864858963,11.210314208271347,7.616286179045234,1735410902547.0
1.187730328412978,-488.8434884324747,-436.21211809009674,-203.00948589313958,0.05895911390967498,-28.447648391733622,4.7369162856194915,64.16153478200906,1735410902577.0
0.10526575611037814,117.85147214466019,167.9769441409951,81.42605660164315,0.04379714658610494,11.457185559750055,15.819945518132565,26.905529471979584,1735410902607.0
0.21559950136337686,2279.8186506648017,-891.8656185490839,-383.2394196791156,0.017136146269652104,-9.95364505254786,-1.6851988539141898,7.323118713323471,1735410902607.0
1.2833015548657953,1695.6893858360668,845.7755950048987,494.3761287195723,0.014385085952145507,32.29042020003029,22.602107818462954,55.364923353769925,1735410902607.0
0.9513831340105507,-257.91056734857807,178.49814650412304,1340.2189662398673,0.03508629000376598,33.200293610951476,0.024607185913799512,-18.175958814216933,1735410902607.0
0.022933447930460704,2995.0067108406206,24.859839756950837,-660.2984308743445,0.045586484701739816,32.56799181507286,-4.967984978350755,-22.29672570410842,1735410902607.0
1.2002434109404532,658.4581715295396,-323.30777919492994,-475.63706687277556,0.055060543719941436,36.275581278954775,13.323667841396817,50.50296513336883,1735410902607.0
