Acc_Betrag,Acc_X,Acc_Y,Acc_Z,Ori_Betrag,Ori_X,Ori_Y,Ori_Z,Timestamp
0.6598170379077102,709.8537787158075,-100.32958836913883,-675.9739942719216,0.05418065687187002,8.052541577229313,34.05006678353054,64.15412273015858,1735410493908.0
1.2946109601754487,-456.100563146631,800.1225694664406,-342.0270280638029,0.07996704585446088,-64.76391631555529,19.901910091915227,7.789846503115442,1735410493967.0
-0.20526120707126072,669.2200467681321,989.2968178741667,343.00291682414945,0.0891723364539156,-16.726059439147736,10.536816929537277,5.480327779085933,1735410493968.0
1.1853910830909833,358.9811572070123,49.3364431262774,-2029.0533587149482,0.041892505389141,-38.65111574614849,6.817880167451243,7.268297524347947,1735410493997.0
0.7822301797208792,325.38378547925214,43.02064549587669,-884.8548528380919,0.036562542580939016,-36.57516479233501,-12.067848140809222,-16.135007473409644,1735410494027.0
1.4920918296728978,-763.9129918806261,1385.3690207605714,97.79557926595749,0.023743374791020164,1.0841925816360174,-10.83254292392917,-29.00129294876268,1735410494057.0
1.6895694101884056,-447.5228583239926,1184.4499284726571,-2290.4573139695926,0.018792835058238908,-25.997510030154878,19.712787871131386,-8.944132541176428,1735410494087.0
1.175086058126775,1071.3680786238629,700.5736173584098,-889.3839173432677,-0.00787178841816789,4.242699816685642,-1.3128300602586611,11.625714487011699,1735410494117.0
0.6260472257135692,-804.1385706719736,319.77617359721114,-709.9784141834697,0.03165208319210235,-18.121489197155093,6.7422512276034,24.10507818847447,1735410494147.0
0.7092840492026657,-66.32968387593837,240.40400862661843,-986.8168053725622,0.02565760949866717,-11.43407456315251,-1.9102162454516352,21.73302947287999,1735410494178.0
1.2938322399500488,1403.669519178368,285.0733654888418,-1246.2556319339005,0.024544482086214132,9.240017586791257,0.8873295920974584,-6.519784768078441,1735410494208.0
0.4211068613030915,2.1557055638789393,-48.37913881881116,-450.63815535041977,0.05200990031201035,30.108448077552847,-10.916085702872408,39.72646880090117,1735410494237.0
1.9014934702359714,-84.82059738502707,252.24813919835685,-910.4491790994214,0.007626307995706003,-15.49205170869249,-9.941153651072707,18.662641963071355,1735410494268.0
0.5805278739288194,527.4408446539559,-172.3103246220869,-890.6881269121802,0.019736601549038012,-4.404839665322813,-0.29676435861945194,15.109595820753967,1735410494297.0
1.464488950048932,1815.5317070761905,-53.21406408849151,-1066.5855314872729,0.04566151782830005,-40.53426747240654,-8.490013939524632,-7.5809286642330065,1735410494327.0
1.4768226197925876,-214.39077166840332,-152.05700240387137,-643.2640019893435,0.022068710048648486,-99.01914444120196,-4.92887893660825,52.57098721230538,1735410494357.0
2.524896231324585,89.1764932721677,-1072.7826575643144,-765.3220582944234,0.06306855165361547,-33.283432630811014,-0.30659846562408744,4.666582808548654,1735410494386.0
2.148689730393747,-1365.9051505734117,242.8087575337995,70.9000765999196,0.033879730704890726,-61.39301454394694,7.715338578363309,81.99273227498276,1735410494417.0
1.472211148299754,-1555.889199341098,2239.4021565562116,-469.68139645218935,0.04442498267645064,-32.30182989001488,-15.14983864812319,-53.941590292926875,1735410494446.0
2.011598091546165,-1883.9472123358973,794.6593447545113,171.3719332859107,0.04455270784170603,-26.33569588494612,-19.113144032499395,-30.006270176310842,1735410494478.0
1.7278808686980613,-1539.8366995623749,167.14848387026632,373.3970924042951,0.030771681861385822,-18.712284080943526,-9.272858992779785,-21.474427042340217,1735410494508.0
1.9858598803470893,3428.9041375075203,-483.1524600374728,-1325.808842171597,0.052395365104632545,-44.35364572838934,-7.486786888148254,-75.95396000415059,1735410494537.0
2.1171385515827135,395.13460798282097,508.8763416035219,-447.29113604670465,0.05795130199077922,48.538771580281164,12.179853993452916,-85.81718862360415,1735410494597.0
2.12346299623973,-312.3584565708469,502.06778679483034,-1564.989799697575,0.0664637153139524,22.7225066063437,-6.662541435417991,-22.098808741915533,1735410494627.0
1.1662893877024223,-489.21080412455774,-85.98389509687786,-35.05742207339608,0.017883076892341872,-37.24840654911908,-3.4505365514330357,-35.32733337471746,1735410494657.0
2.5601926833215805,-821.1927564421234,-48.149298596382096,-217.57917831583063,0.0435112384099327,-58.84089178056726,10.022936936267975,47.72051427059133,1735410494687.0
0.5518889940006544,-635.1927487619648,471.5618303440559,-352.5843802346349,0.05165449837126996,-22.15218683393214,-2.1374272207622633,16.92851380253746,1735410494717.0
1.2402149310971187,2546.8610302720813,79.19342150497164,-1939.473198810953,0.04719114142026364,-36.536618887493965,-7.4289450202862835,-39.676667580704446,1735410494747.0
1.501837663339946,1377.034396012912,836.9447837201672,-970.3792520370639,0.038535431464941136,0.2927509109289801,-4.025395074430763,25.281575562719002,1735410494777.0
0.9502765616989162,-419.02347427386667,1962.5141659613241,-1008.7575972661477,0.04625455106165139,24.557444951260774,13.303246825457212,-30.911211257523163,1735410494807.0
1.1340176638475148,-2261.296423229999,793.8271607015535,-2043.6551381844313,0.042138180173626534,25.668803415114567,26.268290955331718,-24.4522053914663,1735410494838.0
1.6299414216978976,-2306.504873378008,807.213652056811,-197.26197960718844,0.045074880784899914,-32.590755512637614,12.949320739739921,31.731541756335456,1735410494867.0
0.7206311020687869,-1186.9552432496364,715.6770574455295,258.085788454855,0.0435478880050561,-28.14589543120742,-11.626451773045076,35.24618033312764,1735410494896.0
0.8131682622813664,1745.2030708792026,1946.846629670231,-1705.341174957237,0.03971571645372914,-36.93124750287405,3.7417380544239833,50.21378095033343,1735410494928.0
1.4570964048742876,948.4364198714372,-662.9103267905537,-1079.0725455906668,0.042294998982102205,29.38753720188555,9.83893196378469,-27.3269084816653,1735410494957.0
0.3878446065615193,-1634.7793949396496,1418.528924551115,-822.7782065035776,0.03603086312865421,-1.0818922719728832,7.733885857498136,-16.78936010764903,1735410494987.0
0.44682489072075493,-1668.7063764505767,1355.600233245722,-178.42992235345423,0.06279823612459504,-63.30907355319884,1.3057771614727391,19.69652090248976,1735410495017.0
1.6496762342539033,-2154.8621484935275,165.0738614544818,-1704.7013748422678,0.04294284263204908,-66.06129743315275,-12.421555171016724,5.527525157056112,1735410495047.0
1.262620836928998,-948.435551051734,1202.7161778903483,20.80700376980053,0.03697641002265966,-87.99693075142292,-2.7724959057115925,-25.43377246827523,1735410495077.0
1.4447338090434951,375.21448715715565,1042.142226501625,-1760.9705865433327,0.03970265472274022,-60.321843645567355,-25.75317424668452,-10.633581411537115,1735410495107.0
1.075168964876216,-207.19145982954672,431.1273472385899,-605.1930528191544,0.04951777863009156,-41.78246999558776,8.046826448685406,11.168579322664783,1735410495137.0
1.78500810210978,-540.8211549267078,-595.9665172096358,-1147.950797407345,0.0577973751212553,-48.61950551058902,-6.014517443544335,-29.022352737599334,1735410495168.0
-0.48274283714097477,-247.5685829370093,809.6774995160043,-673.9613154509046,0.04370447422609005,49.477830290058606,13.095180967339356,20.95317264932044,1735410495197.0
0.529082057924394,209.1026371247516,387.00400537656446,-611.8406209457463,0.07622933074336874,-35.6045973658869,13.28571839088671,46.18024839096371,1735410495227.0
0.9377182261334929,834.108410741822,460.73843264008036,62.79882753198808,0.02058005354101665,-10.389407919268066,7.733290529903819,61.82888915186665,1735410495257.0
-0.06581424704989125,-547.7802274961538,491.1520813105311,-1027.584763529177,0.0551907491409158,-14.503046791783937,17.30161882695342,19.86085643047889,1735410495287.0
0.9094025178788048,-477.955040922462,1057.0696413800997,-832.4908776663906,0.05075327286059297,-57.379329061361844,-13.286160655521073,39.402179002503644,1735410495317.0
1.1661333439903532,328.9555081958282,295.46092021924636,-1386.6856932706157,0.04810511013132483,-14.348648574196517,3.619042582990445,23.723028180636895,1735410495347.0
0.4206315706211605,-201.30746968290194,2380.7344128166355,-631.2555205281215,0.0202960393939281,-41.37221813178421,-5.004431400577628,17.659625690133907,1735410495377.0
0.8918962709298979,328.6036930081031,-125.51434951679232,-2328.2371031033563,0.05013739982487264,-57.55864519608592,-12.486769892262975,9.587584272800019,1735410495407.0
1.6822381550634091,-338.3100293778223,406.0577249181704,-439.46355762908206,0.0636775532083062,-57.40453188376094,-14.558393009767764,40.985322451414305,1735410495438.0
0.327868136294829,231.34587551711843,373.5147140152178,-2022.7851260684174,0.04543798709126638,-48.707553147881455,-0.5921417309081276,-19.96031080214167,1735410495467.0
0.20620803358443418,462.0998865671778,239.50237449737608,-1043.593565979871,0.010302652078557333,27.900641927132042,-13.191800919081789,10.409319502260377,1735410495498.0
0.6276968663777068,449.38190461082775,1171.6692696178316,188.5874535086582,0.031695066158885836,-37.60667492959078,-9.484434502753539,-42.361072183405284,1735410495527.0
1.1453440458298916,-666.7871433526077,-240.32249134139613,-1813.6675286765753,0.019211328364433997,-51.80653106518007,3.9581242673008914,-10.673557915610237,1735410495557.0
0.4298679195667372,-1688.615766103592,-122.46867234436002,-1442.2897062324548,0.0395821297124246,-38.070912604892435,8.157360807464347,33.276987750246285,1735410495587.0
1.0598789984076624,510.1930343991195,190.43265070237408,-762.9535263206878,0.044453001351469776,-44.67599126543046,2.2722117994732933,-14.64825649931161,1735410495616.0
0.8376186154447085,384.3939956976789,964.3182506656242,-1075.3755554998156,0.03910025416920982,-85.96832382831136,-7.431739914743314,-4.801917372764953,1735410495647.0
0.994459510427885,414.6284677914091,1361.2874622058143,-329.0408130472964,0.042472213165235445,-85.2160327826572,14.582089560624722,-7.452754494889938,1735410495678.0
0.6855817436172603,764.7588499718961,1081.3150705475937,-1651.4991918241844,0.06509869551446859,-29.637212545244168,-17.708713971467578,-3.2727028932618563,1735410495708.0
0.6631990737668426,-444.4461886187903,733.3530004778579,-715.5559343373018,0.05371735844181289,-68.9108596508607,5.1908193980097135,-3.570332571832422,1735410495737.0
0.5135506394321334,284.68569873609005,1352.7906129642342,-60.8689495110109,0.06192190262090557,38.26314837420821,32.33383411941833,31.786533554728564,1735410495768.0
0.12143781737463621,-154.9540355413672,947.0732864382251,-1126.0430413265774,0.05771686362950926,38.084852447293486,25.035249390875215,-21.198750743668562,1735410495797.0
0.8294880972064816,173.2105934548236,697.8112311354465,91.20275653957003,0.05051185744493759,69.52509307476056,15.52924572974927,-8.747209359100516,1735410495827.0
0.7408968122624845,1649.264014849748,-77.37109318217779,-603.0480425596861,0.03721161466272159,-19.145655002200467,-4.840319611452747,-21.780253295472555,1735410495857.0
1.0872864444897525,84.34949687275717,247.89490589414993,-668.1217289655215,0.06321031323224842,-5.763378368872665,-6.420098853846321,-12.193064924858037,1735410495888.0
0.5404032571611584,451.92480184629085,1325.5085979050295,374.35229711585066,0.052004852797572526,-47.535759165548036,0.7924045323840465,-3.3146014387233054,1735410495918.0
1.1826850929552273,1220.4777416043332,895.4840226783481,-1952.0203918533184,0.05440442142433636,-1.6910796085819584,-16.312037199728234,13.04377805309963,1735410495948.0
1.2403230365641855,231.47915220274945,2081.432172485341,-753.3610613566208,0.040140301807305274,-56.548818891091656,8.854395949285273,-2.1058426121056586,1735410495978.0
1.3947177230595416,-438.9361157591987,-33.15938949299084,-911.3815769635497,0.03275194311832396,-27.68244052930094,-0.16161665873602393,-33.01544341215805,1735410495978.0
