Acc_Betrag,Acc_X,Acc_Y,Acc_Z,Ori_Betrag,Ori_X,Ori_Y,Ori_Z,Timestamp
1.8063541603956277,-344.1566550134005,689.8722479616889,462.3674356281771,0.06662971313739816,-38.76401274433193,-8.776987605432147,31.635244929278564,1735410695213.0
1.8840468380355824,-1459.6201346852324,-787.6667027205519,-305.66006797865055,0.02256222800887432,0.8823845681000955,-2.008487359476254,14.1204504374362,1735410695243.0
0.8407898880330634,426.80919019693476,1492.957959545426,1968.6151699876675,0.016890150228144298,-9.263239960719654,6.181952583401875,-2.6317540703662505,1735410695272.0
1.1325433972864756,965.4091230115258,400.8213601911276,-643.8340607911698,0.019991727054142587,-38.39625487197936,-4.832196016982865,-15.952316727346686,1735410695301.0
1.285275687282795,-1843.9520448914368,1254.71485604467,-820.7978442963006,-0.011584686266170839,4.305519693551824,-0.910121368683785,-3.9710310789919503,1735410695332.0
0.5352816116708103,-1232.4568154937356,2063.6839163189497,361.6001517564207,0.020373741663255847,2.7268409245687053,-19.848833652993946,65.37233705924963,1735410695377.0
2.229030185626561,-1898.7892197217013,458.4433973629933,840.1107859606163,0.05157046331052084,18.299614844109584,-14.45929916743741,61.642146002120526,1735410695392.0
1.5479448627125107,681.3080041376918,442.04972209446487,-1130.4598689413554,0.02108127289113616,9.77529693840025,-8.192133453354538,94.96053892050824,1735410695422.0
0.5864859970922838,-954.8915423913238,462.0175862997203,1466.4238048481975,0.005799259974169153,-10.960797180267415,6.3258096009772835,4.08382382596724,1735410695453.0
1.2329667404521267,-393.20966066678926,-543.0109374230142,1782.0194871609626,0.017694740610993222,13.089993703303252,-1.1953423401311447,-35.51902375676438,1735410695482.0
0.5950302945762375,-1629.0607205877936,969.9170647098518,-213.19386777697196,0.0019754620167479198,18.860687535535153,-10.302930808406966,-76.18129201052375,1735410695513.0
1.5444848064122831,-1055.5671857846992,-1087.219711394597,-571.4338947165667,0.007714749492930793,53.48348519569809,-10.694970179021745,26.479307734083697,1735410695543.0
1.4845775313672693,-1578.6150918750302,597.1949414376585,-485.645586481805,0.01058123320955887,-21.780337538319735,-27.805743983956972,67.78243205546515,1735410695572.0
2.0792541007908993,-1599.6981036313891,1121.6393228679244,1029.8451770478616,0.06546890678665776,-14.09850652675162,-12.991671392875473,-89.9274778635891,1735410695601.0
1.2698577708133523,393.56060139055256,1123.3446883941142,1344.4143266381775,0.028113768929867007,-29.03810079025766,-19.339160800483764,26.675757910649416,1735410695632.0
1.0763744328184823,-865.4332207644898,731.0199621701121,1144.100457503481,0.0335442383119659,-16.201124304903406,2.486667575688281,-12.465008230055172,1735410695662.0
0.7478539482486687,-701.2613547730426,1190.144412629665,1523.3846455420437,0.04092391477321773,10.27255731035338,4.2235301523520565,-14.302131245202897,1735410695692.0
1.4502279003216472,-2664.506321177858,-165.86304770774382,-105.58967365699198,0.029204020907374242,-17.702471538296685,-13.238796166386233,-37.658416662811945,1735410695722.0
0.24767307684658224,-2019.681593550122,1656.3679936319086,59.25329295923231,0.014147891503762503,-21.89500213655098,-17.95253247855187,9.43876376794398,1735410695752.0
1.077497160408556,-2348.6798680978027,-1011.7154393089868,961.5670811209789,-0.021798888990744763,-9.799997305777241,3.194520601277312,-9.662625908713494,1735410695783.0
1.4865164286195471,2518.218355945117,-691.2171402276144,898.3166825874641,0.02046709631876042,9.844320709622421,-9.573575264126973,-26.77753001114968,1735410695812.0
1.5492859292546943,714.1094242801116,1424.5275988995163,1333.6614998055852,0.014298862327908075,-44.06259717132133,-3.552873229837789,-26.124135818065646,1735410695842.0
2.1057917049544805,2555.386339580092,-235.4834001288251,1606.7255866529947,0.05315958447160405,-9.99019249567017,1.794407701493574,-88.62886463082742,1735410695872.0
1.8136171381657507,-198.5269799388401,349.9073153298219,492.08780395642293,0.04269593666368315,9.373436267378436,-12.148684556302772,70.81148530001329,1735410695902.0
1.1232254617307877,-421.4990887610247,583.163412661575,65.28507295465403,0.03713125309711757,-47.38546956500373,-21.041646568588675,-39.43428626450494,1735410695932.0
2.0052747838729963,-269.3122023324022,53.433385408702634,88.08525847315417,0.013801893898757921,-53.65840623245927,-15.82864021792388,-31.936249721722373,1735410695962.0
1.458555652852474,-425.2864834270099,-708.9156167650681,-1294.768866658104,0.028775176631853448,2.6697879213757894,-7.325881592294517,49.756702032424954,1735410695992.0
0.9005218845649523,-82.37801166791357,-439.82332236091406,2078.792275781458,0.02023301264944754,18.265576351500457,3.9813781870702964,42.54034832142597,1735410696022.0
1.588061648519702,69.77166155586505,1494.425113442687,1072.1811964064605,0.00014462768552690915,-16.18734464864931,6.331368813591183,-2.116728907400105,1735410696052.0
0.5297041511419267,-534.2642812174954,635.0239753082121,933.3998095415704,0.01576807861328965,5.833356371666595,-3.6642003623592254,-40.912346012080604,1735410696082.0
1.1749696773129918,-19.951099319225023,-751.2926690045044,574.4260896326823,0.01086259293087945,-15.397786364381917,-11.588424929976146,-30.248244499265777,1735410696113.0
0.6107090037129699,1314.958875784149,1208.9508121998776,460.72302062605667,0.005470374912763538,55.118280552735705,-16.408063185369443,-86.03622829911524,1735410696142.0
1.1307434288410716,287.96684345211247,-647.0399825914646,1530.3403130320298,0.04354934962516975,18.703403636999063,-17.32433111282417,-60.333802661010374,1735410696172.0
0.3775384659858365,-807.5497213059139,957.2394788155799,1455.9826982084974,0.025336171878759133,-42.26165050399273,-32.79638911549133,39.02077720101401,1735410696202.0
1.0402711438907835,-1043.6921518674962,2056.4495353706816,1442.2594102449398,0.012863050353266825,-30.250772599137214,-1.653359973960308,-30.69480036071025,1735410696232.0
0.7794460108391681,-1957.9465993057584,1062.7991914717327,452.4628324367717,0.040150762231508895,-13.057274579452121,-15.053807303267345,-10.567622584240787,1735410696262.0
2.6524557625414213,1182.626115649397,-841.3613697457197,476.18706170079764,0.0244902760016208,-11.797365100719936,-6.158436367827119,-35.113473986314155,1735410696292.0
1.9167336155066965,-559.6430116164032,1241.615848446632,2070.388406846968,0.034749807020044626,-30.60957583004644,-17.278313535686333,-46.39492138251613,1735410696321.0
2.5235879177672627,-1712.0400927715002,1316.0490595108886,106.18434082135747,0.0465260442372682,-0.5363149473352333,-27.37587788547873,-76.10460356170802,1735410696352.0
1.9300073004720044,-503.5420002443792,1111.017438228323,650.8240372323573,0.0008716714251214945,18.629520987841033,-17.16767029007852,11.759623465696432,1735410696382.0
1.0500946651814254,199.01250878932626,282.1922436233081,732.9329423308523,0.02164279570769298,-21.170446215565274,-33.59046575692419,-51.875908172612476,1735410696412.0
2.05137813855052,1702.5436889945674,939.138838620402,914.4303552027234,0.020295225661211194,35.85151324735941,-9.354418471949273,-51.74792466504926,1735410696442.0
1.6292295736676967,-122.99319144833497,1265.7790022902,110.95712284948775,0.04805382999932518,-35.34119647465924,-2.73813866638007,45.795439253893505,1735410696472.0
1.64130845195108,-11.527823004841252,-449.4242558967019,1492.3607898477428,0.03646198010503747,-0.5893589714258152,-13.708265215140978,50.96281206891068,1735410696502.0
0.6888519290445898,-1383.1417021460802,342.8185136913613,1020.9573404273364,0.06051246552334101,10.411715657410243,-7.626956969002806,24.374018758100608,1735410696532.0
0.6561176799724482,-1525.065769697118,1449.0506785973207,332.3079210887381,0.026464070837078038,-6.744629994062215,-6.242709832795585,-16.818285727900975,1735410696563.0
1.6911617805157966,-1977.2209731103353,535.4430869983678,1433.8788613094,0.018396909129589863,-42.713984721325545,18.105690500151862,-36.75197509718651,1735410696592.0
0.4225341465492296,-142.99307672627634,2126.6111253669815,589.7879806831107,-0.0028063300593918414,3.326177098465692,-17.351198861371053,-42.16423719721057,1735410696622.0
0.13543176471684826,-2409.7267051225845,903.043588364804,20.307517364805562,0.04765954335344974,50.33761438817291,-6.864162815669088,-82.48452780752157,1735410696652.0
0.8344218208152296,520.2283279196286,1195.9090288394275,-1411.3358774817996,0.03421238995794981,8.618789935405786,-4.418082410903721,78.41023062041057,1735410696683.0
-0.23018958904620046,-1973.7011370762323,445.65309661090856,1221.4406233401103,0.013456273038362339,-16.291314163712414,-21.93021242567471,28.124729766860977,1735410696712.0
0.5891765140413032,-1525.2744137235252,109.99423573698789,352.4002860303059,0.000902923302391485,-10.932432274433625,-11.149355956333045,28.402753564257264,1735410696743.0
1.1536355325697916,-559.166032731251,-55.447176522160646,36.76963518729224,0.027084794168005164,-17.65020195709269,-2.047888810528665,10.51558491105974,1735410696772.0
0.7235703702817144,210.22535116339213,847.5225380206897,778.7010527961096,0.04181117077373607,15.977395907747239,-17.02534828448033,-58.94594142162714,1735410696802.0
1.7083110642631136,-2926.013723715904,932.0997634692781,-1128.6165215650665,0.0554752293371923,-57.863416049549556,-5.531679330691629,19.99754689949546,1735410696831.0
1.1890046186714365,-641.9564345457832,970.0685207023448,-393.6366314450505,0.027045398423213567,-45.71621513721007,5.597012308342892,18.82981196183685,1735410696862.0
1.4245517786169297,-1861.5145781040037,189.07332328995932,919.4075411471803,0.039668064644745094,-1.7562176043406392,5.903080148087806,-52.69163085719347,1735410696892.0
1.1837867224298984,-41.67055990635939,1837.952113165761,-872.8788467028007,0.04225825811108564,6.1781641722182155,17.246246618710217,-56.192814162331366,1735410696922.0
0.751222207597751,919.544685996524,393.60906614703237,-170.11725477244624,0.0398119805696963,-91.70781951549068,14.992442559328646,69.01706549111306,1735410696952.0
1.3057614806027278,86.68929257254592,821.9360664183703,466.9884610984036,0.06397125249199187,29.679334177422113,-16.96951070901098,-3.8720555265276104,1735410696982.0
-0.23164995101852764,-228.0811387565917,100.23584664560565,-796.6342985375726,0.05216086021156459,6.470468308589123,-21.74318076676476,-22.862818198230375,1735410697012.0
-0.21801333499370462,767.0912065667176,1034.8220724084088,-55.77885591076523,0.06513850061131997,41.266976737484356,-18.491469622206242,79.21083321123933,1735410697042.0
0.17308771776060322,-266.88099172092575,-626.3898948364731,-1017.3451578465296,0.07183023148532845,38.37647753583596,1.8367128417637533,0.10150015221155684,1735410697070.0
-0.43184128393395743,-1119.7677513633278,1105.589789633173,269.54707919073473,0.03023687949581455,29.204367287725425,-11.021253024381947,16.154498247774363,1735410697102.0
3.0729069285430617,-1753.399093457997,1720.3745492384214,-1343.4013115075536,0.004975485433688091,-13.107507523162273,-7.41423970378162,22.74323793676641,1735410697132.0
2.382394026482401,-2191.9231783504006,715.9089350598599,-1609.3820667076793,0.033498046704423474,60.42744302510144,-10.486355677120791,-58.50497976006489,1735410697162.0
2.713615455463732,-2091.6890261309595,1512.3657002110342,-1189.7661178306562,0.0774279474786508,33.372774437607106,-11.30002994146751,-53.95051360174475,1735410697192.0
3.7193729177235637,-1717.5789046514171,1804.6715758438736,-1360.3827930815899,0.08274124211842768,64.48570832108675,-16.326359228205284,3.691254116285414,1735410697222.0
2.4831129453712735,-2280.6346757262536,1563.7962937029374,-1846.8038771806573,0.03558831157174481,66.46089610205507,-24.36986158655984,-21.12182661654971,1735410697253.0
3.591421631186506,-1944.9985685936228,592.9283308914612,-2099.585498451306,0.04214781540596668,52.65121295244063,-10.250057987261677,-8.00111143835931,1735410697253.0
