Acc_Betrag,Acc_X,Acc_Y,Acc_Z,Ori_Betrag,Ori_X,Ori_Y,Ori_Z,Timestamp
1.278223090932391,1391.5054437205417,-242.44577453367256,2306.238273515062,0.06116713265961764,-5.478551776142281,-3.4641924652298455,-76.8241669613226,1735410948659.0
2.0404103566339615,1875.6919395176421,-893.924842769411,83.02459288641091,0.0327729916902982,-17.18949608184348,6.905748406127417,64.3891440214427,1735410948688.0
1.6241917994741035,2340.942757905029,-1726.5080694471674,611.2983417167761,0.044723038500017125,-17.46210484771468,8.11108739588562,51.55268986638896,1735410948718.0
2.472459797427559,2293.6811481855984,-407.0440219461128,-212.09597907834421,0.04865606598324098,-3.8918689084707356,20.330096854889568,53.97118052525593,1735410948748.0
1.2194285193738796,1912.329189881767,1003.9135220042738,36.33036816377049,0.028177859845810473,25.844739386164996,2.2200004856311266,-12.69485035481436,1735410948778.0
1.2924594335608153,1469.057015670869,-661.7722533955285,866.8570925317803,0.04453575284031175,14.166482188868711,26.014800566371356,9.845770910435814,1735410948808.0
1.0385192028309698,415.0886033563329,-526.5808502943149,252.22781057163496,0.06331867185486686,34.10547037834084,15.908545870123131,16.184688722780376,1735410948838.0
1.0128272110773033,-74.39678057765468,-2404.119828082564,83.05032526744057,0.052334326729016625,19.152905006480665,23.158588865711998,-15.98938510656291,1735410948868.0
2.020793219342001,248.37843054878238,-860.6216920798068,-1185.8954667571097,0.037933605582318064,11.113578091016214,14.373633722149444,-21.366343805209777,1735410948898.0
0.8566512657142465,-2005.0541256246313,-1436.2515953625916,1452.0408499532741,0.025293377064691213,-9.33058501541143,-7.959426194667724,-40.51183866768605,1735410948928.0
1.195804013702201,-290.7857279359244,-3012.4285649842113,-1057.2829691681268,-0.010658791166755891,-20.16375758895505,11.725297227990339,31.268488785863465,1735410948958.0
1.7640961275785882,-1636.9522641030276,-1986.5580016791941,-873.4936489679449,0.03777735840605731,17.57280089881483,10.279926776378462,-43.04416016836915,1735410948988.0
1.244614483531301,-1319.7416594930983,-1511.1531910464607,144.0703913710321,0.02769492135439644,-33.528669905151446,23.398053033542574,56.816307749744695,1735410949018.0
1.7189963818233733,-2136.384712190345,-3753.0021327661348,-254.68168770747303,0.017953199494963556,35.26539697627392,39.17177431374864,-8.53072307172394,1735410949046.0
2.5938896187424265,-1190.8582761287826,-2018.2001522629655,-233.87203468795036,0.03801051908641408,33.43553436476076,18.200760246215445,66.27804766587373,1735410949078.0
1.5092069122193845,-269.46196952180196,-2765.0554860376824,435.8354929700968,-0.010357729080111355,18.40400796709435,3.8904451857580824,17.950068695134142,1735410949108.0
1.5915918874218655,-311.3692551017688,-757.7745183162795,877.8214797457483,-0.010283470183836112,-2.8767677672083893,9.643824287627211,3.121020929087595,1735410949138.0
0.658197742973496,-685.0416991313933,-1039.7074973829062,280.6169379562564,0.00024760289943868106,-38.7106772439754,-7.867327362762703,-13.231883406488556,1735410949168.0
1.562487945567298,-441.81617361212943,-150.91581977312242,1269.7368545488816,0.040563513490891795,61.98716285556218,-2.047985610276087,-9.093954962957488,1735410949198.0
1.3260963433568014,-52.85781067171183,-76.00790253291456,1201.9240307801247,0.02289052781896288,-7.326820867538688,-0.4535414285784931,-16.756036633293274,1735410949228.0
0.40564808249244466,954.2590317940028,-183.50603247200576,-65.64471306721407,0.059916125052756466,-15.284871131248563,-0.008294191590181299,54.293518573466336,1735410949257.0
1.7895158207527375,2388.708758537394,1977.3351053514377,610.5815436429255,0.009917360920469086,8.83013900950263,19.831871576867194,28.879075304011387,1735410949288.0
2.9856041694807125,3510.1586828150444,32.41536991909243,267.9021567934575,0.0035313090128205465,-20.78544255107427,1.5413961489154577,3.4598019448386435,1735410949318.0
1.912441142003912,2370.425223993393,330.6130598033956,-46.38871814891695,0.028660309558544907,-16.581830771305285,6.096235706751268,-13.441673354561354,1735410949347.0
1.547359490775469,2611.578512402198,537.7487519542312,-954.3303341685162,0.040486030461285016,-0.3907282030908643,1.6854004472772752,-45.03169309219116,1735410949379.0
2.4756269426947135,947.4177349810526,-416.71164063896816,-1215.371548546511,0.02904922032639815,4.762795766010104,21.935992729390858,-18.84274603415092,1735410949408.0
1.2132070842575091,2804.570397152682,-18.7556399905862,466.6200922010627,0.032325510107697256,47.524187720739654,4.615347520057991,5.263463460254471,1735410949438.0
2.391993180012252,2102.147424821551,532.0109019599059,1511.4525738252335,0.05458603186424357,21.64051698837211,14.06357993586736,22.75948462779849,1735410949467.0
1.0307008136451883,50.669980759836534,-834.137155016837,-585.521702699839,0.0350927801806241,24.1190826144135,21.272608445146027,72.797907949555,1735410949497.0
0.36604854834745726,1970.3926882405585,-1204.7546174750873,596.022131703179,0.02394703265548609,64.8723196546111,0.8654237187816469,27.72962677284924,1735410949528.0
0.314833221792414,656.4696511378227,83.16799960501567,1542.0344412756124,0.03801866269636758,-32.08292992234906,-6.000989239362149,43.65477563523468,1735410949557.0
1.2058566721996369,23.133152771317555,-1536.827667022839,-1553.5244232779824,0.037579861403524345,38.52773548715281,-9.553618901878572,-30.250300578315635,1735410949588.0
2.4836893293905193,-991.5366078728217,-550.6471060910916,-455.2807285016489,0.0562782246380165,-0.8477834374752806,1.4448414480230696,6.534988729901684,1735410949619.0
0.470355917187504,-2433.399048041869,-1707.6720024845285,-80.37776721013714,0.02065232323346357,33.879040363729665,10.748613157788327,-24.815391811430985,1735410949678.0
2.1899800569073267,-1043.150006597249,-3002.0147144492785,-1439.8558521894636,0.011366895739256566,3.1084094466476917,10.940542207327685,42.71523493587763,1735410949679.0
1.8291276388808217,-2211.1394364030884,-1756.5614303928683,476.0008031111705,-0.008141840837317563,42.71914364912392,2.083911457319316,-30.335919846289872,1735410949708.0
2.4689509333240185,-1813.7478342535628,-585.7740677722504,-1360.708735746653,0.01890053373262598,-26.796301956039482,1.9405487511080848,-4.208880480710521,1735410949738.0
1.811492818368706,-68.67317756898228,-1002.8884715938748,54.484829892090076,0.020196874466952317,-25.228180361247063,-7.985060240790666,-8.275397083646602,1735410949766.0
0.9552623277396022,536.3186942485885,-1212.912206728522,525.9607855747748,-0.003547643710074589,12.341867141333733,6.646273463920185,-73.20581048864744,1735410949798.0
1.366663536790231,-369.6449322478681,-1728.2714903349438,352.5874773847989,0.036590449633772164,13.122168359319843,2.639081975017089,-7.34366434867443,1735410949827.0
1.111381155424547,-474.4423422930371,-1672.608415460319,-123.73193955800048,0.03032407782529648,51.03642255265798,-2.298960249839559,-32.92284128914843,1735410949857.0
2.175722951386444,1960.100016023959,1414.2374971362162,221.90784598709683,0.05398747717247706,-18.1638335088902,5.0171157734227485,62.92842388469997,1735410949887.0
1.5576855329090926,533.0162474117367,-466.7234695731469,-463.3212136867746,0.0026806258565953874,8.82096213454555,4.99158946194318,34.36091162508818,1735410949918.0
1.7931956172475785,1890.1914033505686,463.19492126736054,765.4024706498016,0.018760795991100095,-23.78181101074284,17.96793773554326,-12.959110307626013,1735410949947.0
2.0791975061901766,1563.1287620686605,302.7922721186386,-653.1380982219288,0.03175837826221807,-14.26750238948486,18.5609697646492,24.988176198758655,1735410949978.0
1.2182036156510172,2533.8448171213167,-933.5238187076666,-1190.6627684131802,0.005330454359919173,-25.44496329814175,13.418193473775146,14.308910381671296,1735410950007.0
1.45372437515983,2437.3510916204646,-783.8964886565524,-359.91594120208305,0.039539726355477575,-8.142436982910935,2.7400000135673803,-50.87154139732071,1735410950037.0
2.3682367418938894,754.5062442251393,516.587636573198,-1668.3262512870303,0.005228573534326937,13.637141867162747,7.930677684263348,-10.884886050077306,1735410950067.0
-0.10180873328686668,419.3833727055005,-1399.8531179063907,1557.8364960577735,0.02467948333598145,-21.77293665982635,31.972614778685568,-19.027817305956177,1735410950097.0
0.5982499380526753,877.5958904588119,-818.6705280022336,-744.710860787884,0.019696136837028408,-11.159226293722615,33.72454773935288,21.258134525608057,1735410950127.0
1.5826502733369199,292.5446591179665,-1451.9637709000253,347.4650174733425,0.054653056094769406,20.32491060978513,27.691932575411435,12.462193477095667,1735410950157.0
0.8810894589757408,-883.861769612653,-1269.127261877265,104.84127643905893,0.039254282696672665,28.614411215004274,26.07719875223794,57.39824644310565,1735410950188.0
1.3702745175578566,997.0168766328218,-1003.0444865044665,57.67648490906868,0.0846079789046468,67.32241286205782,-15.152864591838616,75.10154741913809,1735410950218.0
0.8868270235587197,473.0229706192713,-1889.7253542342619,215.42295368225535,0.04769273099217664,54.707514400624476,-14.968508210265405,-58.95109888401082,1735410950248.0
1.7281782995790345,-491.475399926391,-2722.225942507417,-1315.6548297618542,0.028393261545376552,-13.570663043571503,15.659926032325417,-54.47087922875836,1735410950277.0
1.6227421672144717,-2391.896553138129,-2220.2324437979346,-302.86058851117826,0.021752482712467783,-12.85254974586952,33.86920735131682,28.861428617075006,1735410950307.0
2.425717948671702,-2286.82618089281,-618.213432384935,-118.40509248198663,0.043552139131656176,-38.8183863212756,13.368673225242937,-0.23926839814481937,1735410950336.0
3.0674873438061576,-1757.3155632373903,-42.27862500843685,-23.58054169224107,-0.0037704940002060497,31.62807897975153,21.32626657825164,-37.23009220300218,1735410950368.0
1.073793464609577,161.5566093544478,-1218.1194856052273,317.39664306062696,0.011341689270374327,49.83056019203575,-0.5628198486897817,-20.62559972120148,1735410950398.0
0.5690310419807592,-615.7471647010303,-1582.7173073138206,376.68197627839294,0.009747487990420564,-26.73726789075576,-3.443584519100614,-63.50136277952903,1735410950428.0
0.8298548963771006,-104.03095479864845,-1444.9965318606774,336.6956763926719,0.05203264556022687,17.112103486778295,-14.034984020005679,-48.605285860393785,1735410950458.0
0.8579260553542626,1601.5215040058904,65.98968545598206,975.8632077590896,0.027468923801584937,46.83112878364774,-4.388409977053431,34.01464438944977,1735410950488.0
1.4335686195326864,-1126.175968453903,-93.6794247064492,492.2559903211343,0.011714898419101848,-32.87463335596681,29.912885976899314,45.11094009265132,1735410950518.0
0.832027664766319,295.86308280321555,-793.1662576909088,-276.8525519263743,0.02092571062484343,-24.930173815990756,-1.1316565411108561,-27.35327795637328,1735410950548.0
1.2378782755359774,2718.9130955313003,1245.8591009535398,-457.2266619236501,0.02224118550728912,17.439962142441935,-1.3953747235875125,-17.632484763778912,1735410950578.0
2.964311799688337,624.7182676376895,226.49792461761172,-532.3185457690025,0.041297377638124744,31.38939670609107,10.230541049161397,-7.930132854366857,1735410950608.0
2.1772199278118007,3570.262752317049,1024.9947819646854,772.0035370481339,0.04752968615471378,-25.62248948916713,-3.879244821263682,-40.57711097316704,1735410950638.0
2.955804698544622,937.1889089624599,704.2760784997599,513.0503096661429,0.059074713766338514,30.853632475960946,0.10239790849071007,33.49817089758487,1735410950668.0
1.712945205631735,1543.207151152346,13.421815778523921,-307.838208659555,0.04274685960756415,9.775355040109472,19.071003938682544,-66.7008047833057,1735410950697.0
1.5541036049640593,1049.0130177822218,1340.4777506916557,-175.3856831353319,0.030537667128967428,32.310402944102826,15.496934233220601,-32.369341877150184,1735410950697.0
