Acc_Betrag,Acc_X,Acc_Y,Acc_Z,Ori_Betrag,Ori_X,Ori_Y,Ori_Z,Timestamp
1.077565388416843,-693.1459645575869,-89.32164229831307,-125.13904602109548,0.04002292614480464,24.27723499064211,7.752710708707241,28.362136050027754,1735410900566.0
2.315296062087441,2401.30114225915,-873.320435575894,228.24591751154767,-0.005071256284822211,-59.525349013015855,16.73655127109128,19.14968349145721,1735410900597.0
1.9794318354465346,-699.9777062753612,1981.0056754482353,554.5181730309347,0.011560903365009605,2.0211016065812517,1.00342277976271,62.458423586754826,1735410900627.0
1.956351142411482,-655.2499196611329,1446.594625806911,585.7672713343638,0.03305086744572743,-7.013677397465507,-1.6876892683405078,34.71320921753238,1735410900657.0
2.1123663633638365,-610.0302723703953,142.42127327170078,71.99118012558927,0.04627705730067828,9.64646192301328,27.327811929924113,-34.781949100694206,1735410900687.0
1.4180914005127183,1188.3656707165972,888.1371878434635,-136.9303803037323,0.05553468622292652,9.102039750557843,5.070834637245305,26.06413481105843,1735410900715.0
1.1125219883938697,-761.3181866880977,1286.5527013526787,-483.91475831833543,0.011658222759685852,-30.732910510705523,3.6176667736151398,9.568439352940054,1735410900747.0
0.0015507260731255634,-8.100011854605214,1616.20894826342,-417.76364167636643,0.019585915739013235,41.74365428266505,-9.759700171192083,-3.9980153605252067,1735410900778.0
1.0292168841976164,-771.3326624467873,797.5096539917993,467.12372549410674,0.0028374956590791964,-30.131943924365395,12.969735213055174,-19.11813334844188,1735410900807.0
1.3512354219441978,-272.822541160758,760.4586232176623,902.1856740302715,0.03306524178449542,13.77807166691034,9.448490991467557,-15.111853040576209,1735410900837.0
1.8240836043719526,-497.600207883026,-763.9479019603691,1531.5488297573138,0.03879873266065232,3.1072244160830778,21.030372242071547,10.197077240885513,1735410900867.0
0.2657768827754905,-561.8411046616696,1137.632738241925,2160.302299433037,0.04457505559345478,-41.05356604823344,-2.8465660283387084,-28.027579770015713,1735410900896.0
1.4305527727561431,-693.8269722683157,736.8799299795157,870.3124330658511,0.04853116483495849,-32.114587601004004,15.76007347561628,37.127501317220414,1735410900926.0
1.3840948519278835,653.7013401782483,2179.890130284003,-316.18213649150454,0.024798100686564024,-27.82500777071036,13.250950992160996,-12.034314552497818,1735410900956.0
1.9114679737046614,215.5318126666086,117.50288637694439,-728.5768646165291,0.022256049869507546,-10.004355201887012,21.175479020525337,6.655343931692034,1735410900986.0
0.2051851426019089,532.1541412200481,610.2685920593796,158.71830039473906,0.0076412615434397375,4.015297296299545,-0.49633094019217516,-29.20468540312788,1735410901017.0
1.4332217360165205,-500.0484926342427,-566.3640777347027,-25.045297132276687,0.042052817236628334,33.08942717244216,6.904829473700244,8.441033378188223,1735410901047.0
1.4713297509007035,-1368.2041468389575,1700.6262416999118,-814.0556832803845,0.04889284552054424,9.125622918045906,21.28381960819906,-58.30861421705718,1735410901077.0
3.5539594698523986,-564.8087157720806,2815.243704154076,-1623.42808170662,0.02351572606128039,6.784411167554243,27.738799291859724,4.663648394625657,1735410901107.0
2.3082997052003167,-684.0590067704768,1984.6175946008111,-968.928555835234,0.034190810508838654,34.48262225793684,6.334732322985499,21.0590882491929,1735410901137.0
1.7242739920804886,-190.45653888982451,1615.655868553134,-2014.8587951648851,0.019212128077841315,6.19317269086816,6.039031753250341,-53.85093666522054,1735410901167.0
2.129344678638917,-299.4904517080063,1489.5330980068925,-1439.3334164488383,0.043814855601228844,-45.22672908425095,0.5162540433797016,-60.64725483180037,1735410901196.0
1.0210151428267404,-104.00809278159267,-1108.4957994585277,204.58224222196657,0.010765419559596125,-0.530610453210695,12.180769452320526,31.909414666713644,1735410901225.0
0.4722991128591366,2065.115670217038,558.8306553072101,-334.5810872966028,0.020085912929013475,7.660810026886891,-9.879090298224916,-50.7917339314283,1735410901257.0
0.27792402271544725,-270.8040987495415,463.5109503330149,-30.836861895898096,0.048895500562079544,9.59234091348292,8.316980592329465,-42.21589333549923,1735410901286.0
2.4213064711697267,-3153.512579078397,1586.981052083779,-1413.5925697680645,0.034593562774771686,1.8736335432061786,12.318224122866043,-69.62097297403804,1735410901317.0
1.834718492239677,-1099.4414088791418,2495.0940657099864,-324.72251543163156,0.028953641798340365,-70.5346542209109,10.663289135378161,-35.369047782048526,1735410901347.0
3.0682051937405106,-1655.352120445064,1459.1571405400032,-1398.7854629520261,0.0306209927460439,-47.620574822540306,15.97779327264742,-58.12010928394763,1735410901377.0
1.4109334851359114,-252.63657108167502,18.210213549109824,495.19703357200217,0.04513708377918487,-84.76008231542903,4.139585335449573,-49.23763975051326,1735410901437.0
0.3151872086067732,547.5982373607098,-14.501483959531356,-485.7337173160678,0.059777330035311736,-39.54069027585247,9.16652288122778,-58.4637886165539,1735410901467.0
0.4581552612970103,-913.6333554305312,-387.76001643503037,-471.41575596596977,0.05192845716215092,-14.191080967855687,12.538537232183051,-85.45308571206537,1735410901497.0
2.179956931602428,-2559.267270434206,3434.6652542758766,-292.04543943522265,0.03760886866858815,-25.35495187652154,-2.2461443119550464,-16.12155811598083,1735410901526.0
2.5677895715713137,-2390.9720287042496,1455.292534222965,-386.69948637276696,0.03226401896452287,-67.49000540732821,-10.654461166364998,-17.989508593778808,1735410901557.0
0.18099926734928742,-94.11568785840583,1244.1990294123032,-1266.335115411442,0.07621582459560328,-7.9183518713172525,14.18803050704364,-34.97887555784417,1735410901617.0
-0.8209429167508098,-707.2868205405713,2368.771366208466,-343.62512441294894,0.0422325896919045,-25.75318073103043,7.270968061314823,-17.928732751207054,1735410901647.0
0.024844780005027878,120.64257267215515,1060.828172286148,366.05186356089825,0.03545232413620587,-40.9137955819269,-1.6782462045812738,-45.77786150990015,1735410901676.0
2.353226682545012,-2394.181394148515,1404.2383826838616,168.85191318079694,0.02236000193133178,-37.97183767478799,-0.07908255838254163,-46.16288717674367,1735410901708.0
1.7503505171852838,-1100.2808037354905,2388.4219096887996,-1329.41686718828,0.07181379007531634,-22.03274113276582,-9.116602285605685,-7.630574540272381,1735410901736.0
0.668603349255877,-1343.3383334098517,524.965429854139,163.17583435113923,0.06590492987622817,-36.01057394161251,-7.210447176197491,-25.2508392842645,1735410901797.0
0.842843111728155,5.3186369472273896,345.3149069153667,255.45455447939977,0.05227339660975229,-87.23810989650492,-15.341479585355096,21.079308470094034,1735410901827.0
0.49712425079350436,-634.7616289619854,-534.195596663435,119.84165421628195,0.036137071451469646,-42.10554355595833,-17.897022172361005,10.572602707350512,1735410901856.0
0.6831716943254705,-1429.3097402725039,891.7244510500254,-638.3186727370008,0.0448233602823628,-18.61461302544663,2.8630672981790943,-96.78254122306933,1735410901886.0
3.0991644025160556,-861.6946788903791,1928.6017452686033,149.40485685820852,0.04388548602216684,0.5023118866638114,-0.09071381530950617,-77.10727388090962,1735410901917.0
2.825012063168121,-2113.306381338844,1141.011372419041,-409.7168466456714,0.058520769877447094,12.802385700663947,-0.7361566576945835,-80.67747626381215,1735410901946.0
2.304721673537352,-390.9640158406593,1928.973210118438,330.0001724983167,0.041497420206581766,-16.708337472578734,13.815164317913002,-43.44871653101545,1735410901976.0
0.9980075008033338,-1111.8563274908768,1436.734855514173,-1462.9014677400428,0.03979976399688313,-9.196106289921936,-3.5686017433274686,-79.11579758059155,1735410902036.0
0.9860661917496905,-106.59448355974483,1240.0291753504093,-500.7700221027164,0.03256310594873558,-48.611308444332884,1.2104702104344423,-21.491442875829915,1735410902065.0
1.8245004943032832,-659.0680440108788,3127.6907398405074,-1159.8052707746087,0.012759800094298623,4.615566872200311,-18.04030185615252,14.103062785237466,1735410902095.0
2.670341145410966,-297.8687175276175,2155.673174715602,-553.5815758153635,0.06524305639691061,-49.019880245440476,-27.34612311953705,-36.302781968274054,1735410902125.0
1.7878703932441744,-528.9115287758486,1922.178228187644,-70.96000247412658,0.04480338675569627,58.61634284090048,-5.686762767557569,38.110202660056856,1735410902155.0
1.2702053807186249,-851.6735149262107,3022.417912706249,-311.9093249575574,0.0304680663700347,28.36310243333571,-4.447505421823614,35.32152741857249,1735410902187.0
2.322468661781346,438.1397298219242,334.46371767313843,412.0833794907688,0.04670813899336863,31.731535910783734,-2.889890466386138,45.421906648476735,1735410902217.0
2.177073684487219,-1239.4850829335687,592.4350315253431,312.96581037478484,0.03128665011606358,45.57435128958616,-7.835134018058468,-0.5189438536676529,1735410902246.0
0.8034899881764903,-1221.6507638017592,39.6575491086694,342.8289221517572,0.06525967488590703,18.03599513419111,-20.445584390317915,-65.23672984624011,1735410902275.0
1.6625147035700927,1144.955065892992,1524.9825775118056,-252.57454194047497,0.02626044535911124,2.355949008478664,-10.656122729944233,-3.2846170666902346,1735410902307.0
0.4889121322170342,18.778648043622297,777.4099203266998,-1647.7480299974757,0.036941333411370236,18.60359507288778,4.498637331270819,-9.726193524997573,1735410902336.0
1.1434001247410277,-97.0166893700951,1546.7424126179365,-1487.9802854618065,0.03219707861897076,-3.448948376965795,-10.526668303291153,0.2315457314836742,1735410902366.0
1.1150470936235697,-1920.087442448021,1254.4638899922893,-145.8161186216519,0.06165361089585783,19.14656319803428,-6.158627212088309,-16.97184584443622,1735410902397.0
1.0693190368341359,-830.0017722237912,950.9417431204935,-461.7820986184576,0.03936036490662849,32.540744801139226,-13.148163052897685,-20.30563666823954,1735410902426.0
0.5569082634663814,-1026.6005435389088,1239.5474492847566,884.3464070832416,0.023598167429451835,71.7836096342155,-21.230516615471956,5.409228138849329,1735410902456.0
1.2290827441683605,72.49137225043899,517.3501354658355,-235.55789785348,0.041827996757267685,54.08312101464445,-1.5730892671459573,-45.4296080531997,1735410902487.0
0.08820246575964463,-602.2398264061101,956.5162297007181,403.4982010689342,0.02906013160781963,22.6298865612102,-12.167276679853483,-9.884348070213562,1735410902516.0
0.5461762922582112,696.0274618574044,769.0534426020834,-549.889252415107,0.03516410242780615,72.07470658646523,14.898180911746536,2.6364144052142695,1735410902547.0
0.921455616404842,527.996063422335,-609.2941032985316,-308.98721857830475,0.04562463626648211,99.82192649721466,-15.482321007520392,16.335705635110035,1735410902577.0
0.7730797207545831,731.2936174958213,-99.67440663668916,-425.405688636494,0.045897210482776604,32.39034936668783,-2.5739131564695867,94.19544656732609,1735410902607.0
1.1841898199166403,935.2744853502497,-1091.024904661263,380.3789411414651,0.013150502522565131,-20.531748728442256,13.446430958158293,-28.14929324672026,1735410902607.0
1.05085320522143,-40.67156931477814,1287.3639157983914,-23.63958581557938,0.04398442900619415,-10.022109974333365,19.671678072703614,62.2647026191332,1735410902607.0
0.6043729891248255,717.3723928637098,0.09423705605141208,-844.1455496254919,0.002200402240173885,12.580389011265723,13.664138192624973,-12.695767930887346,1735410902607.0
0.6720819812504876,-1069.0900720960828,-238.1586460245087,2039.9881502829126,0.029935017136045697,-7.416356894633335,0.4737713807580306,21.338299937784537,1735410902607.0
0.5137285401197551,550.2761390931859,-537.8091552174544,750.4810569204762,0.037814083428837374,31.930130526656264,16.86427169021141,-12.254095051512483,1735410902607.0
