Acc_Betrag,Acc_X,Acc_Y,Acc_Z,Ori_Betrag,Ori_X,Ori_Y,Ori_Z,Timestamp
1.382480325521393,1335.4940085766675,-496.14494149446364,-1739.7728816761212,0.055375322071502024,-35.43667612292132,-5.692874079530608,46.78532759767446,1735410384344.0
0.9932236405032346,-243.99400952184976,13.398464881724408,-643.7504557994413,0.013482518674439089,-25.587840618619488,-15.994008938360396,8.232100573555925,1735410384375.0
0.7988699859611732,1022.8346492222306,-673.9744608469565,402.7024915637483,4.435249210096165e-05,-12.106878370790062,19.679127851604648,-13.764182820496952,1735410384405.0
0.9443511831261074,365.29585658470813,1190.8637337681944,172.34249676559867,0.062282117935593725,-35.09496846483182,15.78286680642169,-36.58108347294074,1735410384435.0
1.365992942290343,-122.63491850623234,41.748974037545025,516.7774412430853,0.05301392502550721,-12.188753320671186,-6.682193198209333,-44.399763972606024,1735410384465.0
2.1309259687050823,-1645.5182860023456,-963.4585204201537,1731.6662627771502,0.040250265949824955,-61.717948575321586,-2.671280818093724,-12.479139414860292,1735410384495.0
3.072545084146215,-771.8671958349188,-756.4426703214951,2527.027002019422,0.047988198446292096,-32.541978049588764,-1.0172080764565086,53.19842329159481,1735410384525.0
3.2143229807869687,-1260.6053151074639,-834.7906412998634,974.4915969850454,0.01188033053799844,3.843547947867301,13.999571388439183,32.57439870802523,1735410384555.0
2.044345924963632,-930.3919087259844,-418.94515065295207,1160.8121881862576,0.04522929278125174,-4.3715751066465,17.771626534290537,-52.86442800891093,1735410384585.0
2.3280566241927816,-106.66072428425761,-34.16032480825568,-1035.9296694556688,0.02368040867604264,-63.87393094563672,15.344776957742758,45.78028230201404,1735410384614.0
1.542546462605863,1678.3555641081919,851.6076472726912,-2444.469108911781,0.05197566447431878,6.231736330647866,-16.6965353879217,79.61670301349105,1735410384645.0
1.934532905319738,394.0899855667541,-1166.5733470185346,472.21717714904526,0.037033841694796184,14.210123265438265,6.304472401177037,-7.961160828647763,1735410384675.0
0.6527818719563675,129.52174078668108,1278.5525464880166,-1372.9320144140363,0.03759123970384239,-7.8090900218106505,1.5423025728602928,-61.39269104541333,1735410384705.0
1.8120907575953706,612.5083343003704,829.4645863830058,-2458.8377526317,0.05175943120399924,-0.9097551978497549,2.5105217190791245,32.55779332367402,1735410384735.0
2.397222920061029,558.9412742186257,-828.9518187486208,244.20218040859186,-0.011047604257133806,-14.232442943996864,-5.455502379915709,4.62572313265571,1735410384765.0
2.6110623997065865,199.78633796815518,2659.229718272265,-1980.5083868595646,0.036513199109358775,-34.25034693493737,25.487209331123786,2.6749550060439695,1735410384795.0
3.1068639924749015,257.90711992964367,1040.6254814311064,-1196.1340776277548,0.009013032350231362,-12.202169278217216,10.022383485118528,34.18209238652157,1735410384825.0
2.4875319133781457,1477.9281536378558,-696.2967043194067,-1522.604009760646,0.017046262036741578,-0.4731974086901083,-1.321408840263448,4.090941170775125,1735410384855.0
2.573378650775907,1401.2096566673429,884.8976325154026,-1584.031683224261,0.08582700326625307,-23.6680561794856,5.123551847794883,31.60579618984737,1735410384885.0
1.4129869092943108,1421.8895433278522,716.5127623922101,-2556.1971582303267,0.04016046656562608,-72.91328157642604,6.152650671328744,83.51611542299051,1735410384915.0
0.9484587442561803,-657.2943984531933,-178.28101167667273,-1306.397575258846,0.08418003603810677,-35.18684886714125,0.937014679362449,-52.33651085093659,1735410384945.0
3.125588184166146,255.06055313335003,349.8723320474575,-1064.4787100678261,0.06637833496753454,-73.46189980797865,-0.1561064894011075,-58.29134096818095,1735410384975.0
0.833296095540305,-1115.882380580784,-554.6701075145785,-58.164354135080885,0.05785411975297819,-93.60404701816955,-43.56385910732378,-74.13082080110496,1735410385006.0
0.9450201817049585,-33.34314045285882,-783.3849529385764,-991.0411440318852,0.04368798015125376,53.91326653881395,-15.434270967999815,29.35928732587201,1735410385035.0
1.157994472506624,1553.1037393162221,1324.925076348911,-1361.1859357925955,0.0485443093026329,36.908792201776684,11.073585592049325,14.568775544439985,1735410385065.0
1.6930539011030166,766.2532510738356,-1301.0634284144194,-657.6283234671571,0.03276271799696915,-15.122759304586985,-5.439300647543431,35.17321986848521,1735410385095.0
2.388382822850418,1260.3084152661045,-337.1867060445887,-2077.364901456994,0.023590047713893187,28.731278347584425,-20.753831149028933,37.12340289683722,1735410385124.0
1.9789135638572013,2468.193350856901,-17.184672220002994,-1846.4374964065746,0.04439242369889365,48.558525590064484,-6.518251824724474,-16.708450837546053,1735410385155.0
2.25995830718273,2604.127085787184,40.60014932316585,-2161.5794168743178,0.06045148673803484,3.4087166664491875,-10.492556770077314,26.88091507850429,1735410385185.0
0.6327930095609273,-2135.4872775065637,115.4618838805829,766.0807195994149,0.030158756057732945,32.742396737538755,-6.999146051840421,-32.049235244382395,1735410385215.0
0.6633346424470117,-1248.0855121256775,165.13001045796852,-909.825366959515,0.008846040788082574,4.326807798073098,-2.869646759927428,2.8592021496510927,1735410385245.0
1.0839046628350086,-2541.330948329101,-81.17737672463149,-1235.0880150266867,0.04172005777892751,18.006349010748842,-22.508176118391827,18.038581685919027,1735410385275.0
1.4889329903445327,-23.249153330867358,-682.4516685933581,-234.9640633629358,0.012200607609029433,24.404557730540457,-6.307590646645304,-27.727586687282237,1735410385305.0
0.9748943984856533,-157.86717284912461,991.3085835694724,-292.5825719533983,0.03562169806024028,67.95443507287607,-3.1196192009116657,7.0072676889841325,1735410385334.0
1.878940215652717,488.4886002734126,-294.7650555905449,-258.64130931140517,0.0652501192953647,45.38765032923003,-7.954267633319994,-33.57531080275949,1735410385364.0
3.1601140140755097,-1021.2589111512978,-1506.885660003571,-2436.9530930043693,0.06617746672210847,16.427397389214875,-4.926740658400116,59.095750218055876,1735410385394.0
1.44800361004684,-1169.321852211096,-569.8298137160447,-2706.285671438158,0.05984363741710006,41.626391655352336,-13.875832538981008,-30.05392547143728,1735410385424.0
2.298006131695491,1254.742564708103,-1151.3002888714004,-1470.093287010028,0.047219213319189005,66.7296242415263,-12.732403024942544,-14.49896656055665,1735410385484.0
1.9986077378375944,2013.0079947434172,430.9621475786756,-871.8432888952567,0.06401574112601392,57.89251171112356,-19.764707279315633,-30.038840580383354,1735410385514.0
2.2610997359252742,-788.7303623772982,315.43047001950856,-2071.973691080625,0.05247523450770864,103.86929037840633,-16.625868846522607,40.477509509608396,1735410385544.0
2.247016362627281,1372.129139487799,-619.209819774068,393.6212043896769,0.040293168866182616,43.27970264235571,-15.14209783067726,20.653793729186887,1735410385575.0
1.142682245477344,2325.9848057458003,1632.6974586691686,-838.6206190304713,0.033930743895483506,44.04028028311376,-12.393802333193362,72.26049700155669,1735410385605.0
0.9592110804660536,810.6034461927889,1859.5122974322167,-26.976204568382173,0.07001449948982943,27.81825483347987,2.554066404936692,-69.23062170352341,1735410385634.0
1.2960098682050323,1319.2306956156663,1106.0344215898135,-377.65687062122765,0.05302480301752636,19.8769064844216,-18.150454862793424,17.53292824525663,1735410385665.0
1.2437502649800933,1908.5563544793404,2993.97766185618,-1201.639782378829,0.02488255912866287,4.308762116113712,8.668685395456073,-16.10278730978193,1735410385695.0
2.2488528635330325,466.59304680420723,1057.435154950193,-1288.2847161759319,0.0433295409038367,26.261061874277324,-1.8157735633307543,-19.369842112683475,1735410385725.0
2.0242369877397017,-39.54332665826905,1968.70652412013,-480.82218247299204,0.0546586407262663,60.31617748454259,17.438564211624772,-14.807385743386643,1735410385755.0
2.611020515958233,68.34639057022173,1008.709189424264,-1327.9332082297572,0.038052421959123,8.388318593017814,15.461279818962609,-73.2534002725192,1735410385785.0
3.0175489684627195,1820.0887153129129,992.1199430635078,-474.80096636351266,0.02929868012599563,11.736240558488644,5.783916979456086,16.938843712031826,1735410385814.0
3.328675158204345,2628.4558712203398,845.0448346060903,-14.210460897180155,0.009923672119989038,-8.33518971720272,10.585907290307615,46.14319483868039,1735410385844.0
2.00477536164611,1941.2315077427875,1722.512067613909,-775.8486535249585,0.028645413039430957,36.83667991497858,-11.834585198857567,2.544701432313989,1735410385875.0
0.6346034057033936,-42.70789928096414,-88.9078470650046,480.11697130748325,0.021909368080297836,-2.727512893290033,14.544246155661408,37.10479135960129,1735410385905.0
1.031198270459841,-499.2044485468665,-779.3135479900345,-17.538859382967416,0.02054659539045659,-67.52684128466589,3.8901175784170494,28.541992629623937,1735410385935.0
-0.22308215427397216,-879.6997834839005,607.6227205307392,-214.83531996170075,0.052032910465415166,14.562489056885457,-7.496045693968679,-19.75118794506199,1735410385965.0
2.0205690658616517,-1006.4701881928763,2475.338826745713,-848.4956114836049,0.05350497486921048,-27.930890580685983,-13.11590675194309,-24.67707233382568,1735410385995.0
1.8362399136248608,-490.81477069268976,499.2322971603262,-810.499176833049,0.05620482221610549,-7.14005720350181,-23.40438030048429,-46.53918493763167,1735410386055.0
1.607993675527128,-811.2451317942159,-857.9791309870061,-2.060092993824753,0.04302410797738401,-60.51927615406898,2.762767254194877,-42.359101978609175,1735410386085.0
1.0628267749557745,-311.7962652346907,575.3448080219466,-75.62412308391401,0.026521764359364743,-9.776904597798783,8.299847654172584,72.11344624211907,1735410386114.0
0.6607646968548159,186.1518733294928,608.0769389410082,-630.4826804040385,0.017275300582647424,42.99464241276232,9.8212742007738,-36.33549246595571,1735410386145.0
0.6463655785315887,-555.1159178345423,1715.2763083773261,242.0263267733834,0.01499014023852899,-37.161249478060654,-1.6016257675951031,19.058807424400413,1735410386175.0
0.4901148896396582,-767.183026414526,463.5014025013766,-292.2233840681605,0.03180963149259159,5.375285485026836,2.238309428993227,-25.295690313467965,1735410386205.0
0.8084124141517182,-421.06938593705314,2527.745039485893,-779.275222746282,0.054777032284067585,-45.451054067549975,26.809677400776714,38.280528318788306,1735410386235.0
1.6578630412726465,-1594.0624374818274,825.5523440500428,-664.67004377327,0.02679482424440918,-3.71112121212202,-16.45659822112026,7.7805960284782945,1735410386266.0
1.7943705383242712,-1315.7122689714922,1989.8858826890287,886.1294045739814,0.022322211600765612,-70.35468447163805,13.38617015663878,-7.221095535468886,1735410386294.0
0.9497543472374499,227.3499869196914,977.4464183974787,1433.1651176053565,0.042079840966681284,-21.81214413683218,16.689714220788343,-40.665515451445096,1735410386325.0
1.1818373652015541,-212.8649155959468,1804.160756526846,520.4607976131218,0.03633684540357916,-15.105228899007022,20.527063235410093,48.79676326338317,1735410386354.0
2.287930823872952,-295.3253503942896,2326.8529739169594,1102.2782550038917,0.01117581763872558,-55.87565781512532,3.6964314794714457,23.021637585572996,1735410386385.0
2.1898225540525855,-1587.6624933709318,343.56496294105636,1080.5219875794182,0.05298815575365674,-66.74769691482005,-6.817554527621078,26.620675363942226,1735410386385.0
2.0924058351984667,-960.2138071334732,1287.8240309239854,368.5317461500502,0.03918509881953315,-25.738823215001453,13.866157196368807,22.970282401835703,1735410386385.0
1.2738654109757408,-250.86417243246905,994.1097116989275,1204.7357007630283,0.03287164066875181,-34.48649428823211,-2.705580980527608,-2.4477110490539467,1735410386385.0
