Acc_Betrag,Acc_X,Acc_Y,Acc_Z,Ori_Betrag,Ori_X,Ori_Y,Ori_Z,Timestamp
-0.31240501210799587,-319.936112984057,1447.1319967416764,-2231.608811806887,0.07394835547591694,-59.91298349661042,13.273677408849888,7.834900649976156,1735410493908.0
0.5047579556338118,220.53267301869,840.2453309614654,-1554.0589647706593,0.07144910085501424,-54.52860584310557,0.01794183415778683,51.7026452513041,1735410493967.0
0.7760825772077202,725.8815106656302,993.5778312422967,-860.9822981828552,0.045850139298201115,-12.967408233633932,-0.11616225521883194,16.84296803696633,1735410493968.0
0.780773027281546,470.59926079921587,807.1817785071164,194.0590556216615,0.0681668520208316,-48.281904346143854,13.383921531932607,74.88986400048373,1735410493997.0
1.5624783510604618,-668.7689014664518,84.9809891846636,-1272.4156540614358,0.050060825399840275,19.482678199215687,9.977008946644183,25.355479406232313,1735410494027.0
2.096817622215598,241.76857853269092,542.4301417964193,-1346.9369213669224,0.04063815162586054,38.993259947380565,-17.135302514101515,23.60464008640166,1735410494057.0
0.06756509207918748,772.1382280534348,1586.751769589779,266.5230677198431,0.016491409954156253,19.28102852997695,-6.832481449838221,22.47272388479277,1735410494087.0
0.8612046705413071,1333.8939294568122,1498.0439781780335,-1435.9623206735118,0.006164792640337201,-38.021491747039015,-18.234725778457232,25.0530886243403,1735410494117.0
0.9837810974900847,-179.08176665730184,841.9843668851621,-1262.2784162414437,0.044426339429912774,6.541674896187072,6.305058199198819,23.691866573185937,1735410494147.0
1.021509221397895,609.8492589389607,-563.856175011839,-122.0500791547139,0.02517956696623106,-27.04042568341156,-8.229191651766863,31.901779259822742,1735410494178.0
0.5204054438640063,2129.4163789258037,1516.1082852880734,-1014.2556992333167,0.03603042787477073,-2.4216939873994185,20.78737283540147,-2.746163211916393,1735410494208.0
1.5827938710369218,1526.3660265457056,580.294882452349,-894.8130207119867,0.02224584703273982,-23.185097184488107,11.639048360088676,16.431027630583714,1735410494237.0
0.9453815013468504,454.9583542094722,1083.0769172362197,109.25442687032114,0.0399078253797961,-31.45651344199627,-5.600444420326623,74.03004275919247,1735410494268.0
1.402308975979052,-352.0712759891899,915.4550972884092,-1363.7411906432915,0.034372269989646445,-0.10243431586453511,-35.10951433884736,19.636794034798037,1735410494297.0
0.6261258752066853,1251.2372459002438,559.2239223354887,-1885.8807383649369,0.00782006842627387,-39.13527269188016,-14.889292826326141,-17.07777685404124,1735410494327.0
2.282740606038291,675.120302801135,854.7569462855352,-622.6509068617967,0.03809129432642101,-3.2050321740735725,-2.7951646436235813,3.787263851056796,1735410494357.0
2.654707974220817,350.697575545969,268.8206240296736,-1994.7920080830625,0.04387233055053538,-65.81229882650634,17.06002423583872,23.40952947229608,1735410494386.0
1.384526413331436,-1456.323247894326,1050.0286847974858,196.60577016384912,0.053311076524484066,-16.012298566244258,-1.8793230335796256,63.28677313946227,1735410494417.0
0.9503220407093936,-1367.397907767568,1214.8789967706034,-722.5172062710876,0.06490429827431092,-85.23680219347375,7.534313492611492,-14.49889289510461,1735410494446.0
1.5898504873181722,-2329.472257941079,313.92671745593816,-113.70845810284851,0.032172284321530145,-27.349445161936842,-16.651253091846662,9.315352494337183,1735410494478.0
0.9102688516361728,-144.41258195070964,512.4101146431052,-480.592819947848,0.042573278786339014,-63.05281439084591,-13.645295101915778,-24.8406733461171,1735410494508.0
1.145668404332388,1400.0714135877965,-586.4658818437744,-2012.8573922582154,0.04929770917227412,-70.25753697252868,-17.81964203231293,38.43798715812264,1735410494537.0
2.5078834738597946,898.7999328186141,-998.4207854836286,-396.1972023445445,0.0719371459689171,117.25289778969076,19.99263607940525,-53.473744737460976,1735410494597.0
2.5414420925371553,-445.29508056910106,2311.52737522149,345.34833603335323,0.07506963951757606,70.45603569975574,21.835148420379,-65.69618833883797,1735410494627.0
2.1084172675075967,-2102.771547426619,416.11886139255716,-1732.8570364381922,0.04166005107300729,-42.719531225010805,4.50672703843998,-16.231097443013265,1735410494657.0
1.4987010301149852,-1824.0126290737576,651.618839980655,-1770.6192982751543,0.03894083528315351,-34.25406910022635,-13.679159302942256,-27.638737073240055,1735410494687.0
0.3540800896812124,503.58942236432034,-641.4848242773329,-1704.0843476671484,0.03330478498442219,6.5941007171968735,12.97123442752478,-51.18824944118869,1735410494717.0
0.6333730379552479,9.111490689203265,1109.1893291244955,-987.1830195885326,0.03224905330061215,-53.29453487513457,4.8602119069309895,-44.42195367467252,1735410494747.0
0.4971938144450917,2373.9555591467442,-534.4281731775553,-1931.4596990442376,0.04545609939793845,43.82157216008293,15.854729061849847,-15.747367335874872,1735410494777.0
0.5215639175093485,1681.9482583535935,977.4520756040316,-313.521285567109,0.041507918514263664,51.08085086936815,14.843040766187816,-39.67935022223156,1735410494807.0
1.2937665899312936,-143.9377226787592,654.8532876837385,-929.0931599410204,0.04751354595383242,61.41928610622633,16.587165251358883,-1.9431910747979124,1735410494838.0
1.4358494930969758,-1326.82974895802,287.6437536447445,-2478.4650148937367,0.06569067325047079,-2.32262045112801,6.626193294467001,34.0818724358988,1735410494867.0
1.5268250719048222,-619.8941237797156,700.7957602167432,-1557.8725682366794,0.048350425315379295,-51.1157113484355,-3.703631606897252,-30.18429806707764,1735410494896.0
2.025678436054381,-145.34573932274316,136.8247995704482,-906.2930798900506,0.04608520947166985,-17.850698873128483,-18.273822092958625,-8.292550914619987,1735410494928.0
0.8256354061325375,-256.31774989893665,1718.1741868378165,-1217.6104176136996,0.045490453784825684,-56.60226006229498,-12.19153183991334,-16.87323531574873,1735410494957.0
0.8111675026147628,206.86670490907397,-49.30565385184582,-1074.5767768958826,0.04526520248514119,-16.691831010640943,17.61456654028054,-45.52960269731926,1735410494987.0
1.275775354477437,-163.18919437776327,1385.1313595448446,-780.0613169859827,0.0308621279240041,-56.71147391982047,6.260267239997642,36.81396303757921,1735410495017.0
1.5944137169404962,-915.153467395279,386.5962455449383,-1272.6161567872014,0.03006998373700049,-34.88245171524757,-16.463416679928955,-34.85664976538425,1735410495047.0
0.6565043569434046,-1567.6513358330217,1452.1754203030766,-659.5735513939695,0.04525015314557016,-46.98897706560746,-16.921057589059963,-32.243253106576674,1735410495077.0
1.640537290038386,110.72322913148548,219.0943486642032,398.5452458680031,0.0448288385079114,-61.287249951472006,3.766673854006335,-24.113784717361423,1735410495107.0
1.5652152407897475,1707.2598943994751,-160.42005168198,-1974.2003667190106,0.0572015002601496,-34.82016835578785,-25.235479859490987,-13.30403357243328,1735410495137.0
1.7382124442591045,778.231115356476,1704.9972833070856,-2020.4486045150009,0.07211359763479556,-35.226046066021524,-3.769696512007157,11.534953523322773,1735410495168.0
0.9559073121329114,712.3543676045553,738.5614877083149,-1218.2460843674885,0.044045413575595715,96.16897910625266,17.656183467125107,37.663963137274436,1735410495197.0
1.0538335709587043,1161.4437196675349,-213.19168957368902,-984.4996272454223,0.07199663202470633,-51.29272417799419,13.104155420922424,36.66752202846604,1735410495227.0
0.5157974919145951,-70.18416741399663,494.70379884440706,-39.996377805071916,0.05940399012405623,-19.474255060948614,8.503092218300846,-20.013939858843553,1735410495257.0
0.9461877940743779,-722.4912551714291,-155.07373566778654,311.85478062471134,0.05564420405197638,-85.19021140488351,7.4743496350662575,11.979322777671463,1735410495287.0
1.0669741326797446,-1106.6671705138301,118.88339058222476,-410.4501147114952,0.05407548805589654,-25.431135791799115,-5.177936511754031,51.443911746985,1735410495317.0
2.253524060721238,1685.5194955149996,1886.1611609170043,91.59614052899133,0.0640617746535872,-44.42521069738872,-2.2843153813548196,7.299016233025153,1735410495347.0
1.0023440607727343,535.4055656713587,-928.8519289680892,-343.48617493084873,0.05160589607008207,-42.164228490641406,-17.48303207187428,57.60521863623826,1735410495377.0
1.5561497432762426,-354.14190551120123,2636.224480387084,-1651.9688150909888,0.035256469498749304,-45.16929117335934,-12.408510178189335,40.45149457816618,1735410495407.0
1.5540556399711611,394.59370977424373,274.6232235313686,395.71158935363974,0.032964120308359275,-20.83781499389926,4.430484508019244,-2.9759041924949123,1735410495438.0
0.36575106004559566,883.5268967667834,654.7321574280594,-647.559146878108,0.04046301038809399,-7.409895785847699,-3.0872432433728076,2.116111584095206,1735410495467.0
0.4558205419670702,1230.8516504477273,478.50635092287934,-852.5769475102617,0.011828351929374335,20.95261963511662,4.696251994816555,32.74040613395299,1735410495498.0
0.5097698954626632,-764.1595846051486,1315.5328016170392,-1514.0686527193348,0.039223400778139704,-36.878336991988405,-3.7027181545076115,-2.8228048404447854,1735410495527.0
0.4593098089812273,-1680.44597292184,1368.0309239157118,-1088.2502633752877,0.016907731903740137,-25.96069276712848,16.475612732390832,-18.677851253695707,1735410495557.0
0.578027612135354,-78.31487212280678,-381.67007119488835,-1006.1259359702185,0.04463635007074166,-5.191308628780135,14.042694370138712,15.491648695391898,1735410495587.0
1.1538955024065807,2065.7575800074046,976.86825519119,-1435.3068541102948,0.06892085994139549,-33.782956245228036,14.278028039036746,2.686296649145432,1735410495616.0
1.3182133651313876,284.44284087116046,683.5303771842853,-768.5585299089737,0.0371510700701357,-69.95647198676613,0.5618351059029649,39.86627219728981,1735410495647.0
1.0826839673237507,1219.3676085861143,102.12722028108146,-1175.9158713474596,0.053783251573660255,-56.45037893888253,-5.856582537294269,43.38263730768983,1735410495678.0
1.1373462560136027,106.10109975965705,511.75073461581405,-1437.5640649980176,0.04053381137825061,-29.45910589102639,-0.6692786953135098,-14.801443176698077,1735410495708.0
0.8384036715029433,-917.4923936993216,1482.983878248961,-967.5921353068388,0.0495991040920554,-63.11512239551756,16.187415330804928,5.248764809860106,1735410495737.0
1.4855211446792775,-256.12626393859205,982.1285248915991,-871.3662916859987,0.036276471476995954,55.45462287623975,28.88414403836387,22.845445941842172,1735410495768.0
0.3487031753189265,1040.9153265340908,55.012928778252615,-1365.2054626005768,0.03908852712058181,81.3203704663141,25.393019141868855,3.225667605363919,1735410495797.0
1.4183654991154149,1363.9613837591914,1612.5246271548608,-126.54240266710042,0.03467125780742826,36.99571792613245,4.921598303063181,-16.402999487976878,1735410495827.0
1.0705783019230992,-254.2150420741829,807.3315026428459,-1187.7493330481655,0.021003710308029836,0.9319522972950054,19.594439659421468,27.11577793557627,1735410495857.0
0.5848874806643506,361.7289129516694,-222.48573586001078,-1530.4174731611524,0.07126150762435118,-53.83686958167153,3.883999667074236,31.243274365544323,1735410495888.0
0.8287654124900419,521.9136112308985,629.2692092901752,-2819.051128700612,0.02711267541818599,-75.0124735794497,11.337179974875037,-56.09159515164846,1735410495918.0
0.5640340434693101,-252.50223812651873,414.6859099326932,-2561.5388971480534,0.05656652778280956,-52.882232044486486,-1.0428369085837665,-36.6708180207529,1735410495948.0
1.569669948564838,-620.5441447407595,576.219612230796,-1546.1011988897512,0.014586180302445233,-108.46248612600212,6.460119056842022,-48.27110663101732,1735410495978.0
1.618944729996433,1815.2021967930693,1225.0321125611272,-2359.628175096274,0.0384462350982556,-51.9622455415807,-15.52432223435374,-23.61846939995482,1735410495978.0
