Acc_Betrag,Acc_X,Acc_Y,Acc_Z,Ori_Betrag,Ori_X,Ori_Y,Ori_Z,Timestamp
1.5343770228015083,1743.1514646882274,-299.05303258394474,-143.98357371602197,0.04652885144372029,42.69881735012122,4.311214061350871,-8.474679127664267,1735410729233
0.803409170474703,-604.0465379422258,-199.85313338420934,-314.91121557477436,0.0567525067487593,-117.39147223891194,-12.886895101504287,-20.566174699085835,1735410729263
0.20168783814350077,-2068.560626482628,-943.7734858618232,-348.56572034527994,0.04564752089112756,15.416592572797956,-5.910025977960084,37.24336590875669,1735410729292
1.3017591647383786,1589.5393526095827,-1805.445850960003,-695.1713845032566,0.046872622132474416,-7.228706163422457,-0.946833122703441,-66.38582129658448,1735410729323
0.6975129189045393,2514.334528575593,-640.1782919072818,-1440.6565972008805,0.04313589499839432,-10.376837390658341,-25.316891100484643,47.63262656572438,1735410729353
1.16089711803141,1823.2464132696493,-116.53493001498646,494.8905997849538,0.04556564485259357,49.54490058698981,5.873807744549398,32.43601863676689,1735410729383
1.3132192232556383,1360.7879222097429,430.2912174565463,-822.3437007161062,0.02502327803695381,55.496000636009846,-3.6412689685717634,-6.176034872721354,1735410729413
0.5866525662434381,646.4844357301948,-2911.360619664617,821.1577398281303,0.01267032114807377,-12.650938497256409,23.88337956426704,3.69927963275972,1735410729443
1.0976076544901665,-639.5017824770514,-2695.0832756356062,-7.257553634071542,0.02696492581469758,-33.46079939963976,17.134253655199224,-11.712514327409046,1735410729473
2.2966074181138354,-76.73716276919743,-1273.1981444355852,84.31742673176566,0.03272016600174074,-26.465693525505994,-0.10239291426499797,15.422838474699722,1735410729503
1.3220103031846384,-486.692844643478,225.7231459552861,-1919.4784709082162,0.016756240043399897,-35.63214014358798,2.4072781658416966,9.24150201743616,1735410729533
0.2826316437850852,-233.88264201943758,-1129.7719016038338,646.2422886227715,0.02703059315418136,3.1853452456172047,11.59441055173664,14.474285285239803,1735410729562
0.8842393643555513,585.7939713587737,-711.9980319506487,-301.3719346043698,0.04652069970522221,19.206154327900876,0.944383764842258,60.14603622266546,1735410729593
1.0984064669981315,1649.4655049056137,329.85603514616594,-207.14723692098528,0.058513231577079466,34.86332406271228,3.8167881189882884,30.72150427122523,1735410729623
1.8331092497284232,-209.4035562617288,-411.89069689706776,550.9559967772832,0.03629418089100046,-32.947487455479816,2.0510521100992216,-51.716993247058895,1735410729653
0.9347709607313424,-713.5531582113352,450.17628505435925,508.8013675942201,0.03858317525367005,-6.740267195981669,2.6973532461310565,-50.05127394496576,1735410729683
1.9363447902631552,-1098.887588924952,-250.65505147671442,106.07077860846607,0.02327512666128405,0.01269289070799573,-2.3794614827737663,-25.063556359134612,1735410729713
2.2655525017847844,2235.371860824882,-1734.2962764688368,-869.6986369853387,0.06466181341496376,19.675937392849207,-9.774217250255395,17.511293892779932,1735410729743
2.7651003952898954,1534.37730861156,-2301.203058546814,-1255.9775254409276,0.030590971601764962,16.79909078705585,15.20276033428371,63.395511352804704,1735410729772
2.8338337901929633,2741.1523150008834,550.6195166840419,-1378.2038799455536,0.025737193990205322,9.090489406101945,1.5505446580050943,-39.92162290344264,1735410729803
1.8585533407744397,913.5645254915142,-2894.886304874105,55.170895115958615,0.00746615162900085,16.51258640789687,4.454670692554554,-39.277878101706854,1735410729833
1.7755970107187984,1782.5720183858634,-1022.2140609827939,-800.9293748037755,0.03677123579282819,-13.323760352968709,12.867132496077396,-6.5039899886849035,1735410729862
2.4271269593959652,1293.5272572222884,-1873.671556610827,353.0194313627773,0.041061700154084654,27.29376571256118,8.881777853821346,-3.816287075162059,1735410729892
1.7784057397420228,571.4998522632995,-1172.088869386334,-1143.395156125171,0.048519519354811455,1.444681059010307,-15.156352193230504,-50.03004005563412,1735410729921
0.268381407827201,-1079.657192849324,-788.3044072423281,-515.8983250402767,0.03255657991290711,-7.808973425706524,3.294881092409401,-40.203897523402496,1735410729951
-0.2582588099021008,-475.9000307155187,-1649.008461145838,57.17902354272035,-0.01475431664948209,-16.63970928871741,12.001596753959111,-26.466481924270326,1735410729981
0.23337555515768005,1136.2598937629944,376.14468978793775,336.72075150575785,0.010516075415754464,27.820421194197454,20.376339795348155,22.434465332944676,1735410730011
0.7005596976545236,-1651.0610005332287,-312.12688325312814,1505.8272312416539,0.017968648716866733,7.669884882761771,7.5524913112799,6.515832218274455,1735410730041
1.1062770896107001,-1772.3759703534288,-1181.7157894493134,1330.1885213058995,0.04224712136950903,32.13391928256012,-0.17858182264489786,-17.975795358317175,1735410730072
0.9392208581623036,-823.94742102759,-306.96062755262585,497.1587151479399,0.05963053328125967,-9.358830369991242,-0.28684774020815773,12.475698861439803,1735410730102
2.1616618482547993,1700.6996783971572,-1231.8059619096716,-695.3792318959819,0.045271552270554766,-11.601873452396834,-5.645520934714741,20.343278125944916,1735410730132
0.9909289195875737,1931.4963523458973,-619.7420892679115,-1883.0917113658038,0.03820145122113532,60.17536035738625,7.884792414645655,2.351969152300959,1735410730163
2.1851983302501683,1279.2153950634063,-358.2389437989043,-101.07747184627038,0.012498926664918045,-15.10319660346864,14.984942827316486,13.639472625617476,1735410730192
0.8520231657747455,3049.603707457828,57.93008022514874,-1740.9263084208485,0.06781349822480155,37.13582284989227,-5.195047227401022,-40.10961748416756,1735410730221
2.790333442340634,1550.9997365426364,-2777.553211558824,1094.6040380384109,0.07969181970568968,46.59570239744362,-21.301772949831005,-80.21208608632193,1735410730251
1.8051059367933868,3338.572555445129,-385.70317893298557,-353.0316666723852,0.050651552122092255,-18.652725900761048,-14.546109903541932,27.53246471633302,1735410730282
2.968697027235179,2361.1821606918597,-2645.4411444149755,117.81537482782119,0.01857390597628556,2.531076421250507,-10.311629755851353,-8.2917434909645,1735410730311
1.108281415383757,684.438458850145,362.6066945436428,379.4450993912747,0.03302998095850533,13.353315122454498,-21.652482687703593,-0.4264484206673522,1735410730343
0.7488295374607818,494.42654611222963,-237.11238708911515,987.483412338468,0.030363269430184272,-38.11141106472236,-32.26413956180256,5.779527458276899,1735410730374
0.5229373009644537,-164.87172459525317,-645.9946548598272,-1556.9020543247677,0.04036562524110976,-27.609754754820614,1.8410689664875122,128.65254068080878,1735410730404
1.0770406812049464,-2410.3153260322397,-75.42244154607124,-489.73897048711433,0.03251155131023798,20.850595062892715,15.859259733564723,-3.1239403664018894,1735410730433
1.3310532826287582,-879.3815063262997,141.80739085862777,303.8466383994978,0.03511159543700478,10.027761418926248,7.4085098396813525,-44.33083629719659,1735410730463
2.134741345628941,-1921.689942739817,564.6999655927775,324.9302778626353,0.01637661963949918,-7.494703978900837,-0.7131453544047857,8.351642316504147,1735410730493
1.2072353514832657,-2321.7834608335797,19.46423381886399,-312.9110285501022,0.02178286165576974,30.198609218447764,-13.586004280190766,30.41032284213648,1735410730522
2.9809114129212,800.1772370717165,-275.7516478383684,-2083.811146303233,0.028193230714309736,41.778059672240374,-8.303319860139807,29.58763718871443,1735410730551
2.932449249314546,1766.8539252846908,-1836.6853748721887,-1932.4111184671838,0.037453978598479785,12.37364806151209,-6.045000175746226,-77.37655358750712,1735410730581
1.8146887815943575,1382.771458782016,-682.0737712369194,-196.25874065315304,0.015338633291647853,19.915681258112443,-0.7586691703777029,50.80061146366416,1735410730611
0.719224134457892,82.09972736930865,-1056.756384203737,-189.5524625204721,0.038673603920464816,-51.71148904224265,1.98491774356951,64.07755193601606,1735410730641
2.0344082255084612,171.73077777536994,-2423.1511690331345,246.0204745340489,0.020435812214901268,-17.621724301566598,-7.982865651562607,10.165145240437422,1735410730673
1.625488225249415,-329.5329743567022,-1054.8147467128551,-476.88615891756746,0.02254702835384895,-6.803723203911718,-32.709777655269455,79.1328795717142,1735410730703
0.3445178940747174,932.1145895918303,-1558.6789281875258,697.5155450408483,0.004691905622378582,9.597021737143727,-16.96237135472392,53.779630923766454,1735410730732
1.0733012870971614,-1619.5453431069586,-26.962968098834665,-168.63987688508632,0.017390042707837755,-12.082452148630797,4.358551731830396,40.031963176313184,1735410730762
2.1306114147683712,-1583.653838427822,-435.09468472419456,246.34959438775445,0.025881970022299784,25.525116429985697,3.187716640975149,-62.33733031245162,1735410730793
0.818217640600722,-1268.522516087199,-360.5979959467157,623.205384482953,0.013666233072298715,14.916572385550673,-2.1749068924802866,-3.2357527753657536,1735410730823
0.9004227986249049,-590.2139238793129,-223.56259990593847,298.46457166982833,0.012679583790731952,-16.553582423420437,2.2087501075477127,28.847831341090146,1735410730853
1.3023362780246817,-910.3359719711713,-1052.6067296341246,92.47950308041084,0.04227514928208971,14.804908343352382,8.809297274492176,-52.43767483633259,1735410730882
1.7200476032805003,-1493.8788131270924,-381.032650558822,1370.4550881518642,0.024486965897029145,-13.518017672572137,-12.588910611163028,-39.09074737138775,1735410730913
3.6185757664549767,1944.165641187563,-2252.6212507773453,-1970.1545058182842,0.04002036252361788,73.52566628288508,3.95975096590688,-83.72405550658604,1735410730942
2.4357768741435453,952.5396204655506,-1977.7739503243438,-443.014139005719,0.023286680096725198,25.229217511489026,-11.22836432341174,36.793703484924706,1735410730972
3.3224171817480843,2996.287757515262,-3107.117955624025,-194.93089700073978,0.023564245524717402,17.704105443568743,-15.269251747903812,-18.950001087198068,1735410731003
0.923109105698353,-547.0898094779584,731.2754691536361,157.8071450536965,0.01472942805353228,76.29897433467049,-8.475184380817447,6.091600332241008,1735410731033
2.482734130234391,-663.5174583132803,-1496.8292125512232,407.90634341221556,-0.021624731297872807,-13.26235600046426,-10.518213025495225,-19.80902556165702,1735410731062
1.4911721767547914,-151.27921723352313,-2321.5943275872764,271.69257334797925,0.045227860063789635,32.03219253432381,-21.570545938304253,43.73792325262569,1735410731091
0.5552295806034594,1440.1671659992026,-516.6338740000806,1019.0897674651935,0.04734256978158626,-51.642062662955155,-19.627240719168963,-26.92455133153687,1735410731123
0.6789052635691475,-1877.541607679237,1241.955528473391,331.8015944711469,0.06264554164872953,16.633601999884455,-11.718653693545857,70.64607347291027,1735410731152
0.7112090980619751,-1279.5135147803387,-1429.6069218358098,-1175.3597363108515,0.04734447213913112,28.184575100570235,16.992744100933574,21.55905789856716,1735410731181
0.08269704230888086,-1624.4057144700002,-32.670981308945585,655.1691003438688,-0.0005075885974852312,-6.331830968079957,10.585112578469378,-30.94628752757297,1735410731212
1.2915094481899585,-341.94404380897186,-2618.658985402588,712.0232491873525,0.03530980902527151,-3.5317010567643834,-2.302606295832325,-12.474906467661338,1735410731242
1.258127333941271,502.7393371153378,-754.4510929745819,6.154767129452395,0.02883441638582885,-11.125648430974252,21.31487684712835,-18.254358643953182,1735410731272
1.2395632275509545,-2473.186627510064,-98.20686403391477,547.2733356133793,0.00790642929518031,48.500167805150475,-8.836095203467448,0.6607308482937455,1735410731303
