Timestamp,Acc_X,Acc_Y,Acc_Z,Acc_Betrag,Ori_X,Ori_Y,Ori_Z,Ori_Betrag
1735563541697,-302,-12,956,1002.6385191084571,-9674,4174,9837,14414.406716892652
1735563541697,-302,-12,956,1002.6385191084571,-9706,4183,13066,16805.483658615718
1735563541706,-279,-3,917,958.508737571025,-9728,4201,16292,19434.805092925424
1735563541735,-279,-3,917,958.508737571025,-9745,4226,-16487,19612.375429814718
1735563541765,-279,-3,917,958.508737571025,-9736,4251,-13248,16981.46639722259
1735563541795,-261,-21,924,960.3842980807215,-9711,4269,-9993,14573.535295184898
1735563541825,-261,-21,924,960.3842980807215,-9680,4276,-6749,12551.31773958416
1735563541855,-261,-21,924,960.3842980807215,-9654,4271,-3505,11123.227139638928
1735563541885,-261,-21,924,960.3842980807215,-9641,4258,-268,10542.830217735653
1735563541915,-305,-33,903,953.6891527117208,-9600,4240,3004,10916.117258439468
1735563541945,-305,-33,903,953.6891527117208,-9574,4208,6275,12196.07990298522
1735563541976,-305,-33,903,953.6891527117208,-9582,4175,9522,14139.088832028745
1735563542006,-371,7,896,969.7968859508676,-9600,4149,12790,16521.449724524784
1735563542036,-371,7,896,969.7968859508676,-9617,4133,16102,19205.28005523481
1735563542065,-371,7,896,969.7968859508676,-9641,4126,-16591,19627.37980475234
1735563542095,-404,-2,943,1025.899117847364,-9654,4107,-13278,16922.54262810409
1735563542125,-404,-2,943,1025.899117847364,-9652,4047,-9935,14430.645792895064
1735563542156,-404,-2,943,1025.899117847364,-9696,4000,-6629,12407.903005745975
1735563542186,-404,-2,943,1025.899117847364,-9760,3979,-3345,11057.986525584121
1735563542216,-395,-7,958,1036.2615499959459,-9818,4072,-95,10629.36183408957
1735563542245,-395,-7,958,1036.2615499959459,-9787,4166,3218,11112.895617254757
1735563542276,-395,-7,958,1036.2615499959459,-9693,4228,6589,12459.741329578235
1735563542304,-385,-35,933,1009.9202938846214,-9575,4246,9972,14462.01662977885
1735563542336,-385,-35,933,1009.9202938846214,-9475,4218,13334,16892.68199546774
1735563542367,-385,-35,933,1009.9202938846214,-9433,4161,16661,19592.966365509845
1735563542396,-386,-28,913,991.6395514500216,-9450,4105,-16056,19077.438533513876
1735563542426,-386,-28,913,991.6395514500216,-9508,4073,-12806,16461.622915132033
1735563542456,-386,-28,913,991.6395514500216,-9571,4068,-9567,14130.82283520673
1735563542486,-386,-28,913,991.6395514500216,-9616,4085,-6322,12211.566852783471
1735563542516,-357,-20,956,1020.6786957706132,-9620,4116,-3043,10897.050288954346
1735563542546,-357,-20,956,1020.6786957706132,-9607,4144,244,10465.501469112696
1735563542576,-357,-20,956,1020.6786957706132,-9577,4161,3549,11028.519891626436
1735563542606,-291,-54,939,984.5394862574076,-9553,4167,6819,12454.816698771605
1735563542636,-291,-54,939,984.5394862574076,-9548,4165,10029,14460.026625148379
1735563542666,-291,-54,939,984.5394862574076,-9546,4163,13237,16842.649850899354
1735563542696,-319,-73,939,994.3897626182603,-9550,4159,16439,19461.256434259325
1735563542726,-319,-73,939,994.3897626182603,-9529,4150,-16336,19362.056631463507
1735563542756,-319,-73,939,994.3897626182603,-9522,4136,-13120,16730.492521142347
1735563542786,-314,-57,911,965.2802701806352,-9523,4125,-9903,14344.774762958114
1735563542816,-314,-57,911,965.2802701806352,-9539,4125,-6673,12350.590066875347
1735563542846,-314,-57,911,965.2802701806352,-9549,4130,-3441,10958.137706745612
1735563542876,-314,-57,911,965.2802701806352,-9552,4138,-204,10411.789663645726
1735563542906,-318,-65,957,1010.5434181666812,-9530,4145,3057,10832.690062952968
1735563542936,-318,-65,957,1010.5434181666812,-9507,4142,6321,12144.721240110866
1735563542966,-318,-65,957,1010.5434181666812,-9494,4132,9580,14106.234791750774
1735563542996,-313,-67,936,989.2188837663786,-9496,4120,12822,16478.837944466835
1735563543026,-313,-67,936,989.2188837663786,-9514,4111,16031,19089.512251495584
1735563543057,-313,-67,936,989.2188837663786,-9533,4109,-16763,19717.00126794133
1735563543087,-344,-34,936,997.7915613994738,-9550,4113,-13560,17087.79883425598
1735563543116,-344,-34,936,997.7915613994738,-9569,4122,-10328,14670.522451501174
1735563543147,-344,-34,936,997.7915613994738,-9575,4136,-7087,12610.023394109941
1735563543176,-344,-34,936,997.7915613994738,-9568,4149,-3835,11111.617794002816
1735563543206,-309,-85,980,1031.070317679643,-9542,4170,-605,10430.948614579596
1735563543236,-309,-85,980,1031.070317679643,-9507,4175,2618,10708.295756094898
1735563543266,-309,-85,980,1031.070317679643,-9480,4166,5840,11888.294915588189
1735563543296,-303,-67,945,994.647173624899,-9487,4149,9048,13750.769942079607
1735563543326,-303,-67,945,994.647173624899,-9520,4142,12243,16052.339798297318
1735563543356,-303,-67,945,994.647173624899,-9547,4148,15439,18620.25332802967
1735563543386,-279,-67,977,1018.2627362326483,-9562,4163,-17363,20254.28799044785
1735563543416,-279,-67,977,1018.2627362326483,-9577,4184,-14193,17625.72080795563
1735563543446,-279,-67,977,1018.2627362326483,-9572,4206,-11007,15181.161648569585
1735563543476,-279,-67,977,1018.2627362326483,-9551,4222,-7808,13038.855356203627
1735563543507,-244,-99,976,1010.897126318994,-9519,4227,-4635,11400.092762780485
1735563543536,-244,-99,976,1010.897126318994,-9494,4219,-1478,10493.830616128698
1735563543565,-244,-99,976,1010.897126318994,-9484,4205,1669,10507.799103523059
1735563543595,-221,-76,962,989.9803028343543,-9520,4189,4789,11450.442873531138
1735563543625,-221,-76,962,989.9803028343543,-9587,4195,7885,13102.740896468953
1735563543655,-221,-76,962,989.9803028343543,-9628,4222,10993,15210.842087142973
1735563543685,-173,-92,948,968.037705877204,-9639,4254,14127,17623.25072170285
1735563543714,-173,-92,948,968.037705877204,-9653,4280,17234,20211.61955410798
1735563543745,-173,-92,948,968.037705877204,-9643,4306,-15639,18870.80830277283
1735563543775,-173,-92,948,968.037705877204,-9617,4323,-12498,16351.606098484637
1735563543805,-193,-65,990,1010.7294395633285,-9595,4308,-9335,14062.898492131699
1735563543835,-193,-65,990,1010.7294395633285,-9593,4290,-6178,12190.054675841286
1735563543865,-193,-65,990,1010.7294395633285,-9606,4275,-3032,10942.754909071116
1735563543895,-199,-44,964,985.3085811054322,-9632,4255,120,10530.662324849278
1735563543925,-199,-44,964,985.3085811054322,-9675,4245,3273,11060.659067162318
1735563543955,-199,-44,964,985.3085811054322,-9711,4252,6427,12397.151043687416
1735563543985,-190,-50,954,974.0205336644602,-9725,4265,9588,14307.186795453536
1735563544016,-190,-50,954,974.0205336644602,-9721,4272,12743,16587.09962591411
1735563544047,-190,-50,954,974.0205336644602,-9712,4276,15903,19118.3819660556
1735563544075,-190,-50,954,974.0205336644602,-9704,4276,-16936,19981.989090178184
1735563544105,-175,-68,974,991.9299370419263,-9697,4271,-13798,17397.070270594413
1735563544135,-175,-68,974,991.9299370419263,-9695,4265,-10669,15033.655942584292
1735563544165,-175,-68,974,991.9299370419263,-9700,4259,-7545,13006.002691065383
1735563544195,-186,-62,992,1011.1893986786056,-9710,4251,-4414,11482.094625981794
1735563544225,-186,-62,992,1011.1893986786056,-9724,4248,-1274,10687.598233466675
1735563544255,-186,-62,992,1011.1893986786056,-9736,4250,1865,10785.658116220819
1735563544285,-230,-23,936,964.1187686172279,-9747,4255,5002,11752.831063194944
1735563544314,-230,-23,936,964.1187686172279,-9755,4267,8188,13431.703466053737
1735563544345,-230,-23,936,964.1187686172279,-9750,4280,11384,15587.698868017691
1735563544375,-230,-23,936,964.1187686172279,-9736,4289,14588,18055.33054252954
1735563544405,-219,-38,974,999.0400392376674,-9681,4296,17827,20735.94237067609
1735563544435,-219,-38,974,999.0400392376674,-9638,4282,-14941,18288.24893203283
1735563544465,-219,-38,974,999.0400392376674,-9621,4257,-11726,15753.880982158016
1735563544495,-186,-50,969,987.9559706788557,-9650,4230,-8554,13571.525927470351
1735563544525,-186,-50,969,987.9559706788557,-9706,4218,-5427,11893.287560636882
1735563544555,-186,-50,969,987.9559706788557,-9753,4228,-2299,10875.77096117788
1735563544585,-175,-48,972,988.7937095269165,-9775,4253,842,10693.343630502108
1735563544615,-175,-48,972,988.7937095269165,-9773,4282,3993,11392.58978459244
1735563544645,-175,-48,972,988.7937095269165,-9749,4305,7162,12840.181852294772
1735563544675,-175,-48,972,988.7937095269165,-9715,4316,10344,14832.646999103026
1735563544705,-206,-67,956,980.2351758634252,-9646,4315,13559,17190.434025934308
1735563544765,-206,-67,956,980.2351758634252,-9590,4288,16774,19791.971099413015
1735563544766,-206,-67,956,980.2351758634252,-9573,4249,-16037,19154.15618083971
1735563544795,-227,-49,957,984.7735780371039,-9579,4208,-12841,16563.688779978933
1735563544825,-227,-49,957,984.7735780371039,-9608,4176,-9641,14237.328436191952
1735563544855,-227,-49,957,984.7735780371039,-9651,4161,-6457,12334.851883991148
1735563544884,-239,-58,974,1004.5700572881914,-9697,4167,-3283,11053.22518543796
1735563544914,-239,-58,974,1004.5700572881914,-9715,4192,-95,10581.262401055934
1735563544945,-239,-58,974,1004.5700572881914,-9708,4218,3111,11032.457069936869
1735563544975,-239,-58,974,1004.5700572881914,-9683,4236,6333,12321.16366257668
1735563545005,-222,-55,988,1014.1267179203987,-9665,4251,9540,14230.067673767402
1735563545035,-222,-55,988,1014.1267179203987,-9646,4258,12748,16543.499750657356
1735563545065,-222,-55,988,1014.1267179203987,-9627,4257,15957,19116.145715075516
1735563545095,-239,-37,977,1006.4884500082452,-9621,4252,-16837,19852.650049804433
1735563545125,-239,-37,977,1006.4884500082452,-9623,4248,-13627,17214.608970290323
1735563545155,-239,-37,977,1006.4884500082452,-9628,4246,-10419,14808.188984477474
1735563545185,-213,-36,970,993.7630502287756,-9637,4244,-7219,12767.03826265121
1735563545215,-213,-36,970,993.7630502287756,-9677,4246,-4062,11321.337774309182
1735563545245,-213,-36,970,993.7630502287756,-9702,4260,-898,10634.040060108859
1735563545275,-213,-36,970,993.7630502287756,-9707,4280,2278,10850.508421267641
1735563545305,-214,-51,941,966.3736337462856,-9655,4300,5489,11909.582108537646
1735563545335,-214,-51,941,966.3736337462856,-9601,4297,8705,13653.586891363017
1735563545365,-214,-51,941,966.3736337462856,-9567,4277,11910,15864.057425513814
1735563545396,-235,-50,956,985.7286644914005,-9538,4250,15130,18383.493791986333
1735563545426,-235,-50,956,985.7286644914005,-9523,4215,-17645,20489.01605739036
1735563545457,-235,-50,956,985.7286644914005,-9539,4184,-14444,17808.074376529315
1735563545486,-243,-69,962,994.6124873537432,-9571,4166,-11259,15353.327912866318
1735563545516,-243,-69,962,994.6124873537432,-9579,4162,-8066,13196.205553112606
1735563545546,-243,-69,962,994.6124873537432,-9588,4162,-4874,11532.90353727109
1735563545576,-243,-69,962,994.6124873537432,-9594,4164,-1682,10593.056971431806
1735563545606,-278,-49,973,1013.1209207197332,-9589,4186,1505,10570.550695209782
1735563545636,-278,-49,973,1013.1209207197332,-9566,4201,4720,11464.517303401832
1735563545666,-278,-49,973,1013.1209207197332,-9539,4206,7942,13105.659884187442
1735563545696,-271,-103,1029,1069.0608027610028,-9494,4233,11170,15258.545966113546
1735563545726,-271,-103,1029,1069.0608027610028,-9411,4246,14414,17730.16731449537
1735563545756,-271,-103,1029,1069.0608027610028,-9345,4228,17654,20417.363321447752
1735563545786,-287,-29,914,958.4393564540221,-9324,4199,-15141,18270.69943926614
1735563545816,-287,-29,914,958.4393564540221,-9385,4196,-11960,15771.057066664873
1735563545846,-287,-29,914,958.4393564540221,-9428,4215,-8773,13550.60655468972
1735563545876,-287,-29,914,958.4393564540221,-9442,4244,-5566,11753.435923167319
1735563545906,-274,-98,888,934.4645525647295,-9297,4289,-2307,10495.331295390346
1735563545965,-274,-98,888,934.4645525647295,-9155,4268,952,10145.745561564216
1735563545966,-274,-98,888,934.4645525647295,-9077,4204,4175,10839.565028173409
1735563545996,-311,-134,943,1001.9610770883269,-9047,4151,7362,12380.551441676578
1735563546026,-311,-134,943,1001.9610770883269,-9025,4099,10541,14469.454274436199
1735563546056,-311,-134,943,1001.9610770883269,-9049,4050,13684,16897.892087476474
1735563546086,-283,-196,974,1033.0445295339402,-9089,4033,16812,19532.49482273066
1735563546116,-283,-196,974,1033.0445295339402,-9071,4044,-16073,18893.869534851776
1735563546146,-283,-196,974,1033.0445295339402,-9052,4046,-12954,16313.029638911345
1735563546176,-283,-196,974,1033.0445295339402,-9037,4041,-9837,13955.773679735566
1735563546206,-293,-215,863,936.3989534381166,-9027,4102,-6666,11947.74828158009
1735563546236,-293,-215,863,936.3989534381166,-8969,4144,-3454,10466.413569126724
1735563546266,-293,-215,863,936.3989534381166,-8898,4156,-225,9823.307233309972
1735563546296,-367,-147,1069,1139.7626945991872,-8836,4158,3028,10224.120695688212
1735563546326,-367,-147,1069,1139.7626945991872,-8789,4146,6334,11599.801420714064
1735563546356,-367,-147,1069,1139.7626945991872,-8767,4120,9624,13654.891614362965
1735563546386,-322,-237,979,1057.4942080219637,-8762,4106,12874,16105.022694799285
1735563546416,-322,-237,979,1057.4942080219637,-8704,4106,16024,18691.90808879607
1735563546446,-322,-237,979,1057.4942080219637,-8666,4086,-16833,19368.656148530285
1735563546477,-280,-208,943,1005.4416939832961,-8657,4063,-13711,16716.552844411435
1735563546506,-280,-208,943,1005.4416939832961,-8713,4068,-10646,14345.811549020153
1735563546536,-280,-208,943,1005.4416939832961,-8748,4090,-7571,12270.926819111912
1735563546566,-280,-208,943,1005.4416939832961,-8757,4119,-4478,10663.193424110808
1735563546596,-290,-221,863,936.8617827620038,-8722,4171,-1343,9760.84904093901
1735563546626,-290,-221,863,936.8617827620038,-8655,4197,1822,9789.9702757465
1735563546656,-290,-221,863,936.8617827620038,-8591,4195,4995,10786.720122446859
1735563546686,-310,-205,892,966.3275842073432,-8539,4173,8171,12533.702206451213
1735563546716,-310,-205,892,966.3275842073432,-8502,4135,11375,14790.972043784006
1735563546746,-310,-205,892,966.3275842073432,-8505,4094,14550,17343.539459983363
1735563546776,-302,-226,982,1051.9524704091912,-8536,4070,17672,20043.147956346576
1735563546806,-302,-226,982,1051.9524704091912,-8558,4070,-15278,17978.36332929113
1735563546836,-302,-226,982,1051.9524704091912,-8573,4077,-12226,15478.802731477652
1735563546866,-302,-226,982,1051.9524704091912,-8579,4088,-9168,13204.666182830977
1735563546896,-320,-265,938,1025.899117847364,-8485,4121,-6012,11185.795009743384
1735563546926,-320,-265,938,1025.899117847364,-8386,4109,-2845,9762.320523318214
1735563546956,-320,-265,938,1025.899117847364,-8329,4067,300,9273.765686063025
1735563546986,-333,-236,898,986.4020478486448,-8320,4028,3425,9857.880553141227
1735563547016,-333,-236,898,986.4020478486448,-8347,4003,6543,11336.10457785213
1735563547046,-333,-236,898,986.4020478486448,-8382,3992,9650,13390.910648645222
1735563547076,-312,-265,787,887.0952598227543,-8409,3999,12771,15805.116987861875
1735563547106,-312,-265,787,887.0952598227543,-8403,4017,15910,18435.693586084577
1735563547136,-312,-265,787,887.0952598227543,-8387,4029,-16940,19327.136621858914
1735563547166,-312,-265,787,887.0952598227543,-8367,4033,-13786,16623.043463818532
1735563547196,-231,-311,993,1065.8944600662862,-8352,4054,-10682,14152.594956402872
1735563547226,-231,-311,993,1065.8944600662862,-8329,4069,-7597,11985.132915408156
1735563547256,-231,-311,993,1065.8944600662862,-8303,4074,-4505,10287.483171310658
1735563547286,-303,-289,967,1053.7642051237078,-8281,4078,-1381,9333.391987910933
1735563547316,-303,-289,967,1053.7642051237078,-8249,4070,1799,9372.689155199803
1735563547346,-303,-289,967,1053.7642051237078,-8233,4053,4970,10435.995304713393
1735563547376,-299,-269,942,1024.2685194810979,-8208,4033,8149,12249.185850496351
1735563547406,-299,-269,942,1024.2685194810979,-8182,4000,11344,14547.55855805365
1735563547436,-299,-269,942,1024.2685194810979,-8187,3967,14516,17131.20877229625
1735563547466,-299,-269,942,1024.2685194810979,-8215,3943,17670,19881.20655292329
1735563547496,-263,-277,909,985.9913792726587,-8233,3940,-15165,17699.80547915711
1735563547526,-263,-277,909,985.9913792726587,-8251,3947,-12011,15097.083526297389
1735563547556,-263,-277,909,985.9913792726587,-8258,3959,-8851,12736.10796122583
1735563547586,-304,-283,1000,1082.822700168407,-8206,3963,-5609,10700.686239676406
1735563547616,-304,-283,1000,1082.822700168407,-8135,3932,-2315,9327.2758080803
1735563547646,-304,-283,1000,1082.822700168407,-8111,3884,949,9042.918666006015
1735563547676,-311,-260,969,1050.372314943611,-8179,3853,4161,9952.666527117242
1735563547706,-311,-260,969,1050.372314943611,-8336,3901,7339,11771.474758924644
1735563547736,-311,-260,969,1050.372314943611,-8409,3992,10566,14081.466578449845
1735563547766,-311,-260,969,1050.372314943611,-8391,4086,13858,16707.73596272098
1735563547796,-320,-229,920,1000.6203076092349,-8373,4186,17006,19412.206494883572
1735563547826,-320,-229,920,1000.6203076092349,-8291,4257,-15781,18327.64826703088
1735563547856,-320,-229,920,1000.6203076092349,-8183,4284,-12535,15570.496780770998
1735563547886,-312,-279,866,961.8425026998963,-8072,4268,-9351,13069.591003547128
1735563547916,-312,-279,866,961.8425026998963,-7990,4210,-6234,10973.921632670794
1735563547946,-312,-279,866,961.8425026998963,-7975,4140,-3165,9526.67045719542
1735563547976,-314,-327,860,972.1753956977105,-8009,4073,-125,8986.046683608984
1735563548006,-314,-327,860,972.1753956977105,-8034,4006,2902,9434.765285898744
1735563548037,-314,-327,860,972.1753956977105,-8097,3961,5895,10770.420372483146
1735563548066,-314,-327,860,972.1753956977105,-8171,3947,8871,12690.102087847836
1735563548096,-347,-261,885,985.7763438021832,-8290,3931,11844,14981.895641072928
1735563548126,-347,-261,885,985.7763438021832,-8392,3960,14835,17498.128157034396
1735563548156,-347,-261,885,985.7763438021832,-8443,4017,17855,20154.938923251542
1735563548186,-304,-261,863,951.4756959586514,-8456,4056,-15072,17751.62685502374
1735563548216,-304,-261,863,951.4756959586514,-8461,4089,-11995,15237.731688148338
1735563548246,-304,-261,863,951.4756959586514,-8440,4117,-8897,12935.992346936511
1735563548276,-330,-277,1010,1098.0569202004056,-8390,4115,-5759,10976.857747096845
1735563548306,-330,-277,1010,1098.0569202004056,-8315,4052,-2564,9598.54285816342
1735563548336,-330,-277,1010,1098.0569202004056,-8311,3978,581,9232.267652099348
1735563548366,-330,-277,1010,1098.0569202004056,-8359,3919,3684,9939.984808841511
1735563548396,-339,-237,960,1045.318133392892,-8532,3866,6745,11542.790173957075
1735563548426,-339,-237,960,1045.318133392892,-8692,3885,9804,13666.107895081173
1735563548456,-339,-237,960,1045.318133392892,-8789,3954,12894,16097.697754648023
1735563548486,-318,-201,956,1027.356315987788,-8863,4008,16011,18734.16542042906
1735563548516,-318,-201,956,1027.356315987788,-8924,4072,-16855,19501.538016269384
1735563548546,-318,-201,956,1027.356315987788,-8918,4143,-13676,16844.231920749608
1735563548576,-319,-134,923,985.7210558773714,-8869,4173,-10449,14326.712497987806
1735563548636,-319,-134,923,985.7210558773714,-8895,4154,-7213,12182.122557255776
1735563548636,-319,-134,923,985.7210558773714,-8926,4149,-3985,10619.22322959641
1735563548665,-319,-134,923,985.7210558773714,-8951,4155,-756,9897.270431790777
1735563548696,-320,-138,896,961.3844184300056,-8959,4102,2469,10158.05325837584
1735563548726,-320,-138,896,961.3844184300056,-9003,4063,5665,11386.579951855605
1735563548756,-320,-138,896,961.3844184300056,-9061,4048,8843,13292.353967601073
1735563548786,-353,-109,907,979.3564213298446,-9123,4024,12037,15630.453416328011
1735563548816,-353,-109,907,979.3564213298446,-9193,4015,15248,18251.930801972707
1735563548846,-353,-109,907,979.3564213298446,-9246,4032,-17536,20230.097281031547
1735563548876,-366,-135,900,980.9082525904245,-9258,4058,-14306,17516.83658655295
1735563548906,-366,-135,900,980.9082525904245,-9203,4061,-11056,14947.309657593903
1735563548937,-366,-135,900,980.9082525904245,-9166,4044,-7813,12704.820384405282
1735563548966,-366,-135,900,980.9082525904245,-9153,4017,-4586,10997.503989542354
1735563548996,-280,-164,1008,1058.9428690916238,-9214,4025,-1451,10158.928191497369
1735563549026,-280,-164,1008,1058.9428690916238,-9261,4055,1664,10245.87926924771
1735563549057,-280,-164,1008,1058.9428690916238,-9270,4095,4804,11215.183502734139
1735563549086,-367,-157,986,1063.7358694713646,-9225,4133,7976,12876.291779856498
1735563549116,-367,-157,986,1063.7358694713646,-9129,4139,11217,15042.97347601198
1735563549146,-367,-157,986,1063.7358694713646,-9060,4111,14447,17541.37195318542
1735563549176,-342,-210,936,1018.4105262613894,-9023,4078,17650,20237.764525757284
1735563549206,-342,-210,936,1018.4105262613894,-8969,4050,-15197,18105.089615906352
1735563549236,-342,-210,936,1018.4105262613894,-8953,4009,-12070,15553.55875676046
1735563549266,-342,-210,936,1018.4105262613894,-8971,3972,-8969,13292.80203719291
1735563549296,-358,-213,902,993.5476838078785,-8955,3971,-5829,11399.039740258826
1735563549326,-358,-213,902,993.5476838078785,-8941,3963,-2686,10142.063202327226
1735563549357,-358,-213,902,993.5476838078785,-8937,3952,450,9782.16606892359
1735563549386,-334,-233,936,1020.7551126494542,-8959,3963,3572,10427.28315526149
1735563549416,-334,-233,936,1020.7551126494542,-8969,3992,6689,11879.467412304308
1735563549446,-334,-233,936,1020.7551126494542,-8956,4018,9825,13888.300291972377
1735563549476,-366,-222,885,983.0895177958109,-8949,4039,12954,16254.360584163254
1735563549537,-366,-222,885,983.0895177958109,-8947,4068,16094,18857.737642676017
1735563549537,-366,-222,885,983.0895177958109,-8925,4090,-16747,19412.51488087002
1735563549566,-366,-222,885,983.0895177958109,-8894,4100,-13578,16741.425267879673
1735563549596,-416,-230,898,1016.0511798133006,-8786,4077,-10326,14157.754094488291
1735563549626,-416,-230,898,1016.0511798133006,-8721,4016,-7088,11934.146010502804
1735563549656,-416,-230,898,1016.0511798133006,-8722,3946,-3895,10335.145136861891
1735563549686,-417,-238,938,1053.7442763782872,-8772,3905,-763,9632.194869291214
1735563549716,-417,-238,938,1053.7442763782872,-8829,3894,2344,9930.197027249762
1735563549746,-417,-238,938,1053.7442763782872,-8876,3905,5454,11125.579400642468
1735563549777,-377,-291,886,1005.8856793890645,-8906,3934,8564,12966.699194475053
1735563549806,-377,-291,886,1005.8856793890645,-8898,3976,11628,15172.124571067823
1735563549835,-377,-291,886,1005.8856793890645,-8864,4006,14715,17639.43754772243
1735563549865,-377,-291,886,1005.8856793890645,-8819,4018,17816,20281.24604160208
1735563549896,-388,-245,955,1059.5253654349196,-8746,4005,-14962,17787.467076568264
1735563549926,-388,-245,955,1059.5253654349196,-8714,3974,-11754,15161.892625922399
1735563549956,-388,-245,955,1059.5253654349196,-8714,3939,-8568,12839.787420358642
1735563549986,-381,-282,889,1007.4750617260955,-8757,3930,-5410,11018.07828071665
1735563550016,-381,-282,889,1007.4750617260955,-8785,3945,-2255,9890.615501575217
1735563550046,-381,-282,889,1007.4750617260955,-8793,3966,911,9688.958974007475
1735563550076,-399,-250,995,1100.7842658759255,-8779,3980,4100,10474.790737766554
1735563550106,-399,-250,995,1100.7842658759255,-8764,3980,7332,12099.847932928744
1735563550137,-399,-250,995,1100.7842658759255,-8754,3976,10562,14282.749595228504
1735563550166,-360,-310,1034,1137.9173959475265,-8733,3962,13785,16792.526849762664
1735563550196,-360,-310,1034,1137.9173959475265,-8685,3919,16938,19434.084233634472
1735563550226,-360,-310,1034,1137.9173959475265,-8683,3868,-15939,18558.22281362092
1735563550256,-360,-310,1034,1137.9173959475265,-8716,3828,-12846,15988.807210045406
1735563550286,-368,-287,979,1084.5432218219798,-8873,3817,-9842,13790.017476421122
1735563550316,-368,-287,979,1084.5432218219798,-8992,3864,-6821,11929.484523649797
1735563550346,-368,-287,979,1084.5432218219798,-9043,3940,-3759,10556.018662355613
1735563550376,-303,-218,823,903.6935321224779,-9032,4010,-664,9904.444456909232
1735563550406,-303,-218,823,903.6935321224779,-9095,4076,2362,10242.648339174786
1735563550436,-303,-218,823,903.6935321224779,-9090,4149,5436,11375.077889843216
1735563550466,-372,-241,922,1023.0097751243632,-9025,4196,8568,13132.694506459822
1735563550496,-372,-241,922,1023.0097751243632,-8876,4171,11817,15356.500447693154
1735563550526,-372,-241,922,1023.0097751243632,-8796,4103,15027,17888.96179212198
1735563550556,-372,-241,922,1023.0097751243632,-8793,4022,-17815,20269.86822848141
1735563550586,-328,-237,937,1020.6478334861638,-8915,3916,-14756,17679.135074997306
1735563550616,-328,-237,937,1020.6478334861638,-9080,3877,-11754,15350.376054025517
1735563550646,-328,-237,937,1020.6478334861638,-9220,3900,-8753,13297.872348612766
1735563550676,-346,-183,868,952.1706779774307,-9304,3937,-5716,11607.628569178116
1735563550706,-346,-183,868,952.1706779774307,-9372,3991,-2624,10518.927749537972
1735563550736,-346,-183,868,952.1706779774307,-9378,4058,507,10230.899129597554
1735563550766,-321,-183,965,1033.322311769179,-9330,4106,3690,10840.859560016448
1735563550796,-321,-183,965,1033.322311769179,-9280,4118,6879,12263.644034299105
1735563550826,-321,-183,965,1033.322311769179,-9237,4111,10068,14268.395635109086
1735563550856,-321,-183,965,1033.322311769179,-9213,4090,13246,16645.23910912667
1735563550886,-330,-188,970,1041.7024527186254,-9290,4040,16359,19241.688621324272
1735563550916,-330,-188,970,1041.7024527186254,-9375,4024,-16543,19435.89591451858
1735563550946,-330,-188,970,1041.7024527186254,-9444,4040,-13444,16918.97963826424
1735563550976,-305,-132,921,979.1271623236688,-9509,4035,-10346,14619.918672824415
1735563551007,-305,-132,921,979.1271623236688,-9604,4046,-7268,12705.540366312642
1735563551036,-305,-132,921,979.1271623236688,-9661,4087,-4171,11288.743552760865
1735563551067,-325,-156,942,1008.6253020819971,-9653,4134,-1030,10551.363182072731
1735563551096,-325,-156,942,1008.6253020819971,-9555,4146,2177,10640.802131418477
1735563551126,-325,-156,942,1008.6253020819971,-9481,4122,5378,11653.45995831281
1735563551156,-325,-156,942,1008.6253020819971,-9449,4078,8554,13382.24947458386
1735563551186,-354,-121,925,997.7885547549641,-9467,4040,11749,15620.009282967792
1735563551216,-354,-121,925,997.7885547549641,-9509,4018,14935,18155.429766326106
1735563551246,-354,-121,925,997.7885547549641,-9553,4015,-17885,20670.105442401593
1735563551276,-348,-109,981,1046.5877889599133,-9603,4019,-14685,18000.53318654756
1735563551306,-348,-109,981,1046.5877889599133,-9649,4039,-11472,15524.931755083499
1735563551366,-348,-109,981,1046.5877889599133,-9664,4071,-8239,13335.9310886042
1735563551366,-296,-97,972,1020.6904525858954,-9680,4085,-5005,11637.854183654305
1735563551396,-296,-97,972,1020.6904525858954,-9792,4090,-1868,10775.00756380245
1735563551426,-296,-97,972,1020.6904525858954,-9864,4130,1287,10770.875776834491
1735563551457,-296,-97,972,1020.6904525858954,-9882,4188,4477,11629.135694452963
1735563551486,-274,8,867,909.3013801815106,-9955,4187,7680,13251.995849682417
1735563551516,-274,8,867,909.3013801815106,-10029,4224,10890,15395.29528784687
1735563551546,-274,8,867,909.3013801815106,-10051,4279,14134,17863.437463153612
1735563551576,-268,-5,942,979.3942005137666,-9979,4310,17431,20542.54857606524
1735563551606,-268,-5,942,979.3942005137666,-9890,4296,-15264,18688.42989659645
1735563551636,-268,-5,942,979.3942005137666,-9843,4254,-11983,16080.21933930007
1735563551666,-300,-41,963,1009.4800641914628,-9840,4205,-8740,13816.483814632433
1735563551696,-300,-41,963,1009.4800641914628,-9818,4149,-5504,11995.888503983355
1735563551726,-300,-41,963,1009.4800641914628,-9846,4097,-2306,10910.855191047125
1735563551756,-300,-41,963,1009.4800641914628,-9903,4065,863,10739.571825729367
1735563551786,-255,-38,966,999.8124824185784,-9984,4051,3988,11488.907737465734
1735563551816,-255,-38,966,999.8124824185784,-10059,4069,7100,12967.27581259842
1735563551846,-255,-38,966,999.8124824185784,-10097,4110,10233,14951.782435549281
1735563551876,-232,-62,900,931.4869832692242,-10122,4157,13364,17272.290786111724
1735563551906,-232,-62,900,931.4869832692242,-10115,4206,16498,19803.728563076198
1735563551936,-232,-62,900,931.4869832692242,-10074,4243,-16336,19655.87497416485
1735563551966,-260,-71,953,990.3787154417244,-10011,4262,-13136,17056.941724705517
1735563551996,-260,-71,953,990.3787154417244,-9913,4259,-9864,14618.657462297966
1735563552026,-260,-71,953,990.3787154417244,-9851,4223,-6608,12591.330112422595
1735563552056,-260,-71,953,990.3787154417244,-9837,4174,-3386,11209.542408144946
1735563552086,-228,-7,951,977.9744372937362,-9912,4139,-189,10743.127384518904
1735563552116,-228,-7,951,977.9744372937362,-10007,4145,2989,11236.333699209898
1735563552146,-228,-7,951,977.9744372937362,-10067,4182,6184,12532.975265275201
1735563552176,-244,-60,969,1001.0479508994562,-10054,4229,9410,14405.396801199195
1735563552207,-244,-60,969,1001.0479508994562,-9977,4250,12668,16675.768438066054
1735563552237,-244,-60,969,1001.0479508994562,-9909,4241,15928,19232.148761903856
1735563552266,-213,-8,879,904.4744330272691,-9882,4203,-16838,19970.913274059352
1735563552296,-213,-8,879,904.4744330272691,-9977,4167,-13693,17447.13922108722
1735563552326,-213,-8,879,904.4744330272691,-10069,4169,-10557,15172.856388959859
1735563552356,-213,-8,879,904.4744330272691,-10129,4201,-7406,13232.304334468732
1735563552386,-215,-22,965,988.9054555416307,-10127,4239,-4238,11768.002974166857
1735563552416,-215,-22,965,988.9054555416307,-10094,4267,-1045,11008.548950701905
1735563552446,-215,-22,965,988.9054555416307,-10049,4279,2161,11133.829664585317
1735563552476,-242,-31,948,978.8917202632781,-10008,4281,5381,12142.577403500462
1735563552507,-242,-31,948,978.8917202632781,-9964,4270,8618,13848.614371120311
1735563552536,-242,-31,948,978.8917202632781,-9944,4246,11841,16034.990894914783
1735563552566,-216,-35,992,1015.8469372892749,-9946,4218,15049,18525.302723572426
1735563552596,-216,-35,992,1015.8469372892749,-9983,4192,-17786,20822.462606521833
1735563552626,-216,-35,992,1015.8469372892749,-10027,4184,-14632,18224.76361986624
1735563552656,-216,-35,992,1015.8469372892749,-10063,4192,-11477,15829.035409651467
1735563552686,-207,-63,971,994.8160634006671,-10092,4216,-8339,13753.619196415175
1735563552716,-207,-63,971,994.8160634006671,-10088,4242,-5186,12110.198346848
1735563552746,-207,-63,971,994.8160634006671,-10066,4263,-2016,11115.834696503902
1735563552776,-229,-28,951,978.5836704135216,-10040,4269,1182,10973.745258570567
1735563552807,-229,-28,951,978.5836704135216,-10023,4270,4406,11751.862192861181
1735563552836,-229,-28,951,978.5836704135216,-10011,4265,7628,13288.97023850983
1735563552866,-200,-17,953,973.9086199433702,-10010,4256,10838,15354.995278410215
1735563552896,-200,-17,953,973.9086199433702,-10052,4251,13998,17749.865041740457
1735563552926,-200,-17,953,973.9086199433702,-10084,4262,17162,20356.471796458245
1735563552956,-200,-17,953,973.9086199433702,-10097,4280,-15663,19120.60087967949
1735563552987,-162,8,940,953.8909790956197,-10126,4288,-12497,16646.255705112788
1735563553017,-162,8,940,953.8909790956197,-10153,4308,-9335,14449.377079998985
1735563553047,-162,8,940,953.8909790956197,-10156,4333,-6155,12641.331021692296
1735563553075,-166,-26,981,995.285386208398,-10122,4347,-2960,11406.703862203138
1735563553106,-166,-26,981,995.285386208398,-10071,4336,237,10967.319909622405
1735563553136,-166,-26,981,995.285386208398,-10045,4311,3421,11453.819755871838
1735563553166,-188,0,965,983.1424108439224,-10041,4280,6590,12750.222782367373
1735563553196,-188,0,965,983.1424108439224,-10056,4253,9776,14655.419509519337
1735563553226,-188,0,965,983.1424108439224,-10087,4236,12946,16949.636603774135
1735563553256,-188,0,965,983.1424108439224,-10120,4233,16110,19490.12029208645
1735563553286,-174,0,933,949.0864028106187,-10153,4239,-16747,20037.827701624745
1735563553316,-174,0,933,949.0864028106187,-10174,4255,-13602,17510.845353665823
1735563553347,-174,0,933,949.0864028106187,-10176,4276,-10443,15195.111088767992
1735563553376,-198,5,950,970.4272255043137,-10156,4291,-7263,13202.582550395207
1735563553406,-198,5,950,970.4272255043137,-10121,4295,-4059,11719.946544246694
1735563553436,-198,5,950,970.4272255043137,-10094,4286,-857,10999.68549550395
1735563553466,-169,12,1011,1025.0980440913931,-10080,4271,2337,11194.168571180264
1735563553496,-169,12,1011,1025.0980440913931,-10104,4257,5493,12263.193466630133
1735563553526,-169,12,1011,1025.0980440913931,-10131,4253,8643,13979.507108621534
1735563553556,-169,12,1011,1025.0980440913931,-10152,4259,11794,16133.834665075752
1735563553586,-194,-20,992,1010.9896141899777,-10129,4274,14982,18582.896464222147
1735563553615,-194,-20,992,1010.9896141899777,-10089,4274,-17814,20913.956894858515
1735563553645,-194,-20,992,1010.9896141899777,-10062,4261,-14617,18249.83983491362
1735563553676,-183,-8,971,988.1265101190231,-10073,4243,-11442,15823.64502888004
1735563553706,-183,-8,971,988.1265101190231,-10110,4238,-8287,13742.1655134844
1735563553736,-183,-8,971,988.1265101190231,-10139,4245,-5130,12129.973042014562
1735563553766,-184,-31,993,1010.379136760058,-10153,4259,-1971,11185.13884580786
1735563553797,-184,-31,993,1010.379136760058,-10134,4268,1182,11059.426024889357
1735563553826,-184,-31,993,1010.379136760058,-10115,4269,4339,11805.274541492035
1735563553857,-184,-31,993,1010.379136760058,-10102,4264,7494,13281.27011998476
1735563553886,-182,-19,947,964.5174959532875,-10112,4258,10656,15294.882935151874
1735563553916,-182,-19,947,964.5174959532875,-10125,4259,13817,17651.181121953283
1735563553946,-182,-19,947,964.5174959532875,-10134,4264,16979,20227.854384486753
1735563553977,-206,-17,969,990.8006863138519,-10104,4270,-15813,19245.121070027075
1735563554007,-206,-17,969,990.8006863138519,-10057,4262,-12573,16654.97589310774
1735563554036,-206,-17,969,990.8006863138519,-10033,4240,-9345,14351.575314229445
1735563554066,-195,-8,966,985.5176304866393,-10027,4214,-6134,12486.972451319014
1735563554096,-195,-8,966,985.5176304866393,-10048,4188,-2952,11279.00492064792
1735563554126,-195,-8,966,985.5176304866393,-10081,4174,216,10913.088151389597
1735563554156,-187,-36,1006,1023.8657138511867,-10116,4176,3378,11453.52853927557
1735563554186,-187,-36,1006,1023.8657138511867,-10128,4187,6530,12757.282351660953
1735563554216,-187,-36,1006,1023.8657138511867,-10127,4199,9691,14632.266092441047
1735563554247,-187,-36,1006,1023.8657138511867,-10117,4209,12859,16894.473978197722
1735563554277,-159,5,950,963.2268683960181,-10171,4210,15973,19398.713101646717
1735563554307,-159,5,950,963.2268683960181,-10223,4233,-16913,20210.828459021664
1735563554337,-159,5,950,963.2268683960181,-10239,4269,-13779,17689.61059492266
1735563554367,-202,1,977,997.6642721877937,-10217,4307,-10613,15348.391023165914
1735563554396,-202,1,977,997.6642721877937,-10125,4331,-7364,13247.704782338713
1735563554426,-202,1,977,997.6642721877937,-10044,4320,-4112,11681.304721648177
1735563554456,-173,0,947,962.672322236388,-9995,4282,-879,10909.087496211587
1735563554486,-173,0,947,962.672322236388,-10006,4230,2289,11101.912312750448
1735563554516,-173,0,947,962.672322236388,-10053,4192,5427,12169.14138302288
1735563554546,-173,0,947,962.672322236388,-10113,4177,8548,13884.826322284338
1735563554576,-228,-30,992,1018.3064371789073,-10117,4180,11703,16024.552973484158
1735563554606,-228,-30,992,1018.3064371789073,-10099,4178,14881,18463.19706876358
1735563554636,-228,-30,992,1018.3064371789073,-10088,4171,-17945,21004.475951568038
1735563554666,-199,-20,994,1013.9215946018705,-10116,4166,-14789,18395.74768798485
1735563554696,-199,-20,994,1013.9215946018705,-10165,4179,-11653,16018.22945896331
1735563554726,-199,-20,994,1013.9215946018705,-10188,4205,-8502,13919.819431300106
1735563554755,-179,-31,995,1011.4479719688997,-10177,4235,-5324,12241.385950945261
1735563554786,-179,-31,995,1011.4479719688997,-10144,4252,-2138,11204.966934355496
1735563554816,-179,-31,995,1011.4479719688997,-10108,4254,1053,11017.122537214515
1735563554847,-179,-31,995,1011.4479719688997,-10082,4244,4241,11732.192506091946
1735563554876,-193,-40,1001,1020.2205643879171,-10076,4228,7430,13213.881337442077
1735563554906,-193,-40,1001,1020.2205643879171,-10079,4211,10613,15230.053545539491
1735563554936,-193,-40,1001,1020.2205643879171,-10094,4199,13785,17593.938217465697
1735563554966,-210,-5,944,967.0889307607652,-10131,4195,16951,20188.402289433405
1735563554996,-210,-5,944,967.0889307607652,-10172,4209,-15869,19313.4778328503
1735563555026,-210,-5,944,967.0889307607652,-10188,4234,-12676,16804.852751511986
1735563555056,-228,1,994,1019.8141987636767,-10176,4258,-9463,14533.750685903484
1735563555086,-228,1,994,1019.8141987636767,-10136,4271,-6215,12633.533235005954
1735563555116,-228,1,994,1019.8141987636767,-10099,4267,-2965,11357.302276509154
1735563555146,-228,1,994,1019.8141987636767,-10078,4252,276,10941.744102290091
1735563555176,-168,-17,974,988.5287046919781,-10100,4231,3453,11481.92361932442
1735563555206,-168,-17,974,988.5287046919781,-10141,4223,6597,12813.821405029805
1735563555237,-168,-17,974,988.5287046919781,-10175,4229,9740,14706.551805232932
1735563555266,-187,13,977,994.8200842363407,-10204,4247,12896,16984.270399401914
1735563555297,-187,13,977,994.8200842363407,-10218,4278,16082,19527.91673476718
1735563555326,-187,13,977,994.8200842363407,-10203,4307,-16708,20045.167048443374
1735563555357,-226,-17,972,998.0726426468166,-10171,4329,-13481,17433.497727077032
1735563555386,-226,-17,972,998.0726426468166,-10079,4336,-10194,14976.807837453214
1735563555416,-226,-17,972,998.0726426468166,-10013,4310,-6916,12909.96998447324
1735563555446,-226,-17,972,998.0726426468166,-9990,4268,-3666,11465.4036126078
1735563555476,-225,31,965,991.3682464150241,-10021,4228,-425,10884.71634908324
1735563555506,-225,31,965,991.3682464150241,-10083,4212,2795,11279.178072891658
1735563555536,-225,31,965,991.3682464150241,-10136,4220,6016,12519.550790663377
1735563555566,-214,24,948,972.1501941572609,-10171,4240,9219,14367.212742908765
1735563555596,-214,24,948,972.1501941572609,-10184,4265,12417,16615.834917331118
1735563555626,-214,24,948,972.1501941572609,-10173,4290,15634,19139.383088281607
1735563555656,-212,-23,942,965.8348720148801,-10157,4308,-17146,20388.938888524826
1735563555686,-212,-23,942,965.8348720148801,-10116,4313,-13948,17761.81660191322
1735563555716,-212,-23,942,965.8348720148801,-10085,4303,-10752,15356.709868979096
1735563555746,-212,-23,942,965.8348720148801,-10072,4284,-7568,13306.85778085871
1735563555776,-215,-22,954,978.1743198428386,-10076,4260,-4374,11781.564072736692
1735563555807,-215,-22,954,978.1743198428386,-10097,4243,-1193,11017.06435489963
1735563555836,-215,-22,954,978.1743198428386,-10125,4236,1978,11152.210767377022
1735563555866,-257,12,923,958.1868293814103,-10148,4230,5182,12154.337826471667
1735563555896,-257,12,923,958.1868293814103,-10167,4233,8425,13866.030542300128
1735563555926,-257,12,923,958.1868293814103,-10177,4241,11673,16056.660269184249
1735563555956,-229,39,938,966.3363803562402,-10177,4245,14926,18557.392866456215
1735563555986,-229,39,938,966.3363803562402,-10220,4244,-17857,21007.91243793633
1735563556016,-229,39,938,966.3363803562402,-10249,4258,-14635,18367.247752453277
1735563556046,-229,39,938,966.3363803562402,-10258,4279,-11400,15921.570431336226
1735563556076,-207,38,891,915.5184323649634,-10235,4298,-8145,13768.407823710046
1735563556106,-207,38,891,915.5184323649634,-10209,4307,-4889,12110.997110064885
1735563556136,-207,38,891,915.5184323649634,-10185,4305,-1630,11176.947257637034
1735563556166,-227,13,958,984.6126141787947,-10153,4299,1635,11146.211688282257
1735563556196,-227,13,958,984.6126141787947,-10114,4278,4909,12028.82209528431
1735563556226,-227,13,958,984.6126141787947,-10104,4248,8163,13666.414635887497
1735563556256,-241,60,938,970.3221114660843,-10126,4217,11381,15806.521628745522
1735563556286,-241,60,938,970.3221114660843,-10201,4199,14566,18271.84604795038
1735563556316,-241,60,938,970.3221114660843,-10265,4210,17750,20932.19589531877
1735563556346,-241,60,938,970.3221114660843,-10299,4240,-15048,18721.359592721892
1735563556376,-189,21,928,947.2834844965894,-10286,4286,-11834,16254.696182949714
1735563556436,-189,21,928,947.2834844965894,-10247,4316,-8612,14063.975575917359
1735563556437,-189,21,928,947.2834844965894,-10196,4327,-5377,12312.33016126517
1735563556467,-201,52,940,962.6551822953014,-10147,4320,-2107,11227.79844849381
1735563556496,-201,52,940,962.6551822953014,-10123,4301,1173,11061.178011405476
1735563556526,-201,52,940,962.6551822953014,-10122,4279,4439,11851.98067835077
1735563556556,-275,29,966,1004.7994824839432,-10135,4260,7683,13412.468602013576
1735563556586,-275,29,966,1004.7994824839432,-10079,4238,10990,15502.483188186336
1735563556616,-275,29,966,1004.7994824839432,-10059,4202,14274,17960.71716274158
1735563556646,-275,29,966,1004.7994824839432,-10074,4167,17531,20644.256489396754
1735563556675,-208,28,931,954.3631384331647,-10165,4148,-15307,18837.12764728211
1735563556706,-208,28,931,954.3631384331647,-10256,4165,-12170,16451.19026088994
1735563556736,-208,28,931,954.3631384331647,-10304,4210,-9010,14320.496360112662
1735563556767,-213,27,917,941.7998725844042,-10299,4261,-5805,12566.76358494899
1735563556796,-213,27,917,941.7998725844042,-10253,4299,-2560,11408.72516979877
1735563556826,-213,27,917,941.7998725844042,-10191,4314,703,11088.791007138696
1735563556856,-204,22,992,1012.9975320799158,-10144,4306,3965,11711.686343136073
1735563556886,-204,22,992,1012.9975320799158,-10129,4289,7201,13147.11234454167
1735563556917,-204,22,992,1012.9975320799158,-10133,4271,10422,15150.485602778546
1735563556946,-204,22,992,1012.9975320799158,-10150,4257,13632,17520.729807859032
1735563556976,-182,37,939,957.1906811080016,-10194,4250,16817,20119.434012913982
1735563557006,-182,37,939,957.1906811080016,-10236,4261,-16002,19467.81500323033
1735563557036,-182,37,939,957.1906811080016,-10256,4285,-12809,16959.281883381736
1735563557066,-226,68,1000,1027.4726273726226,-10233,4301,-9579,14661.859738791665
1735563557096,-226,68,1000,1027.4726273726226,-10191,4304,-6306,12733.677120140906
1735563557126,-226,68,1000,1027.4726273726226,-10162,4291,-3039,11441.78508800091
1735563557156,-212,7,792,819.9128002415866,-10166,4275,199,11030.08531245339
1735563557186,-212,7,792,819.9128002415866,-10169,4262,3379,11532.165711608553
1735563557216,-212,7,792,819.9128002415866,-10181,4252,6552,12832.02902895719
1735563557246,-212,7,792,819.9128002415866,-10197,4249,9720,14714.319895938106
1735563557276,-260,9,974,1008.1453268254533,-10118,4235,13007,17014.440866511013
1735563557306,-260,9,974,1008.1453268254533,-10065,4196,16291,19603.75785404421
1735563557336,-260,9,974,1008.1453268254533,-10061,4147,-16457,19729.525564493437
1735563557366,-227,162,946,986.2499683143214,-10170,4109,-13272,17217.97795909845
1735563557396,-227,162,946,986.2499683143214,-10365,4147,-10121,15068.691880850176
1735563557426,-227,162,946,986.2499683143214,-10469,4243,-6920,13247.241599668967
1735563557457,-209,48,917,941.7398791598453,-10451,4360,-3633,11892.50562329066
1735563557486,-209,48,917,941.7398791598453,-10252,4427,-274,11170.35849917092
1735563557517,-209,48,917,941.7398791598453,-10065,4412,3100,11418.404836053063
1735563557546,-209,48,917,941.7398791598453,-9957,4337,6432,12622.283549342408
1735563557576,-205,31,890,913.8304000196098,-9975,4229,9630,14495.584362142838
1735563557607,-205,31,890,913.8304000196098,-10067,4146,12760,16773.532871759606
1735563557636,-205,31,890,913.8304000196098,-10189,4109,15853,19287.74769121579
1735563557666,-206,-4,953,975.018461363681,-10277,4117,-17041,20321.46891836316
1735563557696,-206,-4,953,975.018461363681,-10308,4145,-13912,17803.921843234428
1735563557727,-206,-4,953,975.018461363681,-10308,4178,-10760,15475.404615065805
1735563557758,-201,11,933,954.4689623031228,-10284,4207,-7581,13451.061891166808
1735563557786,-201,11,933,954.4689623031228,-10264,4230,-4376,11932.810733435774
1735563557816,-201,11,933,954.4689623031228,-10232,4242,-1160,11137.054727350494
1735563557846,-215,50,927,952.9186743893731,-10195,4238,2059,11231.124164570527
1735563557876,-215,50,927,952.9186743893731,-10182,4223,5286,12224.91918173695
1735563557906,-215,50,927,952.9186743893731,-10184,4207,8502,13917.496506196796
1735563557936,-215,50,927,952.9186743893731,-10199,4195,11708,16083.994839591314
1735563557966,-268,6,941,978.4380409612047,-10159,4192,14959,18562.053388566685
1735563557996,-268,6,941,978.4380409612047,-10115,4170,-17778,20874.851113241504
1735563558026,-268,6,941,978.4380409612047,-10102,4137,-14537,18179.371331264458
1735563558056,-243,11,943,973.8680608788852,-10126,4103,-11327,15737.579674143035
1735563558086,-243,11,943,973.8680608788852,-10202,4084,-8176,13696.964481227218
1735563558116,-243,11,943,973.8680608788852,-10267,4093,-5027,12142.267786538065
1735563558146,-217,5,977,1000.8211628457904,-10307,4124,-1867,11257.322683480295
1735563558177,-217,5,977,1000.8211628457904,-10330,4164,1283,11211.32842262682
1735563558207,-217,5,977,1000.8211628457904,-10315,4203,4462,11998.911533968405
1735563558236,-217,5,977,1000.8211628457904,-10275,4231,7664,13498.662230013759
1735563558266,-229,48,934,962.8608414511414,-10259,4243,10875,15540.777168468763
1735563558296,-229,48,934,962.8608414511414,-10244,4252,14098,17938.02229901613
1735563558327,-229,48,934,962.8608414511414,-10227,4254,17324,20562.320418668707
1735563558356,-188,-24,940,958.9160547201199,-10196,4261,-15449,18994.371218863762
1735563558386,-188,-24,940,958.9160547201199,-10150,4250,-12248,16465.06920726421
1735563558416,-188,-24,940,958.9160547201199,-10127,4227,-9061,14231.141169983523
1735563558446,-193,-23,1026,1044.2480548222247,-10125,4196,-5899,12446.69602746046
1735563558476,-193,-23,1026,1044.2480548222247,-10139,4158,-2769,11302.904317032857
1735563558536,-193,-23,1026,1044.2480548222247,-10176,4132,339,10988.144565849141
1735563558537,-193,-23,1026,1044.2480548222247,-10220,4123,3437,11543.851090515678
1735563558567,-248,25,977,1008.2945998070206,-10280,4155,6594,12900.513982008624
1735563558596,-248,25,977,1008.2945998070206,-10294,4205,9803,14823.874999472979
1735563558626,-248,25,977,1008.2945998070206,-10264,4250,13046,17135.06089863704
1735563558656,-235,15,950,978.7492017876694,-10197,4280,16315,19709.80552922834
1735563558686,-235,15,950,978.7492017876694,-10124,4281,-16411,19752.044400517127
1735563558716,-235,15,950,978.7492017876694,-10074,4257,-13149,17102.740306746167
1735563558746,-239,-34,952,982.1308466798098,-10069,4221,-9923,14753.559943281485
1735563558776,-239,-34,952,982.1308466798098,-10069,4181,-6746,12820.84388798179
1735563558806,-239,-34,952,982.1308466798098,-10099,4148,-3594,11494.021967962302
1735563558836,-239,-34,952,982.1308466798098,-10144,4132,-459,10962.88470248593
1735563558866,-225,-21,954,980.3988984081939,-10193,4134,2683,11321.912117659278
1735563558896,-225,-21,954,980.3988984081939,-10231,4153,5828,12485.445686878782
1735563558926,-225,-21,954,980.3988984081939,-10242,4182,8992,14256.358300772326
1735563558956,-174,-44,966,982.5314244338448,-10235,4207,12150,16434.006632589633
1735563558986,-174,-44,966,982.5314244338448,-10227,4223,15282,18867.028965897094
1735563559017,-174,-44,966,982.5314244338448,-10209,4233,-17577,20762.77676516318
1735563559046,-204,-19,981,1002.1666528078052,-10187,4236,-14430,18164.348735916737
1735563559076,-204,-19,981,1002.1666528078052,-10163,4236,-11246,15738.57620625195
1735563559106,-204,-19,981,1002.1666528078052,-10146,4228,-8065,13633.104011926263
1735563559166,-204,-19,981,1002.1666528078052,-10141,4216,-4891,12022.329973844504
1735563559167,-203,-25,953,974.7014927658621,-10133,4207,-1710,11104.08204220412
1735563559197,-203,-25,953,974.7014927658621,-10134,4197,1461,11065.59017856707
1735563559226,-203,-25,953,974.7014927658621,-10142,4189,4628,11909.08346599351
1735563559256,-194,-30,967,986.7243789427724,-10147,4181,7797,13462.376424688176
1735563559287,-194,-30,967,986.7243789427724,-10157,4174,10959,15514.077671585894
1735563559316,-194,-30,967,986.7243789427724,-10169,4171,14119,17892.790810826576
1735563559346,-195,11,992,1011.0440148677999,-10182,4171,17273,20479.914404118
1735563559376,-195,11,992,1011.0440148677999,-10226,4181,-15579,19098.614557082405
1735563559406,-195,11,992,1011.0440148677999,-10249,4204,-12419,16641.73001824029
1735563559436,-195,11,992,1011.0440148677999,-10246,4231,-9241,14431.838344438313
1735563559466,-204,-26,977,998.4092347329325,-10185,4249,-6048,12584.376424757804
1735563559496,-204,-26,977,998.4092347329325,-10120,4238,-2849,11335.424341417483
1735563559526,-204,-26,977,998.4092347329325,-10085,4208,331,10932.705520592786
1735563559556,-189,-58,909,930.2505038966655,-10079,4172,3491,11453.336020566236
1735563559586,-189,-58,909,930.2505038966655,-10096,4136,6618,12760.628354434588
1735563559616,-189,-58,909,930.2505038966655,-10133,4112,9725,14634.269985209376
1735563559646,-201,-65,970,992.7366216676002,-10174,4106,12827,16879.023698069745
1735563559676,-201,-65,970,992.7366216676002,-10187,4115,15954,19371.06889151964
1735563559707,-201,-65,970,992.7366216676002,-10190,4127,-16912,20171.36517442486
1735563559736,-201,-65,970,992.7366216676002,-10183,4137,-13771,17619.55444953135
1735563559766,-221,-62,995,1021.131725097208,-10181,4147,-10616,15282.337059494532
1735563559796,-221,-62,995,1021.131725097208,-10168,4154,-7447,13270.333417062286
1735563559826,-221,-62,995,1021.131725097208,-10155,4156,-4276,11776.270080122993
1735563559856,-157,-30,1005,1017.6315639758822,-10175,4153,-1130,11047.84748265471
1735563559886,-157,-30,1005,1017.6315639758822,-10237,4168,1971,11227.343140743495
1735563559916,-157,-30,1005,1017.6315639758822,-10269,4200,5090,12206.574499014865
1735563559946,-208,-60,965,988.9838219101463,-10262,4239,8234,13823.043116477646
1735563559977,-208,-60,965,988.9838219101463,-10161,4264,11461,15899.123812336325
1735563560007,-208,-60,965,988.9838219101463,-10074,4250,14690,18312.402245472877
1735563560036,-208,-60,965,988.9838219101463,-10027,4209,17896,20940.946158184925
1735563560067,-232,-75,974,1004.0542814011601,-10014,4168,-14911,18438.826996314056
1735563560096,-232,-75,974,1004.0542814011601,-10028,4127,-11738,15980.411665536029
1735563560127,-232,-75,974,1004.0542814011601,-10068,4100,-8588,13853.82142226469
1735563560157,-164,-52,984,998.9274247912108,-10156,4089,-5500,12252.112348489138
1735563560186,-164,-52,984,998.9274247912108,-10274,4116,-2470,11340.080775726423
1735563560216,-164,-52,984,998.9274247912108,-10335,4178,591,11163.206976492016
1735563560246,-229,-65,937,966.7652248607208,-10341,4255,3703,11779.368191885336
1735563560276,-229,-65,937,966.7652248607208,-10240,4332,6953,13113.658261522602
1735563560306,-229,-65,937,966.7652248607208,-10110,4359,10242,15037.005852230024
1735563560336,-229,-65,937,966.7652248607208,-10002,4338,13529,17375.042129445326
1735563560366,-229,-32,940,968.0211774542952,-9959,4265,16768,19963.409778892983
1735563560396,-229,-32,940,968.0211774542952,-9993,4196,-16045,19362.553808834207
1735563560426,-229,-32,940,968.0211774542952,-10068,4152,-12896,16879.293350137617
1735563560456,-136,-74,957,969.4436548866571,-10143,4144,-9789,14692.777341265333
1735563560486,-136,-74,957,969.4436548866571,-10216,4160,-6743,12928.275407029354
1735563560516,-136,-74,957,969.4436548866571,-10254,4196,-3678,11673.843240338634
1735563560546,-186,-11,958,975.951330753742,-10244,4231,-576,11098.31847623774
1735563560576,-186,-11,958,975.951330753742,-10210,4250,2618,11364.881169638335
1735563560606,-186,-11,958,975.951330753742,-10172,4255,5821,12468.305819156025
1735563560636,-186,-11,958,975.951330753742,-10142,4246,9022,14222.698899997848
1735563560666,-201,-38,953,974.7071355027622,-10118,4221,12204,16405.132763863876
1735563560696,-201,-38,953,974.7071355027622,-10112,4189,15371,18869.761683709734
1735563560726,-201,-38,953,974.7071355027622,-10132,4161,-17483,20630.72063695304
1735563560756,-170,-18,1001,1015.4924913557953,-10178,4141,-14348,18072.207087126906
1735563560786,-170,-18,1001,1015.4924913557953,-10247,4144,-11235,15760.67796765101
1735563560816,-170,-18,1001,1015.4924913557953,-10292,4169,-8109,13749.971127242414
1735563560846,-211,-48,931,955.816928077757,-10300,4208,-4960,12181.907239837283
1735563560876,-211,-48,931,955.816928077757,-10214,4239,-1732,11193.513344790366
1735563560906,-211,-48,931,955.816928077757,-10132,4235,1503,11083.846714927087
1735563560936,-211,-48,931,955.816928077757,-10081,4205,4724,11900.620235937286
1735563560966,-219,-28,1000,1024.0825162065798,-10086,4157,7920,13480.89184735194
1735563560996,-219,-28,1000,1024.0825162065798,-10127,4123,11090,15573.80358165596
1735563561026,-219,-28,1000,1024.0825162065798,-10180,4109,14245,17984.335016897345
1735563561056,-194,-54,990,1010.2732303688938,-10219,4120,17400,20595.202378223916
1735563561086,-194,-54,990,1010.2732303688938,-10234,4139,-15446,18985.388934651826
1735563561117,-194,-54,990,1010.2732303688938,-10228,4160,-12279,16513.371097386505
1735563561146,-223,-41,993,1018.5573130658873,-10215,4175,-9104,14305.931147604479
1735563561176,-223,-41,993,1018.5573130658873,-10195,4184,-5897,12498.739536449266
1735563561206,-223,-41,993,1018.5573130658873,-10173,4186,-2687,11323.978717747574
1735563561236,-223,-41,993,1018.5573130658873,-10158,4179,520,10996.33598068011
1735563561266,-163,-23,1002,1015.4319278021545,-10186,4177,3681,11608.259387177735
1735563561296,-163,-23,1002,1015.4319278021545,-10224,4189,6822,12985.28324681445
1735563561326,-163,-23,1002,1015.4319278021545,-10241,4211,9976,14904.065821110695
1735563561356,-173,-26,963,978.7614622572754,-10239,4242,13138,17188.33118717463
1735563561386,-173,-26,963,978.7614622572754,-10209,4270,16322,19719.64160424829
1735563561416,-173,-26,963,978.7614622572754,-10167,4282,-16479,19830.805682069502
1735563561446,-191,-41,964,983.5944286137452,-10132,4277,-13286,17247.259173561462
1735563561476,-191,-41,964,983.5944286137452,-10093,4256,-10097,14897.36869383315
1735563561506,-191,-41,964,983.5944286137452,-10084,4226,-6928,12943.85244044446
1735563561536,-217,-59,927,953.8862615637149,-10097,4202,-3774,11569.325347659647
1735563561566,-217,-59,927,953.8862615637149,-10082,4187,-595,10933.056205837414
1735563561596,-217,-59,927,953.8862615637149,-10084,4170,2572,11211.20600114011
1735563561627,-217,-59,927,953.8862615637149,-10099,4157,5729,12332.554115024186
1735563561656,-201,-49,950,972.2664243919976,-10136,4152,8868,14093.2261743009
1735563561687,-201,-49,950,972.2664243919976,-10169,4163,12003,16273.018742691842
1735563561716,-201,-49,950,972.2664243919976,-10184,4183,15149,18727.08055197072
1735563561746,-163,-89,956,973.8716547882477,-10178,4206,-17685,20833.65894412213
1735563561776,-163,-89,956,973.8716547882477,-10152,4219,-14544,18231.593484937075
1735563561805,-163,-89,956,973.8716547882477,-10124,4220,-11399,15819.0068272316
1735563561836,-207,-56,1017,1039.3623044925191,-10105,4210,-8257,13711.789598735826
1735563561866,-207,-56,1017,1039.3623044925191,-10095,4196,-5077,12053.686987805848
1735563561896,-207,-56,1017,1039.3623044925191,-10099,4182,-1906,11095.573937386023
1735563561926,-207,-56,1017,1039.3623044925191,-10111,4172,1255,11009.674382105948
1735563561956,-162,-68,954,970.0432980027232,-10163,4168,4341,11811.141943097628
1735563561986,-162,-68,954,970.0432980027232,-10210,4182,7414,13292.878544544068
1735563562016,-162,-68,954,970.0432980027232,-10231,4209,10502,15253.886258917759
1735563562046,-173,-39,929,945.7753433030489,-10237,4241,13624,17561.1965993209
1735563562076,-173,-39,929,945.7753433030489,-10226,4277,16784,20113.837550303524
1735563562106,-173,-39,929,945.7753433030489,-10191,4302,-16034,19479.54930176774
1735563562134,-209,-62,977,1001.026473176409,-10140,4311,-12836,16916.477677105242
1735563562166,-209,-62,977,1001.026473176409,-10042,4291,-9590,14533.497342346749
1735563562196,-209,-62,977,1001.026473176409,-9992,4243,-6372,12587.513535245951
1735563562227,-209,-62,977,1001.026473176409,-9995,4188,-3193,11297.54920325643
1735563562256,-240,-59,936,968.079025699865,-10034,4146,-23,10856.841207275715
1735563562286,-240,-59,936,968.079025699865,-10085,4124,3138,11338.502767120533
1735563562316,-240,-59,936,968.079025699865,-10136,4124,6294,12623.799269633528
1735563562346,-219,-73,938,965.9886127693225,-10169,4141,9435,14476.728463295842
1735563562376,-219,-73,938,965.9886127693225,-10180,4164,12568,16701.07541447556
1735563562406,-219,-73,938,965.9886127693225,-10170,4187,15717,19182.90796516524
1735563562436,-191,-93,909,933.4939742708573,-10147,4201,-17126,20344.77539812126
1735563562466,-191,-93,909,933.4939742708573,-10127,4198,-14010,17789.30670374762
1735563562496,-191,-93,909,933.4939742708573,-10116,4189,-10899,15448.928053428173
1735563562526,-191,-93,909,933.4939742708573,-10116,4178,-7795,13436.932871753137
1735563562556,-179,-62,956,974.5876050925335,-10125,4184,-4677,11912.002770315326
1735563562586,-179,-62,956,974.5876050925335,-10135,4197,-1557,11079.588575393944
1735563562616,-179,-62,956,974.5876050925335,-10132,4210,1571,11083.752297845707
1735563562646,-218,-60,926,953.205119583398,-10107,4221,4734,11932.269105245658
1735563562676,-218,-60,926,953.205119583398,-10060,4220,7936,13490.444618321517
1735563562706,-218,-60,926,953.205119583398,-10030,4204,11132,15562.645661968918
1735563562736,-213,-85,979,1005.5023620061764,-10023,4184,14312,17966.62820342203
1735563562766,-213,-85,979,1005.5023620061764,-10018,4165,17474,20568.13615765901
1735563562796,-213,-85,979,1005.5023620061764,-10030,4149,-15376,18821.17097844871
1735563562826,-213,-85,979,1005.5023620061764,-10049,4139,-12235,16364.86929370351
1735563562856,-190,-93,952,975.2194624801127,-10075,4131,-9116,14201.135236311215
1735563562887,-190,-93,952,975.2194624801127,-10102,4132,-6007,12458.245341941216
1735563562917,-190,-93,952,975.2194624801127,-10120,4143,-2894,11311.679141489118
1735563562947,-179,-70,909,929.097411469863,-10160,4154,194,10978.11240605597
1735563562977,-179,-70,909,929.097411469863,-10207,4181,3275,11506.052103132508
1735563563007,-179,-70,909,929.097411469863,-10219,4219,6379,12763.994790033408
1735563563036,-193,-76,946,968.4735411976932,-10200,4253,9505,14576.454781598988
1735563563066,-193,-76,946,968.4735411976932,-10150,4272,12660,16779.3946255519
1735563563096,-193,-76,946,968.4735411976932,-10102,4271,15820,19250.045324621966
1735563563126,-193,-76,946,968.4735411976932,-10071,4254,-17027,20234.63085900012
1735563563156,-187,-54,1005,1023.6747530343805,-10068,4238,-13864,17650.375746708625
1735563563186,-187,-54,1005,1023.6747530343805,-10084,4227,-10713,15307.610982775856
1735563563216,-187,-54,1005,1023.6747530343805,-10103,4224,-7567,13310.60757441222
1735563563246,-175,-47,938,955.3418236421977,-10133,4221,-4428,11836.456986784517
1735563563276,-175,-47,938,955.3418236421977,-10170,4229,-1297,11090.335883101106
1735563563306,-175,-47,938,955.3418236421977,-10189,4248,1844,11192.031138269764
1735563563335,-223,-26,976,1001.4893908574369,-10182,4264,5011,12122.909757974774
1735563563366,-223,-26,976,1001.4893908574369,-10139,4266,8262,13757.133458682445
1735563563396,-223,-26,976,1001.4893908574369,-10109,4254,11509,15897.970876813179
1735563563426,-223,-26,976,1001.4893908574369,-10099,4234,14742,18364.1803792056
1735563563456,-182,-38,938,956.2489215680193,-10131,4192,17884,20977.30871680159
1735563563486,-182,-38,938,956.2489215680193,-10191,4169,-15012,18617.120776317697
1735563563516,-182,-38,938,956.2489215680193,-10249,4170,-11914,16259.59092351342
1735563563546,-170,-33,879,895.8961993445446,-10280,4195,-8789,14160.61248675353
1735563563576,-170,-33,879,895.8961993445446,-10283,4228,-5641,12467.435742766032
1735563563606,-170,-33,879,895.8961993445446,-10260,4256,-2472,11379.451656384854
1735563563635,-194,-45,1024,1043.1859853353092,-10220,4271,709,11099.212674780136
1735563563666,-194,-45,1024,1043.1859853353092,-10150,4267,3917,11686.431362909723
1735563563696,-194,-45,1024,1043.1859853353092,-10106,4241,7112,13065.139149660825
1735563563726,-194,-45,1024,1043.1859853353092,-10097,4205,10283,15012.378992018554
1735563563756,-173,-26,972,987.6178410701176,-10142,4175,13424,17334.7790582978
1735563563786,-173,-26,972,987.6178410701176,-10203,4169,16545,19880.110537922068
1735563563816,-173,-26,972,987.6178410701176,-10249,4184,-16327,19726.094038100902
1735563563846,-206,-42,1013,1034.5863907861924,-10260,4218,-13171,17220.173198896693
1735563563876,-206,-42,1013,1034.5863907861924,-10218,4248,-9966,14892.084608945786
1735563563906,-206,-42,1013,1034.5863907861924,-10167,4258,-6747,12923.639657619675
1735563563936,-210,-70,958,983.241577640002,-10134,4249,-3536,11543.623911060165
1735563563966,-210,-70,958,983.241577640002,-10110,4228,-348,10963.995074789116
1735563563996,-210,-70,958,983.241577640002,-10109,4203,2822,11305.784979381131
1735563564026,-210,-70,958,983.241577640002,-10128,4183,5977,12481.923008895705
1735563564056,-177,-63,969,987.0455916521789,-10184,4165,9093,14273.882793409788
1735563564086,-177,-63,969,987.0455916521789,-10244,4170,12193,16462.0073198866
1735563564116,-177,-63,969,987.0455916521789,-10281,4194,15305,18908.506604171573
1735563564146,-151,-32,942,954.5622033162638,-10302,4231,-17560,20793.897301852772
1735563564176,-151,-32,942,954.5622033162638,-10313,4276,-14411,18229.620566539503
1735563564206,-151,-32,942,954.5622033162638,-10286,4316,-11231,15829.24549686434
1735563564236,-218,-12,971,995.2431863620067,-10236,4340,-8027,13712.91453338786
1735563564266,-218,-12,971,995.2431863620067,-10148,4346,-4735,12012.07080398713
1735563564296,-218,-12,971,995.2431863620067,-10085,4321,-1452,11067.36508840293
1735563564326,-218,-12,971,995.2431863620067,-10063,4281,1803,11083.399252936799
1735563564356,-216,-4,916,941.1312342070047,-10098,4233,4994,12034.44759845669
1735563564386,-216,-4,916,941.1312342070047,-10160,4207,8160,13693.430870311502
1735563564416,-216,-4,916,941.1312342070047,-10222,4207,11319,15821.12176806689
1735563564446,-197,12,922,942.8875860886069,-10266,4233,14494,18258.835696725026
1735563564476,-197,12,922,942.8875860886069,-10288,4274,17688,20903.955702211006
1735563564506,-197,12,922,942.8875860886069,-10270,4315,-15087,18753.924762566367
1735563564536,-193,-12,1032,1049.960475446576,-10225,4340,-11840,16234.89528762043
1735563564566,-193,-12,1032,1049.960475446576,-10160,4336,-8594,13995.83266547582
1735563564596,-193,-12,1032,1049.960475446576,-10120,4311,-5360,12236.36878326246
1735563564626,-193,-12,1032,1049.960475446576,-10113,4278,-2150,11189.126552148742
1735563564656,-151,0,884,896.8037689483692,-10190,4247,968,11081.973335105982
1735563564686,-151,0,884,896.8037689483692,-10278,4249,4062,11840.233485873494
1735563564716,-151,0,884,896.8037689483692,-10336,4279,7169,13286.733910182742
1735563564746,-238,-35,963,992.5915574897864,-10282,4333,10385,15242.78970530001
1735563564776,-238,-35,963,992.5915574897864,-10125,4348,13720,17597.13411325833
1735563564806,-238,-35,963,992.5915574897864,-10010,4307,17040,20226.5159876831
1735563564836,-192,2,917,936.8868661690161,-9969,4226,-15699,19070.884562599607
1735563564866,-192,2,917,936.8868661690161,-10076,4139,-12581,16641.47403327001
1735563564896,-192,2,917,936.8868661690161,-10212,4103,-9501,14539.207474962313
1735563564926,-192,2,917,936.8868661690161,-10331,4118,-6423,12842.990851044004
1735563564956,-129,-31,907,916.6520604896931,-10395,4188,-3344,11695.200083795062
1735563564986,-129,-31,907,916.6520604896931,-10393,4264,-237,11236.205498298792
1735563565016,-129,-31,907,916.6520604896931,-10334,4326,2918,11576.724752709637
1735563565046,-220,-15,1049,1071.926303436948,-10196,4350,6178,12690.492504233238
1735563565076,-220,-15,1049,1071.926303436948,-10038,4315,9520,14491.758657940727
1735563565106,-220,-15,1049,1071.926303436948,-9962,4234,12812,16772.46386193752
1735563565136,-166,1,1020,1033.420050124827,-9984,4139,16023,19327.39263325501
1735563565166,-166,1,1020,1033.420050124827,-10139,4069,-16915,20136.36777077733
1735563565196,-166,1,1020,1033.420050124827,-10295,4062,-13874,17747.5278560142
1735563565226,-186,-31,863,883.3606285091045,-10411,4106,-10841,15581.252773766299
1735563565256,-186,-31,863,883.3606285091045,-10431,4170,-7796,13673.780640334991
1735563565286,-186,-31,863,883.3606285091045,-10397,4230,-4709,12172.312434373347
1735563565316,-186,-31,863,883.3606285091045,-10328,4268,-1588,11287.389069222341
1735563565346,-178,-39,917,934.9299438995416,-10260,4295,1615,11239.343842057684
1735563565376,-178,-39,917,934.9299438995416,-10191,4305,4862,12084.22732325075
1735563565406,-178,-39,917,934.9299438995416,-10137,4290,8105,13669.451122850543
1735563565436,-169,-25,1040,1053.9383283665131,-10118,4253,11320,15767.191664973188
1735563565466,-169,-25,1040,1053.9383283665131,-10165,4208,14473,18179.719964839944
1735563565496,-169,-25,1040,1053.9383283665131,-10230,4187,17604,20786.646795479064
1735563565526,-121,-44,893,902.2338942868417,-10299,4194,-15269,18889.187330322075
1735563565556,-121,-44,893,902.2338942868417,-10375,4228,-12186,16553.404634696755
1735563565586,-121,-44,893,902.2338942868417,-10402,4280,-9070,14449.391129040698
1735563565615,-121,-44,893,902.2338942868417,-10379,4332,-5917,12708.294692837431
1735563565646,-134,-22,1053,1061.7198312172566,-10285,4362,-2718,11497.64293235792
1735563565676,-134,-22,1053,1061.7198312172566,-10199,4357,491,11101.537325974272
1735563565706,-134,-22,1053,1061.7198312172566,-10146,4324,3684,11627.989852076755
1735563565736,-118,-9,942,949.4045502313542,-10147,4279,6832,12959.462720344543
1735563565766,-118,-9,942,949.4045502313542,-10223,4248,9899,14850.772168476627
1735563565796,-118,-9,942,949.4045502313542,-10298,4246,12958,17087.629560591486
1735563565826,-167,-5,952,966.5495331331964,-10341,4270,16030,19548.147763918707
1735563565857,-167,-5,952,966.5495331331964,-10296,4304,-16809,20176.087653457496
1735563565886,-167,-5,952,966.5495331331964,-10240,4317,-13632,17587.652287897894
1735563565916,-167,-5,952,966.5495331331964,-10192,4308,-10455,15223.099323068216
1735563565946,-94,-71,906,913.6262912153962,-10157,4282,-7335,13240.181192113649
1735563565976,-94,-71,906,913.6262912153962,-10157,4245,-4268,11806.798804078944
1735563566007,-94,-71,906,913.6262912153962,-10185,4214,-1224,11090.094544231803
1735563566066,-136,-6,980,989.4099251574142,-10212,4194,1850,11193.617824456935
1735563566067,-136,-6,980,989.4099251574142,-10246,4191,4966,12132.854280835982
1735563566096,-136,-6,980,989.4099251574142,-10271,4200,8085,13729.554472014013
1735563566126,-155,4,963,975.4024810302668,-10274,4216,11215,15783.090856989958
1735563566156,-155,4,963,975.4024810302668,-10244,4229,14381,18155.911929726914
1735563566186,-155,4,963,975.4024810302668,-10214,4230,17552,20743.46644126772
1735563566216,-155,4,963,975.4024810302668,-10192,4221,-15279,18845.19954789548
1735563566246,-132,-45,1037,1046.3355102451603,-10164,4207,-12123,16369.877030692687
1735563566276,-132,-45,1037,1046.3355102451603,-10152,4181,-8991,14190.910682546064
1735563566306,-132,-45,1037,1046.3355102451603,-10163,4156,-5877,12453.83611583194
1735563566336,-176,-54,1045,1061.0923616726302,-10188,4145,-2757,11339.19829617597
1735563566366,-176,-54,1045,1061.0923616726302,-10195,4144,394,11012.084135167148
1735563566396,-176,-54,1045,1061.0923616726302,-10200,4146,3546,11567.343342358261
1735563566426,-149,-33,993,1004.6586484970903,-10208,4149,6691,12891.351597097955
1735563566457,-149,-33,993,1004.6586484970903,-10260,4159,9790,14778.666414802115
1735563566486,-149,-33,993,1004.6586484970903,-10288,4184,12902,17023.81872553864
1735563566516,-149,-33,993,1004.6586484970903,-10287,4214,16035,19511.57066973338
1735563566546,-127,-49,959,968.612925786147,-10292,4249,-16852,20198.246681333505
1735563566576,-127,-49,959,968.612925786147,-10270,4278,-13725,17667.761855990702
1735563566606,-127,-49,959,968.612925786147,-10232,4295,-10582,15333.609262010037
1735563566636,-151,-14,980,991.6637534971217,-10213,4294,-7442,13346.429072976787
1735563566667,-151,-14,980,991.6637534971217,-10213,4293,-4294,11881.651989517282
1735563566697,-151,-14,980,991.6637534971217,-10213,4291,-1148,11137.142990911088
1735563566726,-113,-46,1032,1039.186701223606,-10217,4293,2003,11261.83586277122
1735563566756,-113,-46,1032,1039.186701223606,-10224,4299,5129,12219.58338078676
1735563566786,-113,-46,1032,1039.186701223606,-10224,4306,8259,13830.505883733971
1735563566816,-113,-46,1032,1039.186701223606,-10219,4312,11394,15901.086157869846
1735563566846,-146,-65,942,955.4606218991969,-10172,4312,14560,18277.213354338237
1735563566876,-146,-65,942,955.4606218991969,-10129,4293,17731,20866.59653609088
1735563566906,-146,-65,942,955.4606218991969,-10115,4264,-15115,18680.421462054863
1735563566937,-143,-38,1018,1028.6967483179872,-10137,4233,-11979,16253.41499500951
1735563566967,-143,-38,1018,1028.6967483179872,-10191,4218,-8859,14146.727041969814
1735563566996,-143,-38,1018,1028.6967483179872,-10238,4224,-5740,12474.230236772128
1735563567026,-139,-37,950,960.8277681249642,-10264,4248,-2606,11409.927081274445
1735563567056,-139,-37,950,960.8277681249642,-10259,4281,551,11130.033378206914
1735563567086,-139,-37,950,960.8277681249642,-10229,4307,3732,11709.419883153905
1735563567116,-139,-37,950,960.8277681249642,-10189,4318,6925,13054.36593634482
1735563567146,-176,-12,956,972.1399076264692,-10155,4314,10141,14985.810021483658
1735563567176,-176,-12,956,972.1399076264692,-10132,4300,13364,17313.114104631783
1735563567206,-176,-12,956,972.1399076264692,-10127,4282,16574,19889.42254063702
1735563567236,-224,-45,1001,1026.7433954012074,-10108,4266,-16207,19571.337946088406
1735563567266,-224,-45,1001,1026.7433954012074,-10066,4239,-12965,16952.424664336366
1735563567296,-224,-45,1001,1026.7433954012074,-10060,4203,-9749,14625.724255571073
1735563567326,-160,-23,992,1005.0835786142364,-10088,4170,-6561,12735.90848742248
1735563567356,-160,-23,992,1005.0835786142364,-10204,4155,-3474,11552.24294239002
1735563567386,-160,-23,992,1005.0835786142364,-10294,4182,-379,11117.517753527538
1735563567416,-160,-23,992,1005.0835786142364,-10336,4233,2743,11501.097078105202
1735563567447,-181,-24,959,976.2264081656468,-10294,4292,5943,12637.521473770084
1735563567477,-181,-24,959,976.2264081656468,-10214,4324,9185,14400.937365324522
1735563567507,-181,-24,959,976.2264081656468,-10135,4324,12436,16615.33318955717
1735563567536,-185,-33,951,969.3889828134008,-10087,4295,15662,19117.8669835314
1735563567566,-185,-33,951,969.3889828134008,-10075,4253,-17144,20334.954388933358
1735563567596,-185,-33,951,969.3889828134008,-10098,4216,-13978,17751.865930093096
1735563567626,-200,-5,908,929.7790060008883,-10143,4193,-10835,15422.675610930808
1735563567656,-200,-5,908,929.7790060008883,-10201,4192,-7684,13441.618987309526
1735563567686,-200,-5,908,929.7790060008883,-10242,4210,-4526,11962.748012058099
1735563567716,-200,-5,908,929.7790060008883,-10254,4239,-1350,11177.483482430202
1735563567746,-216,-47,958,983.1729247695952,-10204,4268,1853,11214.769235254018
1735563567776,-216,-47,958,983.1729247695952,-10135,4270,5072,12110.9995045826
1735563567806,-216,-47,958,983.1729247695952,-10088,4248,8283,13726.665181317712
1735563567836,-181,-25,969,986.0765690350826,-10086,4213,11467,15841.996528215754
1735563567866,-181,-25,969,986.0765690350826,-10136,4188,14608,18266.67742092141
1735563567896,-181,-25,969,986.0765690350826,-10189,4185,17742,20883.211199430036
1735563567926,-186,-31,929,947.9440911783774,-10227,4198,-15124,18733.66245559047
1735563567956,-186,-31,929,947.9440911783774,-10237,4215,-11984,16314.982378170072
1735563567986,-186,-31,929,947.9440911783774,-10232,4233,-8832,14163.909665060703
1735563568017,-186,-31,929,947.9440911783774,-10215,4245,-5669,12429.956194613076
1735563568046,-159,-48,969,983.1307135879746,-10194,4234,-2532,11324.990772623172
1735563568076,-159,-48,969,983.1307135879746,-10191,4217,584,11044.483962594179
1735563568106,-159,-48,969,983.1307135879746,-10202,4202,3690,11634.161250386725
1735563568137,-169,-43,904,920.6660632390009,-10218,4197,6796,12969.500722849743
1735563568166,-169,-43,904,920.6660632390009,-10229,4200,9912,14849.922053667487
1735563568197,-169,-43,904,920.6660632390009,-10235,4206,13032,17096.1599489476
1735563568227,-149,-82,985,999.5749096490968,-10228,4215,16164,19587.064736708253
1735563568256,-149,-82,985,999.5749096490968,-10190,4216,-16706,20017.52212437893
1735563568286,-149,-82,985,999.5749096490968,-10164,4204,-13583,17477.94041070057
1735563568316,-149,-82,985,999.5749096490968,-10155,4186,-10470,15174.568231089806
1735563568346,-174,-19,964,979.761705722366,-10205,4173,-7347,13248.938183869679
1735563568376,-174,-19,964,979.761705722366,-10255,4184,-4213,11849.905062910842
1735563568406,-174,-19,964,979.761705722366,-10280,4211,-1064,11159.884273593521
1735563568437,-166,-40,961,976.0517404318277,-10275,4247,2099,11314.523189246642
1735563568467,-166,-40,961,976.0517404318277,-10238,4274,5279,12286.234614396715
1735563568497,-166,-40,961,976.0517404318277,-10191,4284,8472,13927.811062762159
1735563568527,-188,-21,992,1009.8757349297982,-10151,4275,11664,16042.67190962902
1735563568557,-188,-21,992,1009.8757349297982,-10129,4254,14869,18487.30153375554
1735563568586,-188,-21,992,1009.8757349297982,-10129,4230,-17941,21032.570503863764
1735563568616,-188,-21,992,1009.8757349297982,-10149,4210,-14768,18407.06725689891
1735563568645,-152,-36,1020,1031.8914671611544,-10186,4206,-11636,16026.27617383402
1735563568676,-152,-36,1020,1031.8914671611544,-10220,4214,-8516,13954.513678376614
1735563568707,-152,-36,1020,1031.8914671611544,-10237,4232,-5385,12316.826620522024
1735563568737,-179,-13,935,952.0688000349554,-10247,4251,-2242,11318.06405707266
1735563568766,-179,-13,935,952.0688000349554,-10242,4272,930,11136.132542314679
1735563568796,-179,-13,935,952.0688000349554,-10222,4288,4117,11824.800928556895
1735563568826,-207,-45,968,990.9076647195742,-10194,4295,7313,13260.642141314274
1735563568856,-207,-45,968,990.9076647195742,-10120,4287,10546,15231.903525167168
1735563568886,-207,-45,968,990.9076647195742,-10077,4256,13763,17580.660795317108
1735563568916,-207,-45,968,990.9076647195742,-10072,4217,16953,20165.130349194373
1735563568946,-168,-34,952,967.3076036091105,-10144,4181,-15920,19334.62947666699
1735563568977,-168,-34,952,967.3076036091105,-10231,4178,-12820,16925.7627597695
1735563569007,-168,-34,952,967.3076036091105,-10292,4204,-9710,14760.859731059028
1735563569037,-169,-37,943,958.7382333045866,-10303,4242,-6585,12942.511271001467
1735563569067,-169,-37,943,958.7382333045866,-10276,4274,-3440,11648.899175458599
1735563569096,-169,-37,943,958.7382333045866,-10234,4291,-277,11100.638089767634
1735563569126,-157,-61,985,999.2972530733786,-10188,4291,2896,11427.80998266947
1735563569156,-157,-61,985,999.2972530733786,-10142,4270,6060,12562.51025870228
1735563569186,-157,-61,985,999.2972530733786,-10128,4238,9204,14326.571257631744
1735563569216,-166,-10,938,952.6279441628825,-10145,4204,12322,16505.342316959075
1735563569247,-166,-10,938,952.6279441628825,-10220,4187,15427,18972.920123165015
1735563569277,-166,-10,938,952.6279441628825,-10283,4198,-17467,20699.260421570623
1735563569307,-166,-10,938,952.6279441628825,-10318,4228,-14346,18169.88783674792
1735563569337,-165,0,904,918.9347093237909,-10321,4273,-11198,15816.977397720464
1735563569366,-165,0,904,918.9347093237909,-10291,4312,-8021,13741.70535268458
1735563569396,-165,0,904,918.9347093237909,-10240,4333,-4823,12119.975990075229
1735563569426,-184,-16,940,957.9728597408175,-10183,4336,-1605,11183.488275131333
1735563569456,-184,-16,940,957.9728597408175,-10105,4319,1652,11112.780480149871
1735563569486,-184,-16,940,957.9728597408175,-10067,4279,4886,11980.289061621175
1735563569516,-185,-16,1032,1048.5728396253644,-10077,4234,8084,13594.989554979438
1735563569545,-185,-16,1032,1048.5728396253644,-10126,4201,11247,15706.027059699089
1735563569576,-185,-16,1032,1048.5728396253644,-10184,4191,14397,18126.001930927847
1735563569606,-185,-16,1032,1048.5728396253644,-10230,4202,17549,20743.121872080876
1735563569637,-163,-17,957,970.9309965182902,-10271,4223,-15310,18913.57369721545
1735563569666,-163,-17,957,970.9309965182902,-10288,4254,-12160,16486.51145633909
1735563569696,-163,-17,957,970.9309965182902,-10275,4285,-8986,14306.81816477724
1735563569726,-152,-36,940,952.8903399657277,-10236,4301,-5811,12531.64067470816
1735563569756,-152,-36,940,952.8903399657277,-10194,4296,-2648,11374.759601855329
1735563569786,-152,-36,940,952.8903399657277,-10170,4277,504,11044.258463111048
1735563569816,-175,-18,945,961.2356630920432,-10164,4254,3646,11605.891951935448
1735563569846,-175,-18,945,961.2356630920432,-10168,4236,6809,12949.687293521802
1735563569876,-175,-18,945,961.2356630920432,-10184,4222,9960,14857.346331024259
1735563569906,-175,-18,945,961.2356630920432,-10206,4216,13105,17137.03933005932
1735563569936,-179,-40,948,965.5801364982608,-10199,4222,16261,19653.625772360683
1735563569966,-179,-40,948,965.5801364982608,-10185,4221,-16580,19910.98857415171
1735563569996,-179,-40,948,965.5801364982608,-10176,4216,-13423,17363.829099596667
1735563570026,-207,-52,973,996.1335251862573,-10156,4207,-10251,15030.8411607601
1735563570056,-207,-52,973,996.1335251862573,-10129,4189,-7063,13039.567899282552
1735563570086,-207,-52,973,996.1335251862573,-10125,4164,-3892,11619.044065670807
1735563570116,-184,-48,979,997.2968464805251,-10147,4147,-733,10986.196202507945
1735563570146,-184,-48,979,997.2968464805251,-10203,4150,2397,11272.50273896618
1735563570176,-184,-48,979,997.2968464805251,-10239,4172,5539,12366.213082427457
1735563570207,-184,-48,979,997.2968464805251,-10247,4201,8699,14082.68479374583
1735563570236,-179,-83,980,999.6649438686944,-10209,4227,11856,16206.663629507462
1735563570266,-179,-83,980,999.6649438686944,-10158,4232,15021,18620.559309537402
1735563570296,-179,-83,980,999.6649438686944,-10120,4220,-17817,20920.523153114504
1735563570326,-188,-34,985,1003.356865726248,-10128,4192,-14673,18315.18978880645
1735563570356,-188,-34,985,1003.356865726248,-10178,4179,-11541,15945.231450185976
1735563570386,-188,-34,985,1003.356865726248,-10223,4184,-8410,13883.215945882279
1735563570416,-160,-48,948,962.6047994893854,-10239,4206,-5267,12258.419392401289
1735563570446,-160,-48,948,962.6047994893854,-10226,4229,-2135,11270.03735574998
1735563570476,-160,-48,948,962.6047994893854,-10201,4242,1009,11093.829185632885
1735563570506,-160,-48,948,962.6047994893854,-10173,4245,4159,11781.648229343804
1735563570536,-202,-33,981,1002.1247427341568,-10127,4241,7353,13213.963031581403
1735563570567,-202,-33,981,1002.1247427341568,-10093,4222,10555,15202.037955484784
1735563570597,-202,-33,981,1002.1247427341568,-10085,4196,13740,17552.81290847709
1735563570627,-170,-37,956,971.702114847961,-10130,4172,16865,20110.959922390575
1735563570656,-170,-37,956,971.702114847961,-10203,4169,-16055,19474.208456314725
1735563570686,-170,-37,956,971.702114847961,-10254,4190,-12968,17054.900761951092
1735563570716,-170,-79,984,1001.6970599936889,-10262,4229,-9848,14838.335115504031
1735563570746,-170,-79,984,1001.6970599936889,-10183,4259,-6675,12899.154817273882
1735563570776,-170,-79,984,1001.6970599936889,-10107,4256,-3494,11509.692480687745
1735563570806,-170,-79,984,1001.6970599936889,-10058,4229,-326,10915.772121109894
1735563570836,-156,-29,979,991.7751761362048,-10084,4185,2824,11277.245097983816
1735563570866,-156,-29,979,991.7751761362048,-10147,4164,5949,12477.624212966184
1735563570896,-156,-29,979,991.7751761362048,-10206,4168,9070,14275.83832914901
1735563570926,-180,-43,932,950.1962955095121,-10241,4196,12188,16463.04470625042
1735563570956,-180,-43,932,950.1962955095121,-10230,4230,15336,18913.981495179698
1735563570985,-180,-43,932,950.1962955095121,-10195,4254,-17494,20689.96319474735
1735563571016,-217,-66,1010,1035.154577828838,-10149,4263,-14309,18053.33351489414
1735563571046,-217,-66,1010,1035.154577828838,-10056,4249,-11072,15548.836644585343
1735563571076,-217,-66,1010,1035.154577828838,-10006,4207,-7857,13399.676637889439
1735563571107,-217,-66,1010,1035.154577828838,-10004,4156,-4677,11799.435622096507
1735563571137,-210,-78,977,1002.3537299775962,-10064,4121,-1567,10987.366654480955
1735563571167,-210,-78,977,1002.3537299775962,-10129,4111,1525,11037.326986186465
1735563571196,-210,-78,977,1002.3537299775962,-10181,4125,4622,11917.687275642033
1735563571226,-178,-62,1000,1017.6089622246848,-10215,4157,7737,13471.749812106815
1735563571256,-178,-62,1000,1017.6089622246848,-10234,4200,10861,15502.776428756237
1735563571286,-178,-62,1000,1017.6089622246848,-10214,4241,14016,17853.854849863656
1735563571316,-185,-42,923,942.2940093198089,-10176,4265,17180,20417.9724997366
1735563571346,-185,-42,923,942.2940093198089,-10160,4270,-15666,19154.16549996371
1735563571376,-185,-42,923,942.2940093198089,-10145,4269,-12512,16664.19905065947
1735563571406,-185,-42,923,942.2940093198089,-10135,4264,-9360,14439.858759697063
1735563571436,-185,-41,931,950.0878906711737,-10118,4261,-6186,12601.45392405178
1735563571466,-185,-41,931,950.0878906711737,-10110,4253,-3016,11375.252304894164
1735563571497,-185,-41,931,950.0878906711737,-10110,4244,147,10965.639288249455
1735563571526,-181,-92,1001,1021.3843546873038,-10088,4240,3321,11435.662857919519
1735563571556,-181,-92,1001,1021.3843546873038,-10048,4221,6494,12686.653656500599
1735563571586,-181,-92,1001,1021.3843546873038,-10035,4192,9649,14538.820103433429
1735563571616,-202,-73,995,1017.918464318238,-10053,4162,12780,16784.321642532952
1735563571646,-202,-73,995,1017.918464318238,-10098,4144,15908,19292.661921051746
1735563571676,-202,-73,995,1017.918464318238,-10141,4144,-16967,20196.32902286948
1735563571706,-202,-73,995,1017.918464318238,-10171,4158,-13838,17669.987238252324
1735563571736,-153,-25,965,977.3735212292177,-10235,4174,-10729,15404.185859694111
1735563571766,-153,-25,965,977.3735212292177,-10288,4214,-7618,13477.190508410868
1735563571796,-153,-25,965,977.3735212292177,-10293,4265,-4474,12006.362896397894
1735563571826,-172,-41,974,989.9196937125758,-10248,4307,-1294,11191.344378581154
1735563571856,-172,-41,974,989.9196937125758,-10170,4322,1918,11215.49410414004
1735563571886,-172,-41,974,989.9196937125758,-10106,4307,5129,12123.865967586411
1735563571916,-173,-41,928,944.877769872908,-10074,4274,8318,13745.605697822122
1735563571946,-173,-41,928,944.877769872908,-10079,4233,11476,15849.388190084816
1735563571976,-173,-41,928,944.877769872908,-10114,4201,14609,18258.26601843669
1735563572006,-173,-41,928,944.877769872908,-10161,4188,17727,20857.415803497806
1735563572036,-220,-53,970,996.0466856528362,-10173,4194,-15109,18691.21306924727
1735563572066,-220,-53,970,996.0466856528362,-10163,4199,-11923,16219.620803212385
1735563572096,-220,-53,970,996.0466856528362,-10152,4201,-8735,14036.08670534633
1735563572126,-216,-45,977,1001.6037140506219,-10153,4199,-5550,12309.244899667892
1735563572156,-216,-45,977,1001.6037140506219,-10163,4199,-2370,11248.780822826979
1735563572186,-216,-45,977,1001.6037140506219,-10169,4203,811,11033.199490628274
1735563572216,-165,-15,945,959.413883576843,-10169,4209,3997,11708.981638041798
1735563572246,-165,-15,945,959.413883576843,-10223,4221,7132,13160.242930888471
1735563572277,-165,-15,945,959.413883576843,-10250,4249,10283,15128.006808565364
1735563572307,-165,-15,945,959.413883576843,-10247,4280,13455,17445.81422576774
1735563572336,-183,-82,998,1017.9474446158799,-10165,4307,16670,19994.158496921045
1735563572366,-183,-82,998,1017.9474446158799,-10071,4294,-16104,19473.11718754858
1735563572397,-183,-82,998,1017.9474446158799,-10018,4252,-12902,16879.023431466645
1735563572426,-153,-37,977,989.5994139044344,-10047,4192,-9755,14617.62969841554
1735563572457,-153,-37,977,989.5994139044344,-10151,4159,-6665,12835.977056694983
1735563572486,-153,-37,977,989.5994139044344,-10247,4166,-3582,11627.006880534645
1735563572516,-174,-63,932,950.1941906789369,-10301,4204,-482,11136.271413718328
1735563572546,-174,-63,932,950.1941906789369,-10264,4247,2670,11424.342650673605
1735563572576,-174,-63,932,950.1941906789369,-10206,4269,5846,12512.494275722966
1735563572606,-174,-63,932,950.1941906789369,-10150,4268,9029,14239.422916677488
1735563572636,-179,-31,931,948.5583798586147,-10137,4250,12191,16414.680928973306
1735563572667,-179,-31,931,948.5583798586147,-10147,4234,15343,18875.80498945674
1735563572696,-179,-31,931,948.5583798586147,-10165,4225,-17512,20684.48679566404
1735563572727,-174,-16,945,961.018730306543,-10187,4227,-14365,18110.65219698065
1735563572757,-174,-16,945,961.018730306543,-10206,4241,-11210,15742.065207589505
1735563572786,-174,-16,945,961.018730306543,-10209,4258,-8044,13676.994589455682
1735563572816,-178,-62,969,987.16209408587,-10203,4274,-4870,12086.570439955249
1735563572846,-178,-62,969,987.16209408587,-10157,4280,-1688,11150.443623461804
1735563572876,-178,-62,969,987.16209408587,-10122,4270,1489,11086.248463750035
1735563572906,-169,-42,969,984.5232348705641,-10112,4250,4659,11917.270031345266
1735563572966,-169,-42,969,984.5232348705641,-10151,4236,7809,13489.51363096535
1735563572966,-169,-42,969,984.5232348705641,-10187,4238,10957,15549.645076335344
1735563572997,-169,-42,969,984.5232348705641,-10211,4251,14112,17929.97674287393
1735563573027,-160,-20,977,990.2166429625388,-10220,4270,17264,20511.630749406544
1735563573056,-160,-20,977,990.2166429625388,-10219,4291,-15572,19113.55084750084
1735563573086,-160,-20,977,990.2166429625388,-10202,4307,-12395,16621.283885428347
1735563573116,-155,-21,932,945.034390908606,-10180,4314,-9212,14391.106281311386
1735563573147,-155,-21,932,945.034390908606,-10164,4312,-6038,12584.02495229567
1735563573176,-155,-21,932,945.034390908606,-10156,4305,-2867,11397.238700667807
1735563573206,-167,-37,942,957.4037810662751,-10155,4295,290,11029.739344154965
1735563573236,-167,-37,942,957.4037810662751,-10141,4280,3443,11533.105826272471
1735563573267,-167,-37,942,957.4037810662751,-10143,4264,6585,12822.806635054589
1735563573298,-167,-37,942,957.4037810662751,-10157,4251,9716,14684.560122795643
1735563573326,-190,-39,994,1012.7472537607791,-10124,4227,12895,16930.5620107544
1735563573357,-190,-39,994,1012.7472537607791,-10114,4196,16062,19439.322416174902
1735563573386,-190,-39,994,1012.7472537607791,-10131,4167,-16790,20047.572172210777
1735563573416,-179,-64,948,966.8717598523601,-10172,4152,-13674,17541.008066813036
1735563573446,-179,-64,948,966.8717598523601,-10210,4153,-10575,15274.885727886805
1735563573477,-179,-64,948,966.8717598523601,-10235,4166,-7470,13338.3537589914
1735563573506,-145,-65,1020,1032.3032500191016,-10237,4183,-4349,11883.074475909001
1735563573536,-145,-65,1020,1032.3032500191016,-10241,4191,-1246,11135.307719142746
1735563573566,-145,-65,1020,1032.3032500191016,-10238,4200,1861,11221.406551765247
1735563573596,-145,-65,1020,1032.3032500191016,-10229,4206,4975,12127.386445561962
1735563573626,-133,5,950,959.2778533876408,-10275,4220,8111,13753.993819978254
1735563573656,-133,5,950,959.2778533876408,-10312,4256,11261,15851.21449605676
1735563573686,-133,5,950,959.2778533876408,-10309,4296,14439,18254.200009860746
1735563573716,-165,-44,1005,1019.4047282605668,-10246,4329,17644,20857.40858783756
1735563573746,-165,-44,1005,1019.4047282605668,-10137,4324,-15122,18711.777815055415
1735563573776,-165,-44,1005,1019.4047282605668,-10068,4284,-11909,16172.246628097162
1735563573806,-153,-45,974,986.9701109962753,-10061,4228,-8742,13982.927769247755
1735563573836,-153,-45,974,986.9701109962753,-10120,4182,-5643,12318.562132002256
1735563573866,-153,-45,974,986.9701109962753,-10195,4163,-2565,11306.980985214399
1735563573896,-153,-45,974,986.9701109962753,-10260,4172,512,11087.620484125528
1735563573926,-117,-13,970,977.1171884682001,-10316,4194,3600,11703.396600987253
1735563573956,-117,-13,970,977.1171884682001,-10354,4234,6697,13037.709959958458
1735563573986,-117,-13,970,977.1171884682001,-10348,4280,9826,14897.979057576904
1735563574016,-118,-28,943,950.7665328565157,-10304,4324,12982,17128.97299898625
1735563574046,-118,-28,943,950.7665328565157,-10232,4346,16163,19616.93424059937
1735563574076,-118,-28,943,950.7665328565157,-10165,4340,-16652,19986.293528315848
1735563574106,-123,-24,1041,1048.5160942970786,-10125,4312,-13480,17401.705922121542
1735563574136,-123,-24,1041,1048.5160942970786,-10119,4273,-10326,15075.774142643555
1735563574166,-123,-24,1041,1048.5160942970786,-10145,4239,-7199,13142.136317965964
1735563574196,-123,-24,1041,1048.5160942970786,-10188,4220,-4089,11761.108153571244
1735563574226,-149,-55,998,1010.5592511080189,-10202,4219,-947,11080.504230403958
1735563574256,-149,-55,998,1010.5592511080189,-10200,4219,2203,11255.80605731993
1735563574287,-149,-55,998,1010.5592511080189,-10198,4218,5354,12266.052502741051
1735563574317,-157,-40,1040,1052.5440608354597,-10194,4213,8506,13929.071792477775
1735563574346,-157,-40,1040,1052.5440608354597,-10195,4208,11660,16049.949813005647
1735563574376,-157,-40,1040,1052.5440608354597,-10200,4204,14810,18467.531399729636
1735563574406,-149,-48,1005,1017.1184788410836,-10204,4205,17963,21082.528548539904
1735563574436,-149,-48,1005,1017.1184788410836,-10201,4210,-14881,18526.431442671306
1735563574466,-149,-48,1005,1017.1184788410836,-10195,4213,-11723,16097.08430120188
1735563574496,-149,-48,1005,1017.1184788410836,-10189,4213,-8565,13961.529823053059
1735563574526,-140,-29,1011,1021.059253912328,-10209,4209,-5432,12306.3392607225
1735563574556,-140,-29,1011,1021.059253912328,-10232,4214,-2302,11302.691007012445
1735563574586,-140,-29,1011,1021.059253912328,-10245,4225,833,11113.259602834805
1735563574616,-111,-59,1026,1033.6720950088572,-10251,4243,3961,11780.304367884559
1735563574646,-111,-59,1026,1033.6720950088572,-10244,4259,7075,13158.048563521872
1735563574676,-111,-59,1026,1033.6720950088572,-10227,4270,10198,15060.665091555551
1735563574706,-160,-80,990,1006.0318086422516,-10209,4273,13325,17321.600243626453
1735563574737,-160,-80,990,1006.0318086422516,-10146,4263,16507,19839.24227383697
1735563574766,-160,-80,990,1006.0318086422516,-10111,4235,-16325,19664.006992472314
1735563574796,-160,-80,990,1006.0318086422516,-10109,4200,-13182,17134.672596813747
1735563574826,-140,-28,960,970.5586020431739,-10189,4175,-10092,14936.358659325237
1735563574856,-140,-28,960,970.5586020431739,-10277,4186,-7013,13127.12817031966
1735563574886,-140,-28,960,970.5586020431739,-10329,4224,-3915,11826.142312690135
1735563574916,-116,-37,998,1005.3999204296766,-10332,4274,-787,11208.776427425073
1735563574946,-116,-37,998,1005.3999204296766,-10299,4316,2360,11413.45070519867
1735563574976,-116,-37,998,1005.3999204296766,-10244,4340,5531,12424.455601755757
1735563575006,-129,-32,964,973.1192116077043,-10187,4341,8712,14089.648469709953
1735563575036,-129,-32,964,973.1192116077043,-10140,4326,11906,16226.112042014254
1735563575066,-129,-32,964,973.1192116077043,-10120,4299,15083,18665.280335424915
1735563575096,-129,-32,964,973.1192116077043,-10128,4270,-17761,20886.89553284547
1735563575126,-124,-22,1005,1012.8598126098202,-10168,4245,-14635,18319.155930336965
1735563575156,-124,-22,1005,1012.8598126098202,-10216,4239,-11520,15970.165215175452
1735563575186,-124,-22,1005,1012.8598126098202,-10254,4249,-8403,13921.527430565944
1735563575217,-161,-18,956,969.6293106130817,-10267,4268,-5268,12303.614794035126
1735563575247,-161,-18,956,969.6293106130817,-10248,4286,-2095,11303.995974875434
1735563575277,-161,-18,956,969.6293106130817,-10222,4295,1085,11140.625386395504
1735563575306,-155,-1,895,908.3231803713918,-10192,4293,4270,11854.940446919167
1735563575337,-155,-1,895,908.3231803713918,-10182,4283,7448,13322.53418085313
1735563575367,-155,-1,895,908.3231803713918,-10183,4272,10618,15319.445061750768
1735563575396,-155,-1,895,908.3231803713918,-10192,4263,13781,17662.559101104234
1735563575426,-180,-22,998,1014.341165486248,-10139,4250,16985,20232.450321204302
1735563575456,-180,-22,998,1014.341165486248,-10105,4218,-15819,19239.10886709673
1735563575486,-180,-22,998,1014.341165486248,-10107,4182,-12649,16722.37345594219
1735563575516,-196,-56,1000,1020.5645496488696,-10135,4151,-9513,14506.76376729145
1735563575546,-196,-56,1000,1020.5645496488696,-10161,4129,-6390,12693.567741182933
1735563575576,-196,-56,1000,1020.5645496488696,-10195,4119,-3278,11473.860291985431
1735563575606,-163,-61,995,1010.1064300359641,-10225,4126,-165,11027.31726214495
1735563575636,-163,-61,995,1010.1064300359641,-10260,4148,2924,11446.540088603193
1735563575666,-163,-61,995,1010.1064300359641,-10267,4178,6032,12619.508587896757
1735563575696,-163,-61,995,1010.1064300359641,-10250,4204,9159,14374.400752727051
1735563575726,-215,-39,1000,1023.5946463322285,-10225,4220,12347,16577.316851650026
1735563575756,-215,-39,1000,1023.5946463322285,-10188,4224,15562,19073.89220898556
1735563575786,-215,-39,1000,1023.5946463322285,-10160,4216,-17225,20437.731796850647
1735563575816,-202,-17,986,1006.6225707781442,-10163,4202,-14035,17830.44020768977
1735563575846,-202,-17,986,1006.6225707781442,-10194,4197,-10865,15478.39365050521
1735563575876,-202,-17,986,1006.6225707781442,-10218,4204,-7694,13463.980689231546
1735563575906,-184,-41,970,988.1482682269904,-10229,4222,-4511,11950.181839620684
1735563575936,-184,-41,970,988.1482682269904,-10214,4243,-1326,11139.439887175657
1735563575966,-184,-41,970,988.1482682269904,-10188,4255,1869,11197.925254260274
1735563575996,-184,-41,970,988.1482682269904,-10162,4256,5070,12127.847294553143
1735563576026,-204,-41,1020,1041.0076848899819,-10150,4243,8258,13755.730187816276
1735563576056,-204,-41,1020,1041.0076848899819,-10146,4229,11444,15867.920248098048
1735563576086,-204,-41,1020,1041.0076848899819,-10156,4216,14620,18293.807476848553
1735563576116,-155,-57,1003,1016.5052877383373,-10170,4211,17772,20904.674238074123
1735563576146,-155,-57,1003,1016.5052877383373,-10195,4213,-15113,18710.696486234818
1735563576176,-155,-57,1003,1016.5052877383373,-10210,4223,-11995,16308.214310585938
1735563576206,-164,-36,996,1010.0534639314891,-10213,4234,-8865,14171.10969543317
1735563576237,-164,-36,996,1010.0534639314891,-10215,4244,-5709,12447.90914169926
1735563576267,-164,-36,996,1010.0534639314891,-10207,4254,-2545,11347.087291459426
1735563576296,-164,-36,996,1010.0534639314891,-10195,4259,622,11066.344925041873
1735563576326,-153,-34,974,986.5297765399685,-10175,4252,3774,11655.608306733717
1735563576356,-153,-34,974,986.5297765399685,-10170,4241,6915,13008.92793430727
1735563576386,-153,-34,974,986.5297765399685,-10175,4230,10048,14912.606378497356
1735563576416,-208,-18,928,951.195037833987,-10178,4227,13201,17196.674504101076
1735563576446,-208,-18,928,951.195037833987,-10162,4229,16400,19751.219835746855
1735563576476,-208,-18,928,951.195037833987,-10150,4225,-16402,19745.853463448977
1735563576506,-198,-59,1019,1039.7336197315155,-10137,4222,-13206,17175.054264834216
1735563576536,-198,-59,1019,1039.7336197315155,-10090,4213,-10020,14830.976670469143
1735563576566,-198,-59,1019,1039.7336197315155,-10065,4189,-6847,12873.746735119501
1735563576596,-198,-42,964,985.0197967553748,-10077,4159,-3704,11513.593096857297
1735563576626,-198,-42,964,985.0197967553748,-10139,4140,-601,10968.141228120652
1735563576656,-198,-42,964,985.0197967553748,-10195,4144,2498,11284.97961894482
1735563576686,-198,-42,964,985.0197967553748,-10230,4167,5609,12388.610495128176
1735563576716,-258,-44,981,1015.3132521542304,-10203,4204,8781,14102.509918450687
1735563576746,-258,-44,981,1015.3132521542304,-10119,4223,12030,16277.247617456705
1735563576776,-258,-44,981,1015.3132521542304,-10048,4209,15278,18764.201794907236
1735563576806,-164,-60,900,916.7856892425841,-10021,4175,-17494,20588.615834970547
1735563576836,-164,-60,900,916.7856892425841,-10101,4145,-14401,18072.07865742068
1735563576866,-164,-60,900,916.7856892425841,-10177,4147,-11315,15773.33709143376
1735563576896,-202,-87,1022,1045.3980103290803,-10228,4175,-8224,13772.319521416863
1735563576926,-202,-87,1022,1045.3980103290803,-10195,4209,-5076,12141.642475381987
1735563576956,-202,-87,1022,1045.3980103290803,-10147,4226,-1911,11156.729180185383
1735563576986,-202,-87,1022,1045.3980103290803,-10101,4224,1257,11020.545630775276
1735563577016,-158,-84,933,950.004736830296,-10138,4219,4396,11828.09456336903
1735563577046,-158,-84,933,950.004736830296,-10177,4230,7522,13343.339649428099
1735563577077,-158,-84,933,950.004736830296,-10195,4251,10660,15350.72069969355
1735563577106,-192,-40,1016,1034.7560098883214,-10183,4272,13816,17686.86882972789
1735563577136,-192,-40,1016,1034.7560098883214,-10155,4286,17026,20282.467724613787
1735563577166,-192,-40,1016,1034.7560098883214,-10126,4288,-15758,19215.550577592097
1735563577197,-156,-38,905,919.1327434054343,-10112,4280,-12547,16673.27661259178
1735563577226,-156,-38,905,919.1327434054343,-10150,4273,-9387,14470.549333041921
1735563577257,-156,-38,905,919.1327434054343,-10181,4280,-6227,12678.591798776393
1735563577287,-156,-38,905,919.1327434054343,-10196,4296,-3057,11478.64456283929
1735563577316,-194,-18,1008,1026.6567099084289,-10156,4310,169,11033.992794994929
1735563577346,-194,-18,1008,1026.6567099084289,-10112,4309,3415,11510.093396667118
1735563577376,-194,-18,1008,1026.6567099084289,-10085,4293,6653,12821.836178956584
1735563577406,-189,-23,956,974.774845797736,-10094,4269,9846,14732.851489104205
1735563577436,-189,-23,956,974.774845797736,-10127,4251,13007,17023.782746499088
1735563577467,-189,-23,956,974.774845797736,-10162,4248,16161,19557.343096647866
1735563577496,-199,-19,933,954.1755603661205,-10188,4258,-16682,20005.37507771349
1735563577526,-199,-19,933,954.1755603661205,-10192,4277,-13504,17450.71944075659
1735563577556,-199,-19,933,954.1755603661205,-10180,4295,-10313,15114.145493543458
1735563577586,-199,-19,933,954.1755603661205,-10158,4304,-7113,13126.467498912265
1735563577616,-136,-67,951,963.0088265431424,-10132,4295,-3966,11697.58970899561
1735563577646,-136,-67,951,963.0088265431424,-10127,4276,-854,11025.861462942476
1735563577676,-136,-67,951,963.0088265431424,-10137,4259,2243,11221.804623143285
1735563577707,-174,-36,966,982.2056811075773,-10157,4250,5360,12245.682871934909
1735563577737,-174,-36,966,982.2056811075773,-10174,4253,8511,13929.659220526539
1735563577766,-174,-36,966,982.2056811075773,-10184,4261,11667,16062.03181418839
1735563577796,-179,-34,916,933.9448591860228,-10178,4270,14831,18487.377991483812
1735563577826,-179,-34,916,933.9448591860228,-10156,4271,-17994,21099.047679930958
1735563577856,-179,-34,916,933.9448591860228,-10140,4264,-14822,18457.870408040035
1735563577886,-179,-34,916,933.9448591860228,-10134,4254,-11657,16021.239683619991
1735563577916,-180,-32,995,1011.6565622779303,-10128,4233,-8502,13884.47611543194
1735563577946,-180,-32,995,1011.6565622779303,-10140,4214,-5360,12219.124191201267
1735563577976,-180,-32,995,1011.6565622779303,-10163,4202,-2230,11221.242043552933
1735563578007,-168,-16,909,924.5328550138172,-10196,4201,899,11064.132049103535
1735563578036,-168,-16,909,924.5328550138172,-10232,4214,4028,11776.094598804817
1735563578067,-168,-16,909,924.5328550138172,-10247,4237,7170,13204.623356991293
1735563578097,-184,-61,936,955.8624378015908,-10228,4264,10346,15160.257121830091
1735563578126,-184,-61,936,955.8624378015908,-10130,4273,13586,17477.265947510212
1735563578156,-184,-61,936,955.8624378015908,-10058,4247,16817,20050.233464974914
1735563578186,-184,-61,936,955.8624378015908,-10030,4202,-15979,19328.376677827862
1735563578216,-183,-14,1002,1018.6702115994165,-10113,4154,-12839,16863.22644098691
1735563578246,-183,-14,1002,1018.6702115994165,-10214,4148,-9715,14693.975806431696
1735563578276,-183,-14,1002,1018.6702115994165,-10288,4176,-6581,12907.032230532315
1735563578306,-206,-13,937,959.4654761897376,-10306,4222,-3421,11650.8437891854
1735563578336,-206,-13,937,959.4654761897376,-10271,4264,-217,11123.049312126599
1735563578366,-206,-13,937,959.4654761897376,-10215,4286,3009,11479.115906723828
1735563578396,-180,-20,948,965.1445487594074,-10156,4285,6247,12670.06590353815
1735563578426,-180,-20,948,965.1445487594074,-10125,4265,9460,14498.187817792954
1735563578456,-180,-20,948,965.1445487594074,-10120,4238,12655,16748.85276668226
1735563578486,-180,-20,948,965.1445487594074,-10138,4215,15831,19265.664535644755
1735563578516,-199,0,1007,1026.4745491243316,-10162,4200,-16976,20225.993671510925
1735563578546,-199,0,1007,1026.4745491243316,-10188,4198,-13781,17644.67367224455
1735563578577,-199,0,1007,1026.4745491243316,-10208,4205,-10584,15293.997024976827
1735563578606,-182,-18,1000,1016.5864449224179,-10219,4213,-7399,13301.222913702333
1735563578636,-182,-18,1000,1016.5864449224179,-10224,4220,-4228,11841.222909818056
1735563578666,-182,-18,1000,1016.5864449224179,-10221,4228,-1051,11110.779720613671
1735563578696,-145,-23,964,975.1153777887005,-10217,4233,2124,11261.294508181552
1735563578726,-145,-23,964,975.1153777887005,-10240,4237,5251,12263.06527749078
1735563578756,-145,-23,964,975.1153777887005,-10252,4247,8384,13907.982204475242
1735563578786,-145,-23,964,975.1153777887005,-10253,4260,11525,16003.038274027842
1735563578816,-182,-8,953,970.2561517455068,-10242,4274,14702,18420.489787190785
1735563578846,-182,-8,953,970.2561517455068,-10220,4281,17902,21053.66868267856
1735563578876,-182,-8,953,970.2561517455068,-10198,4280,-14896,18552.854766854616
1735563578906,-181,-48,952,970.2417224588933,-10172,4273,-11706,16085.973672737377
1735563578936,-181,-48,952,970.2417224588933,-10142,4251,-8531,13917.942592208088
1735563578967,-181,-48,952,970.2417224588933,-10138,4224,-5375,12227.503629114162
1735563578996,-192,-7,949,968.253066093777,-10158,4199,-2233,11216.187141805365
1735563579026,-192,-7,949,968.253066093777,-10213,4192,918,11077.949133300803
1735563579056,-192,-7,949,968.253066093777,-10255,4205,4073,11808.318212175687
1735563579086,-192,-7,949,968.253066093777,-10273,4229,7243,13261.976436413994
1735563579116,-163,-22,966,979.9025461748735,-10262,4257,10417,15229.726918103292
1735563579146,-163,-22,966,979.9025461748735,-10236,4275,13595,17546.37700495461
1735563579176,-163,-22,966,979.9025461748735,-10205,4281,16781,20101.516037354
1735563579206,-161,-52,958,972.8252669416024,-10178,4279,-16038,19470.977607711433
1735563579236,-161,-52,958,972.8252669416024,-10151,4265,-12870,16937.234898294348
1735563579267,-161,-52,958,972.8252669416024,-10144,4245,-9715,14673.17232230304
1735563579297,-163,-37,997,1010.9139429249159,-10161,4222,-6581,12821.106270521277
1735563579327,-163,-37,997,1010.9139429249159,-10212,4205,-3471,11576.476579685203
1735563579357,-163,-37,997,1010.9139429249159,-10260,4208,-364,11095.375613290431
1735563579386,-163,-37,997,1010.9139429249159,-10290,4226,2750,11458.868879605874
1735563579416,-210,-6,942,965.1424765287247,-10282,4259,5922,12606.692230716191
1735563579446,-210,-6,942,965.1424765287247,-10245,4285,9135,14379.48104070519
1735563579476,-210,-6,942,965.1424765287247,-10201,4293,12359,16590.211903408588
1735563579506,-148,-33,953,964.9880828279695,-10158,4286,15572,19079.8832281542
1735563579536,-148,-33,953,964.9880828279695,-10147,4263,-17267,20476.42710533261
1735563579566,-148,-33,953,964.9880828279695,-10156,4242,-14124,17906.040209940333
1735563579596,-187,-53,920,940.3073965464698,-10180,4228,-10995,15569.149270271642
1735563579626,-187,-53,920,940.3073965464698,-10165,4220,-7835,13510.10177607852
1735563579656,-187,-53,920,940.3073965464698,-10161,4208,-4682,11953.004183049548
1735563579686,-187,-53,920,940.3073965464698,-10166,4198,-1537,11105.544966367026
1735563579716,-163,-40,928,943.0551415479373,-10203,4195,1586,11145.161730544783
1735563579746,-163,-40,928,943.0551415479373,-10238,4207,4704,12026.766356756083
1735563579776,-163,-40,928,943.0551415479373,-10253,4228,7836,13579.502531388991
1735563579806,-177,-38,981,997.5640330324666,-10245,4249,10984,15609.68551893343
1735563579836,-177,-38,981,997.5640330324666,-10219,4263,14153,17969.656062373593
1735563579866,-177,-38,981,997.5640330324666,-10190,4265,17327,20548.753100857484
1735563579896,-170,-20,955,970.2190474320735,-10169,4259,-15498,19019.349252800424
1735563579926,-170,-20,955,970.2190474320735,-10175,4254,-12334,16545.53405000878
1735563579956,-170,-20,955,970.2190474320735,-10182,4252,-9172,14348.456781131552
1735563579986,-170,-20,955,970.2190474320735,-10189,4253,-6009,12570.274897550968
1735563580017,-177,-28,954,970.6848098121243,-10182,4254,-2845,11395.773997407987
1735563580047,-177,-28,954,970.6848098121243,-10174,4251,319,11031.003490163532
1735563580076,-177,-28,954,970.6848098121243,-10171,4246,3482,11558.63664105763
1735563580106,-170,-38,924,940.2765550623923,-10174,4243,6636,12866.616532717528
1735563580136,-170,-38,924,940.2765550623923,-10178,4241,9781,14739.257986750894
1735563580166,-170,-38,924,940.2765550623923,-10182,4241,12926,16992.371258891442
1735563580196,-206,-16,1008,1028.9586969358877,-10184,4243,16081,19501.678543140843
1735563580226,-206,-16,1008,1028.9586969358877,-10169,4250,-16700,20009.024488964973
1735563580256,-206,-16,1008,1028.9586969358877,-10153,4250,-13479,17401.992701986746
1735563580286,-166,-43,1004,1018.5386590601262,-10141,4247,-10258,15036.736813551004
1735563580316,-166,-43,1004,1018.5386590601262,-10142,4237,-7084,13076.520523442006
1735563580346,-166,-43,1004,1018.5386590601262,-10151,4229,-3915,11672.808873617352
1735563580376,-166,-43,1004,1018.5386590601262,-10163,4226,-751,11032.209479519504
1735563580407,-207,8,971,992.8514491100872,-10171,4222,2437,11278.89595660852
1735563580436,-207,8,971,992.8514491100872,-10182,4229,5658,12392.357685283298
1735563580466,-207,8,971,992.8514491100872,-10184,4238,8886,14164.585980536105
1735563580496,-197,-25,945,965.6391665627488,-10180,4247,12109,16379.782965595117
1735563580526,-197,-25,945,965.6391665627488,-10154,4246,15302,18848.963791147777
1735563580556,-197,-25,945,965.6391665627488,-10138,4236,-17509,20670.941463803723
1735563580587,-173,-51,1028,1043.7020647675274,-10138,4223,-14334,18057.583697715483
1735563580617,-173,-51,1028,1043.7020647675274,-10150,4210,-11204,15693.19011546091
1735563580647,-173,-51,1028,1043.7020647675274,-10168,4203,-8081,13651.226831314467
1735563580677,-173,-51,1028,1043.7020647675274,-10186,4204,-4959,12083.869123753368
1735563580706,-224,-22,978,1003.5656430946608,-10203,4214,-1785,11182.36245164679
1735563580766,-224,-22,978,1003.5656430946608,-10201,4229,1417,11133.406082596646
1735563580767,-224,-22,978,1003.5656430946608,-10188,4241,4629,11966.999039023944
1735563580797,-201,-26,949,970.4009480621914,-10163,4248,7852,13527.23094354495
1735563580826,-201,-26,949,970.4009480621914,-10144,4247,11060,15596.837660243822
1735563580857,-201,-26,949,970.4009480621914,-10131,4240,14264,18002.12368027728
1735563580886,-192,-39,963,982.727836178461,-10131,4232,17459,20624.346438129865
1735563580916,-192,-39,963,982.727836178461,-10138,4226,-15364,18886.254684293548
1735563580946,-192,-39,963,982.727836178461,-10148,4224,-12191,16414.766553320216
1735563580976,-192,-39,963,982.727836178461,-10156,4225,-9017,14223.26439323969
1735563581006,-197,-13,970,989.8878724380858,-10183,4226,-5869,12489.904963609612
1735563581036,-197,-13,970,989.8878724380858,-10205,4238,-2713,11378.18254379846
1735563581066,-197,-13,970,989.8878724380858,-10211,4255,453,11071.348382198077
1735563581096,-203,-22,963,984.40946765053,-10199,4272,3634,11639.396075398414
1735563581127,-203,-22,963,984.40946765053,-10170,4282,6831,12977.942248291907
1735563581157,-203,-22,963,984.40946765053,-10143,4280,10030,14892.942926097581
1735563581187,-180,-36,987,1003.9247979804065,-10120,4270,13230,17195.354023689073
1735563581217,-180,-36,987,1003.9247979804065,-10108,4250,16404,19731.32990956261
1735563581246,-180,-36,987,1003.9247979804065,-10116,4231,-16437,19758.79009453767
1735563581276,-180,-36,987,1003.9247979804065,-10136,4217,-13289,17237.143208780275
1735563581306,-171,-28,950,965.673340213967,-10172,4206,-10169,14985.61246662945
1735563581336,-171,-28,950,965.673340213967,-10208,4210,-7054,13102.911126921375
1735563581366,-171,-28,950,965.673340213967,-10229,4225,-3932,11744.943167167732
1735563581396,-194,-55,954,975.077945602299,-10222,4249,-793,11098.294193253303
1735563581426,-194,-55,954,975.077945602299,-10176,4263,2374,11285.38971413925
1735563581456,-194,-55,954,975.077945602299,-10134,4259,5544,12311.49759371296
1735563581486,-141,-49,979,990.3145964793208,-10103,4243,8717,14002.133658839284
1735563581516,-141,-49,979,990.3145964793208,-10123,4226,11841,16141.359484256585
1735563581546,-141,-49,979,990.3145964793208,-10150,4219,14957,18561.635434411484
1735563581576,-141,-49,979,990.3145964793208,-10173,4222,-17926,21039.408000226624
1735563581606,-177,-46,957,974.3171968101559,-10171,4229,-14769,18424.36004316025
1735563581636,-177,-46,957,974.3171968101559,-10156,4234,-11593,15983.389534138245
1735563581666,-177,-46,957,974.3171968101559,-10142,4232,-8416,13841.930645686678
1735563581696,-173,-47,977,993.3111295057556,-10139,4224,-5266,12180.814956315526
1735563581726,-173,-47,977,993.3111295057556,-10147,4216,-2135,11193.502132934089
1735563581757,-173,-47,977,993.3111295057556,-10158,4211,991,11040.813647553336
1735563581787,-151,9,928,940.2478396678187,-10167,4209,4122,11750.508669840638
1735563581816,-151,9,928,940.2478396678187,-10229,4216,7240,13222.129064564451
1735563581846,-151,9,928,940.2478396678187,-10266,4242,10372,15197.490055926999
1735563581876,-151,9,928,940.2478396678187,-10271,4276,13526,17513.717281034315
1735563581906,-210,-45,990,1013.0276402941827,-10162,4307,16760,20067.737615386544
1735563581936,-210,-45,990,1013.0276402941827,-10040,4287,-15980,19353.045470932993
1735563581966,-210,-45,990,1013.0276402941827,-9975,4231,-12753,16734.42544576897
1735563581996,-166,-62,952,968.3511759687185,-9995,4158,-9608,14474.20647220427
1735563582027,-166,-62,952,968.3511759687185,-10082,4105,-6547,12702.793314857958
1735563582057,-166,-62,952,968.3511759687185,-10180,4090,-3506,11517.488267847291
1735563582086,-241,-20,957,987.0815569141184,-10259,4111,-450,11061.188995763521
1735563582116,-241,-20,957,987.0815569141184,-10270,4167,2737,11416.127101604992
1735563582146,-241,-20,957,987.0815569141184,-10235,4216,5964,12573.749520330044
1735563582177,-241,-20,957,987.0815569141184,-10172,4244,9217,14367.818519176806
1735563582208,-186,-42,941,960.1255126284271,-10141,4247,12414,16582.65015008156
1735563582237,-186,-42,941,960.1255126284271,-10126,4239,15587,19064.61554818245
1735563582266,-186,-42,941,960.1255126284271,-10122,4228,-17247,20439.908928368543
1735563582297,-204,-21,936,958.2030056308528,-10129,4210,-14098,17862.65223867945
1735563582327,-204,-21,936,958.2030056308528,-10150,4195,-10956,15513.041642437502
1735563582357,-204,-21,936,958.2030056308528,-10175,4191,-7819,13499.328390701517
1735563582386,-205,-36,935,957.8862145369877,-10194,4196,-4684,11977.642005002486
1735563582417,-205,-36,935,957.8862145369877,-10191,4204,-1549,11132.362642314523
1735563582447,-205,-36,935,957.8862145369877,-10183,4210,1589,11132.94704918693
1735563582476,-205,-36,935,957.8862145369877,-10173,4211,4731,11983.522478803969
1735563582506,-190,-60,992,1011.8122355457064,-10133,4212,7917,13531.353295217741
1735563582536,-190,-60,992,1011.8122355457064,-10104,4197,11091,15579.342283934839
1735563582566,-190,-60,992,1011.8122355457064,-10096,4175,14252,17957.709904105257
1735563582596,-256,-29,970,1003.6319046343634,-10105,4158,17432,20573.63878850798
1735563582626,-256,-29,970,1003.6319046343634,-10108,4151,-15340,18833.960417288767
1735563582655,-256,-29,970,1003.6319046343634,-10116,4146,-12117,16320.0631432602
1735563582686,-139,-31,932,942.8181160754178,-10132,4144,-8909,14113.83863447503
1735563582716,-139,-31,932,942.8181160754178,-10243,4150,-5862,12510.179575050071
1735563582746,-139,-31,932,942.8181160754178,-10315,4191,-2796,11479.604609915796
1735563582776,-139,-31,932,942.8181160754178,-10333,4249,304,11176.641087553988
1735563582806,-207,-38,929,952.5408127739199,-10256,4306,3504,11662.126221234274
1735563582836,-207,-38,929,952.5408127739199,-10142,4322,6758,12930.986505290306
1735563582866,-207,-38,929,952.5408127739199,-10052,4297,10005,14819.140933266004
1735563582896,-189,-19,945,963.9019659695689,-10025,4245,13221,17126.455879720124
1735563582926,-189,-19,945,963.9019659695689,-10066,4197,16389,19685.997206136144
1735563582956,-189,-19,945,963.9019659695689,-10129,4172,-16465,19776.20919185474
1735563582986,-178,-47,971,988.2985378922707,-10192,4173,-13335,17294.884156882927
1735563583016,-178,-47,971,988.2985378922707,-10223,4190,-10223,15052.426980390903
1735563583046,-178,-47,971,988.2985378922707,-10232,4214,-7096,13145.525322329268
1735563583076,-178,-47,971,988.2985378922707,-10220,4236,-3953,11748.11921117589
1735563583106,-205,-7,921,943.5650481021434,-10195,4247,-768,11070.901408647807
1735563583136,-205,-7,921,943.5650481021434,-10171,4251,2431,11288.489845856266
1735563583166,-205,-7,921,943.5650481021434,-10152,4246,5630,12360.765348472562
1735563583196,-217,-46,981,1005.7663744627775,-10122,4240,8839,14091.146333779945
1735563583226,-217,-46,981,1005.7663744627775,-10078,4221,12053,16268.304582838373
1735563583256,-217,-46,981,1005.7663744627775,-10064,4190,15248,18744.111075215063
1735563583286,-176,-56,1000,1016.9129756277083,-10080,4161,-17573,20681.650079236908
1735563583316,-176,-56,1000,1016.9129756277083,-10139,4142,-14447,18129.293808640203
1735563583347,-176,-56,1000,1016.9129756277083,-10192,4146,-11325,15789.927327255184
1735563583376,-176,-56,1000,1016.9129756277083,-10226,4167,-8193,13749.916872475993
1735563583406,-191,-54,982,1001.8587724824292,-10236,4201,-5034,12155.873189532704
1735563583436,-191,-54,982,1001.8587724824292,-10214,4232,-1846,11209.073824362118
1735563583467,-191,-54,982,1001.8587724824292,-10175,4249,1358,11109.851034104822
1735563583497,-165,-58,1005,1020.1048965670149,-10149,4250,4541,11903.16688952986
1735563583526,-165,-58,1005,1020.1048965670149,-10145,4243,7691,13419.223338181684
1735563583556,-165,-58,1005,1020.1048965670149,-10148,4236,10837,15439.111664859478
1735563583586,-201,-13,896,918.3604956660538,-10165,4229,13973,17789.221315167226
1735563583616,-201,-13,896,918.3604956660538,-10205,4238,17140,20393.1917315559
1735563583646,-201,-13,896,918.3604956660538,-10226,4258,-15681,19198.838532577953
1735563583676,-201,-13,896,918.3604956660538,-10223,4282,-12486,16695.671564809843
1735563583737,-186,-48,981,999.6304317096394,-10160,4293,-9273,14409.856973613583
1735563583738,-186,-48,981,999.6304317096394,-10106,4278,-6070,12541.029463325569
1735563583767,-186,-48,981,999.6304317096394,-10082,4247,-2885,11314.015997867424
1735563583796,-179,-37,964,981.175825221963,-10103,4211,264,10948.644938986741
1735563583826,-179,-37,964,981.175825221963,-10157,4190,3383,11496.322803401095
1735563583856,-179,-37,964,981.175825221963,-10210,4191,6498,12807.5206421852
1735563583886,-203,-24,950,971.7432788550688,-10244,4208,9615,14666.118266262549
1735563583916,-203,-24,950,971.7432788550688,-10245,4231,12763,16904.305812425424
1735563583946,-203,-24,950,971.7432788550688,-10228,4250,15927,19399.582804792477
1735563583976,-203,-24,950,971.7432788550688,-10201,4260,-16898,20192.830534622924
1735563584006,-195,-52,1011,1030.9461673627775,-10134,4258,-13686,17553.777827009206
1735563584036,-195,-52,1011,1030.9461673627775,-10087,4231,-10489,15154.802902050558
1735563584066,-195,-52,1011,1030.9461673627775,-10077,4194,-7317,13140.549988489827
1735563584096,-187,-37,965,983.6478028237545,-10115,4162,-4167,11704.672485806683
1735563584127,-187,-37,965,983.6478028237545,-10178,4153,-1032,11041.019744570698
1735563584157,-187,-37,965,983.6478028237545,-10228,4167,2105,11243.082228641753
1735563584187,-177,-61,1022,1039.0062559965652,-10254,4197,5257,12263.579167600297
1735563584216,-177,-61,1022,1039.0062559965652,-10241,4230,8417,13914.627914536559
1735563584246,-177,-61,1022,1039.0062559965652,-10207,4252,11597,16023.506545073085
1735563584276,-180,1,981,997.3775614079153,-10172,4257,14784,18443.380628290466
1735563584306,-180,1,981,997.3775614079153,-10196,4262,17972,21097.768697186915
1735563584337,-180,1,981,997.3775614079153,-10208,4274,-14832,18505.636006363035
1735563584367,-180,1,981,997.3775614079153,-10207,4288,-11627,16054.809933474766
1735563584396,-177,-48,960,977.3602201849633,-10169,4295,-8448,13900.514019272812
1735563584426,-177,-48,960,977.3602201849633,-10130,4283,-5272,12196.514789069868
1735563584456,-177,-48,960,977.3602201849633,-10112,4260,-2111,11173.918963371803
1735563584486,-151,-20,973,984.8502424226741,-10122,4232,1025,11018.86260010533
1735563584516,-151,-20,973,984.8502424226741,-10199,4211,4102,11771.938073231611
1735563584546,-151,-20,973,984.8502424226741,-10267,4219,7176,13217.648277965336
1735563584576,-189,-6,963,981.3898308011959,-10303,4251,10276,15159.781858588864
1735563584607,-189,-6,963,981.3898308011959,-10275,4295,13471,17478.286271828827
1735563584637,-189,-6,963,981.3898308011959,-10220,4321,16692,20043.510296352782
1735563584667,-189,-6,963,981.3898308011959,-10163,4325,-16076,19504.614069496478
1735563584697,-181,-53,977,995.0371852348031,-10077,4306,-12827,16870.669636976476
1735563584726,-181,-53,977,995.0371852348031,-10028,4258,-9609,14526.673018967556
1735563584757,-181,-53,977,995.0371852348031,-10032,4203,-6430,12635.312936370037
1735563584786,-197,-26,979,998.9624617571974,-10100,4161,-3296,11409.975328632398
1735563584816,-197,-26,979,998.9624617571974,-10190,4155,-172,11005.894284427777
1735563584846,-197,-26,979,998.9624617571974,-10255,4181,2959,11463.04789312162
1735563584877,-166,-13,954,968.4219121849733,-10278,4221,6114,12682.078733393828
1735563584906,-166,-13,954,968.4219121849733,-10297,4262,9254,14485.488220974812
1735563584936,-166,-13,954,968.4219121849733,-10277,4301,12424,16687.453550497154
1735563584966,-166,-13,954,968.4219121849733,-10234,4326,15617,19166.108655645257
1735563584996,-194,13,930,950.1078886105514,-10185,4328,-17172,20428.984140186705
1735563585026,-194,13,930,950.1078886105514,-10150,4315,-13956,17787.963936325035
1735563585056,-194,13,930,950.1078886105514,-10137,4293,-10755,15390.212571631362
1735563585086,-168,-22,907,922.6900888163913,-10123,4273,-7554,13334.038173036704
1735563585116,-168,-22,907,922.6900888163913,-10116,4248,-4377,11812.581809240519
1735563585146,-168,-22,907,922.6900888163913,-10130,4226,-1216,11043.307113360563
1735563585176,-164,-53,1039,1053.1979870850494,-10152,4214,1938,11161.39525328263
1735563585207,-164,-53,1039,1053.1979870850494,-10147,4206,5098,12109.568489421908
1735563585237,-164,-53,1039,1053.1979870850494,-10149,4198,8252,13737.572893346189
1735563585266,-164,-53,1039,1053.1979870850494,-10157,4191,11401,15833.885530721764
1735563585297,-228,-20,1010,1035.6080339587947,-10172,4194,14580,18265.69516881304
1735563585327,-228,-20,1010,1035.6080339587947,-10173,4202,17789,20918.777545545054
1735563585357,-228,-20,1010,1035.6080339587947,-10166,4209,-14997,18600.35607186056
1735563585386,-195,-16,971,990.5160271292939,-10164,4211,-11793,16128.05834562859
1735563585416,-195,-16,971,990.5160271292939,-10177,4214,-8614,13983.208537385117
1735563585446,-195,-16,971,990.5160271292939,-10183,4220,-5432,12288.552111619985
1735563585476,-203,-10,959,980.30097419109,-10189,4228,-2251,11258.716889592704
1735563585506,-203,-10,959,980.30097419109,-10196,4239,931,11081.258863504634
1735563585536,-203,-10,959,980.30097419109,-10192,4250,4122,11786.867607638596
1735563585567,-203,-10,959,980.30097419109,-10181,4258,7320,13242.572446469756
1735563585597,-190,-42,977,996.1892390504928,-10163,4255,10491,15213.568779218109
1735563585627,-190,-42,977,996.1892390504928,-10150,4244,13651,17532.365413714146
1735563585656,-190,-42,977,996.1892390504928,-10150,4231,16803,20081.45089379749
1735563585686,-239,21,927,957.5442548519625,-10161,4221,-16022,19436.23538651454
