Timestamp,Acc_X,Acc_Y,Acc_Z,Acc_Betrag,Ori_X,Ori_Y,Ori_Z,Ori_Betrag
1735561141160,496,-714,629,1073.0577803641331,456,-7827,-15498,17368.300694080583
1735561141190,555,-673,605,1061.592671414041,-230,-7706,-17899,19488.702804445453
1735561141220,555,-673,605,1061.592671414041,-1027,-7605,15881,17637.93964724905
1735561141250,555,-673,605,1061.592671414041,-1750,-7580,13699,15753.777356558014
1735561141280,490,-690,560,1014.7906187977892,-2427,-7623,11585,14078.802612438318
1735561141310,490,-690,560,1014.7906187977892,-3102,-7779,9633,12764.401043527268
1735561141340,490,-690,560,1014.7906187977892,-3409,-7941,7400,11377.203610729659
1735561141370,490,-690,560,1014.7906187977892,-3271,-8082,4751,9929.25807903088
1735561141400,522,-690,572,1037.1923640289683,-2161,-8111,1067,8461.485153328582
1735561141430,522,-690,572,1037.1923640289683,-1340,-8037,-2485,8518.461950375784
1735561141459,522,-690,572,1037.1923640289683,-1029,-7934,-5625,9779.970449853108
1735561141491,446,-656,490,932.3904761418362,-1304,-7864,-8247,11469.782953482598
1735561141521,446,-656,490,932.3904761418362,-1716,-7885,-10716,13414.564361171033
1735561141550,446,-656,490,932.3904761418362,-1993,-7926,-13265,15580.556793645084
1735561141580,505,-606,524,947.0147834115368,-2067,-8002,-15990,17999.572022689874
1735561141610,505,-606,524,947.0147834115368,-1767,-8057,16829,18741.738953469605
1735561141640,505,-606,524,947.0147834115368,-1359,-8073,13491,15780.598562792224
1735561141670,505,-606,524,947.0147834115368,-1014,-8057,10158,13004.93786990157
1735561141700,500,-669,539,994.0231385636855,-812,-8015,6983,10661.231542368827
1735561141730,500,-669,539,994.0231385636855,-782,-7970,3978,8941.862669488946
1735561141760,500,-669,539,994.0231385636855,-874,-7936,1096,8058.857735436208
1735561141790,519,-617,592,1000.2569669839846,-1096,-7926,-1639,8167.5585703440165
1735561141820,519,-617,592,1000.2569669839846,-1343,-7934,-4342,9143.575285412157
1735561141850,519,-617,592,1000.2569669839846,-1511,-7955,-7092,10763.903102499577
1735561141880,526,-674,580,1033.1272912860254,-1492,-7973,-10038,12905.66685607528
1735561141910,526,-674,580,1033.1272912860254,-1217,-7966,-13262,15518.340407401818
1735561141940,526,-674,580,1033.1272912860254,-1053,-7940,-16411,18261.25214764858
1735561141970,526,-674,580,1033.1272912860254,-1005,-7910,16536,18358.034235723608
1735561142000,465,-690,534,988.676387904556,-1105,-7912,13684,15845.271376659979
1735561142030,465,-690,534,988.676387904556,-1145,-7933,10792,13442.870898732905
1735561142060,465,-690,534,988.676387904556,-1123,-7951,7841,11223.226407767064
1735561142089,576,-637,553,1021.4470128205378,-1153,-7900,4966,9402.157465177872
1735561142120,576,-637,553,1021.4470128205378,-1435,-7795,2337,8263.341878441192
1735561142150,576,-637,553,1021.4470128205378,-1830,-7736,-134,7950.632176122852
1735561142180,413,-666,528,944.9386223453881,-2258,-7732,-2531,8443.242801199074
1735561142209,413,-666,528,944.9386223453881,-2682,-7935,-4851,9679.336237573318
1735561142240,413,-666,528,944.9386223453881,-2548,-8109,-7685,11458.944541274297
1735561142270,413,-666,528,944.9386223453881,-1803,-8216,-11177,13988.523653338118
1735561142300,536,-782,561,1101.6083696123592,-565,-8215,-15228,17311.77154424122
1735561142330,536,-782,561,1101.6083696123592,97,-8100,17176,18990.37611528534
1735561142360,536,-782,561,1101.6083696123592,167,-7986,14105,16209.722699663927
1735561142390,450,-748,559,1036.5736828609918,-164,-7888,11476,13926.450229688828
1735561142420,450,-748,559,1036.5736828609918,-599,-7865,9002,11968.835782982404
1735561142450,450,-748,559,1036.5736828609918,-971,-7875,6525,10272.978681959776
1735561142480,538,-727,548,1057.486170122333,-1231,-7903,3979,8933.37623745916
1735561142510,538,-727,548,1057.486170122333,-1422,-7863,1345,8102.954893123866
1735561142539,538,-727,548,1057.486170122333,-1643,-7847,-1228,8110.662241765465
1735561142570,538,-727,548,1057.486170122333,-1841,-7850,-3793,8910.590889497733
1735561142600,425,-689,525,964.8683848069642,-2305,-7937,-6034,10233.18865261459
1735561142630,425,-689,525,964.8683848069642,-2494,-8063,-8502,11979.816734825286
1735561142660,425,-689,525,964.8683848069642,-2288,-8165,-11352,14169.335658385682
1735561142690,484,-660,567,995.6630956302438,-1379,-8205,-15015,17166.068012215263
1735561142720,484,-660,567,995.6630956302438,-497,-8139,17154,18993.42112416823
1735561142750,484,-660,567,995.6630956302438,-171,-8044,13774,15951.747647201544
1735561142780,416,-691,543,972.3096214683881,-191,-7970,10684,13330.612776613085
1735561142810,416,-691,543,972.3096214683881,-136,-8001,7502,10968.796697906293
1735561142840,416,-691,543,972.3096214683881,-15,-8016,4243,9069.703964297843
1735561142870,416,-691,543,972.3096214683881,115,-8018,956,8075.610503237511
1735561142900,484,-631,608,1001.0399592423871,-208,-8029,-1822,8235.762806200772
1735561142930,484,-631,608,1001.0399592423871,-499,-8040,-4607,9279.819502554994
1735561142960,484,-631,608,1001.0399592423871,-690,-8065,-7455,11004.424110329444
1735561142990,477,-655,607,1012.4243181591403,-725,-8094,-10405,13202.366681773387
1735561143020,477,-655,607,1012.4243181591403,-649,-8111,-13439,15710.386468830104
1735561143050,477,-655,607,1012.4243181591403,-537,-8118,-16520,18414.686883028993
1735561143080,516,-782,634,1131.254171263028,-508,-8094,16472,18360.220151185553
1735561143110,516,-782,634,1131.254171263028,-665,-8004,13823,15986.91871499946
1735561143140,516,-782,634,1131.254171263028,-994,-7939,11377,13908.698213707852
1735561143170,372,-613,455,849.2219968889171,-1293,-7840,8969,11982.504329229345
1735561143200,372,-613,455,849.2219968889171,-1846,-7781,6705,10435.933211744888
1735561143230,372,-613,455,849.2219968889171,-2348,-7776,4469,9270.989213670782
1735561143260,372,-613,455,849.2219968889171,-2746,-7803,2198,8559.119639308707
1735561143290,410,-719,948,1258.4772544627099,-4477,-7934,1469,9227.667419234398
1735561143320,410,-719,948,1258.4772544627099,-6666,-8055,1630,10581.84676698732
1735561143350,410,-719,948,1258.4772544627099,-8667,-8146,1919,12048.102174201545
1735561143380,307,-1000,353,1104.0190215752625,-10036,-7985,1976,12976.366864419331
1735561143410,307,-1000,353,1104.0190215752625,-16112,-6570,4978,18098.119460319627
1735561143440,307,-1000,353,1104.0190215752625,17247,-5084,4312,18490.522139734185
1735561143470,555,-1005,622,1305.7312127693049,15909,-4216,2936,16717.985315222646
1735561143500,555,-1005,622,1305.7312127693049,16279,-3976,1544,16828.498239593453
1735561143530,555,-1005,622,1305.7312127693049,16552,-3679,224,16957.41492681004
1735561143561,555,-1005,622,1305.7312127693049,16725,-3344,-1025,17086.795662148008
1735561143591,317,-897,452,1053.2815388109677,12515,-2044,1142,12732.137487476328
1735561143620,317,-897,452,1053.2815388109677,9228,115,1865,9415.276628968477
1735561143650,317,-897,452,1053.2815388109677,6319,2255,1041,6789.585186150918
1735561143680,337,-672,456,879.2547981103089,2528,3439,-1058,4397.370691674742
1735561143710,337,-672,456,879.2547981103089,-2113,3121,-3206,4948.115398815998
1735561143740,337,-672,456,879.2547981103089,-5516,1751,-4549,7361.090815904936
1735561143770,472,-732,219,898.091866125064,-8373,636,-5081,9814.692353813236
1735561143800,472,-732,219,898.091866125064,-11416,600,-5405,12645.120837698625
1735561143830,472,-732,219,898.091866125064,-14026,403,-5684,15139.317719104782
1735561143860,472,-732,219,898.091866125064,14991,130,-5729,16048.9383449498
1735561143890,697,-1011,364,1280.7911617433967,10996,-1701,-6021,12651.39747221626
1735561143920,697,-1011,364,1280.7911617433967,7097,-3335,-5246,9434.519065643994
1735561143950,697,-1011,364,1280.7911617433967,2310,-4074,-3277,5715.969296628526
1735561143980,515,-952,62,1084.146207852059,-2410,-3443,-3072,5205.721179625355
1735561144010,515,-952,62,1084.146207852059,-5722,-2708,-4682,7873.733040940619
1735561144040,515,-952,62,1084.146207852059,-8452,-2811,-6597,11084.15238076417
1735561144070,649,-609,41,890.9337798063333,-10802,-3273,-8515,14138.633526617768
1735561144100,649,-609,41,890.9337798063333,-13380,-3864,-10518,17452.312740722933
1735561144130,649,-609,41,890.9337798063333,-16846,-4782,-12541,21539.078926453658
1735561144160,649,-609,41,890.9337798063333,11262,-6910,-12155,17953.405498679072
1735561144190,602,-851,161,1054.7634805964794,1272,-6701,-5040,8480.742007631172
1735561144221,602,-851,161,1054.7634805964794,-1008,-4723,-4784,6797.753231767096
1735561144250,602,-851,161,1054.7634805964794,-2414,-3070,-5380,6648.059566520144
1735561144280,405,-608,-135,742.9091465313911,-4258,-2758,-6433,8192.717314786347
1735561144310,405,-608,-135,742.9091465313911,-10868,-4240,-6336,13275.387753282388
1735561144340,405,-608,-135,742.9091465313911,-17707,-4855,-4818,18982.149456792293
1735561144370,547,-854,187,1031.2584545107982,14012,-4234,-4467,15304.149404654934
1735561144400,547,-854,187,1031.2584545107982,10553,-4842,-3705,12187.608379005293
1735561144430,547,-854,187,1031.2584545107982,7192,-5024,-2471,9114.344792688062
1735561144460,547,-854,187,1031.2584545107982,4369,-4744,-1324,6583.819028497062
1735561144490,668,-1072,226,1283.1539268536726,1199,-6054,-368,6182.551334198528
1735561144521,668,-1072,226,1283.1539268536726,-4226,-7074,2803,8703.870460892671
1735561144550,668,-1072,226,1283.1539268536726,-10478,-6487,6775,14063.08209461923
1735561144580,317,-889,268,981.1391338643057,-15283,-7472,8215,18891.455687691196
1735561144610,317,-889,268,981.1391338643057,4199,-6749,-15029,17001.51296208664
1735561144640,317,-889,268,981.1391338643057,2576,-4072,-16317,17013.56661608612
1735561144670,271,-1099,116,1137.847968755053,116,-2105,-17922,18045.569123748908
1735561144700,271,-1099,116,1137.847968755053,-4756,-2063,16368,17169.360180274627
1735561144730,271,-1099,116,1137.847968755053,-9332,-3375,14678,17717.802713654986
1735561144760,271,-1099,116,1137.847968755053,-14140,-5417,13967,20600.014029121437
1735561144790,583,-837,-222,1043.9070839878423,17122,-4731,10187,20477.309735412022
1735561144821,583,-837,-222,1043.9070839878423,13831,-5664,5299,15857.391273472444
1735561144850,583,-837,-222,1043.9070839878423,14336,-6565,-2757,16006.910070341497
1735561144880,294,-1165,81,1204.2516348338497,6350,-7736,-104,10008.946597919283
1735561144910,294,-1165,81,1204.2516348338497,-368,-5574,2453,6100.992460247759
1735561144940,294,-1165,81,1204.2516348338497,-3462,-3623,723,5063.032885534124
1735561144970,712,-1100,-137,1317.464610530393,-7621,-1991,-579,7898.0353886267185
1735561145000,712,-1100,-137,1317.464610530393,-13738,391,-1706,13849.04188021684
1735561145030,712,-1100,-137,1317.464610530393,15949,195,-4651,16614.464391005808
1735561145060,712,-1100,-137,1317.464610530393,10413,-2690,-6447,12539.1577867096
1735561145090,393,-796,143,899.1740654622997,6647,-729,-4258,7927.459492170237
1735561145150,393,-796,143,899.1740654622997,3889,1999,-3535,5622.859326001319
1735561145151,393,-796,143,899.1740654622997,926,4381,-4445,6309.410590538549
1735561145180,91,-1183,202,1203.5671979578042,-3609,5363,-7838,10159.768402872183
1735561145210,91,-1183,202,1203.5671979578042,-8573,4291,-11425,14914.410313518936
1735561145240,91,-1183,202,1203.5671979578042,-11535,1983,-12773,17324.492575541713
1735561145270,402,-940,41,1023.1739832501606,-15174,342,-13228,20133.23679888557
1735561145301,402,-940,41,1023.1739832501606,13102,-594,-13955,19150.907680838525
1735561145330,402,-940,41,1023.1739832501606,6145,-1724,-13253,14709.697821505375
1735561145360,402,-940,41,1023.1739832501606,-179,-1505,-11936,12031.83951023284
1735561145390,440,-506,-59,673.1396586147632,-5964,-1019,-10921,12485.02695231372
1735561145420,440,-506,-59,673.1396586147632,-13532,-256,-10789,17308.46847644239
1735561145450,440,-506,-59,673.1396586147632,15862,-107,-11691,19705.176325016735
1735561145480,41,-926,261,962.9527506580995,12453,146,-11174,16731.9096638728
1735561145510,41,-926,261,962.9527506580995,10164,1144,-10037,14330.282655970188
1735561145540,41,-926,261,962.9527506580995,8258,2464,-9428,12773.137594185699
1735561145600,368,-332,324,592.1351197150866,5419,2883,-9435,11255.952869481996
1735561145601,368,-332,324,592.1351197150866,866,2087,-8388,8687.005755725042
1735561145630,368,-332,324,592.1351197150866,-2850,2252,-6756,7670.56321269827
1735561145660,368,-332,324,592.1351197150866,-5870,3187,-5140,8428.135558947779
1735561145690,101,-843,-235,880.951190475386,-2120,4393,-959,4971.169882432102
1735561145750,101,-843,-235,880.951190475386,1572,3403,3280,4980.963059489601
1735561145751,101,-843,-235,880.951190475386,3001,933,5954,6732.50369476319
1735561145780,-802,668,-813,1323.025698918959,2453,1015,7523,7977.653978457576
1735561145810,-802,668,-813,1323.025698918959,78,3634,8540,9281.359814165164
1735561145840,-802,668,-813,1323.025698918959,-2753,6748,8111,10904.257608842521
1735561145870,-444,-1422,-775,1679.2394111620893,-14251,8235,-1177,16501.259194376653
1735561145900,-444,-1422,-775,1679.2394111620893,522,7284,16603,18138.047000710965
1735561145930,-444,-1422,-775,1679.2394111620893,-769,5216,-17428,18208.053190827402
1735561145960,-444,-1422,-775,1679.2394111620893,-2444,3544,-15401,15991.368703147333
1735561145990,-364,-1092,-906,1464.8535763003754,-2815,3465,-13997,14691.713957193695
1735561146020,-364,-1092,-906,1464.8535763003754,-3195,3452,-12593,13442.766753908958
1735561146050,-364,-1092,-906,1464.8535763003754,-3562,3515,-11184,12252.547694255265
1735561146110,-2000,1999,-2000,3463.5243611096485,-8464,2046,-15700,17953.144905559027
1735561146141,-2000,1999,-2000,3463.5243611096485,-11099,-1521,17846,21070.855654196865
1735561146200,-1098,-1626,-836,2132.6921953249607,17632,-4741,-16084,24332.27406141892
1735561146230,-1098,-1626,-836,2132.6921953249607,8261,-3688,-11798,14867.355817360396
1735561146290,-94,-1086,-111,1095.697494749349,894,531,-13422,13462.21679367852
1735561146320,-94,-1086,-111,1095.697494749349,-6322,-735,17365,18494.624462259297
1735561146350,-94,-1086,-111,1095.697494749349,-10262,-5634,13247,17678.620110178283
1735561146380,-74,-1146,63,1150.1134726625892,2269,-6962,-5669,9260.4193209595
1735561146410,-74,-1146,63,1150.1134726625892,286,-5123,-10321,11526.055960301424
1735561146440,-74,-1146,63,1150.1134726625892,-2432,-4414,-14822,15655.341069424197
1735561146470,78,-2000,132,2005.86839049824,-5316,-4565,-17660,18999.33369884323
1735561146500,78,-2000,132,2005.86839049824,-8669,-3208,-17199,19525.583883715233
1735561146530,78,-2000,132,2005.86839049824,-11519,-1908,-17707,21210.03710510663
1735561146560,78,-2000,132,2005.86839049824,-14291,-1017,17166,22359.305132315716
1735561146591,238,835,-111,875.3227976009765,15061,657,-17640,23204.201559200435
1735561146620,238,835,-111,875.3227976009765,9204,2604,17720,20136.85258425457
1735561146651,238,835,-111,875.3227976009765,1845,3246,15900,16332.499533139438
1735561146680,285,-1745,-76,1769.7530901230261,-3855,2260,17641,18198.17315007196
1735561146710,285,-1745,-76,1769.7530901230261,-6776,2026,-14235,15895.096004743098
1735561146740,285,-1745,-76,1769.7530901230261,-8873,3463,-9843,13696.975834102943
1735561146770,145,-902,828,1232.9691804745162,-6348,4012,-5799,9487.973914382354
1735561146800,145,-902,828,1232.9691804745162,1568,2366,-7230,7767.205417651834
1735561146830,145,-902,828,1232.9691804745162,6973,3602,-11005,13516.921173107432
1735561146860,145,-902,828,1232.9691804745162,9354,6133,-16126,19625.465115507453
1735561146890,6,-875,-69,877.7368626188603,-8180,6048,7961,12917.748449323512
1735561146920,6,-875,-69,877.7368626188603,-14799,3722,11141,18894.061659685565
1735561146950,6,-875,-69,877.7368626188603,17774,4601,17204,25160.721233700755
1735561146980,719,-1039,59,1264.8964384486187,8989,4786,14639,17832.785480681363
1735561147010,719,-1039,59,1264.8964384486187,2669,668,14730,14984.748412969768
1735561147040,719,-1039,59,1264.8964384486187,-3506,-563,-17025,17391.366536301855
1735561147070,181,-1053,153,1079.341929140159,-7464,-14,-14224,16063.426409082216
1735561147100,181,-1053,153,1079.341929140159,-8961,-3959,-14043,17122.47210539413
1735561147130,181,-1053,153,1079.341929140159,-14113,-7367,-9860,18726.159723766108
1735561147160,126,-956,164,978.1145127233314,11415,-5477,-1429,12741.341962289529
1735561147190,126,-956,164,978.1145127233314,6933,-2929,-2045,7799.202202789718
1735561147220,126,-956,164,978.1145127233314,3700,-1538,-4789,6244.194503697014
1735561147250,126,-956,164,978.1145127233314,1003,-1773,-8136,8387.135029317222
1735561147280,496,-826,286,1005.0313427948404,-3329,-3392,-6013,7664.468279013228
1735561147310,496,-826,286,1005.0313427948404,-7608,-3027,-3253,8810.584657104204
1735561147340,496,-826,286,1005.0313427948404,-10528,-1300,-1288,10685.865804884506
1735561147370,533,-714,109,897.6446958568853,-12404,1199,140,12462.600731789493
1735561147400,533,-714,109,897.6446958568853,-13667,4342,1628,14432.263751747332
1735561147430,533,-714,109,897.6446958568853,13221,7298,-994,15134.189142468122
1735561147460,178,-866,452,992.9471285018151,401,5948,-10657,12211.107812152017
1735561147490,178,-866,452,992.9471285018151,-633,3653,-12934,13454.867297747682
1735561147519,178,-866,452,992.9471285018151,-543,1624,-14502,14602.747310009852
1735561147550,178,-866,452,992.9471285018151,-12,-16,-16078,16078.012439353317
1735561147579,100,-944,381,1022.8866017306121,-2355,-1576,-16382,16625.27368195784
1735561147610,100,-944,381,1022.8866017306121,-4432,-2972,-16203,17059.091916042893
1735561147640,100,-944,381,1022.8866017306121,-6478,-4105,-15621,17402.044420124894
1735561147670,-52,-1349,80,1352.3701416402241,-10295,-4331,-15703,19269.89348699157
1735561147700,-52,-1349,80,1352.3701416402241,-16060,-4683,-16061,23190.72681051631
1735561147730,-52,-1349,80,1352.3701416402241,14311,-5290,-16538,22500.983645165383
1735561147760,228,-756,213,817.8563443539458,8387,-6260,-16508,19545.93136691112
1735561147790,228,-756,213,817.8563443539458,-1027,-6147,-12577,14036.426432678654
1735561147820,228,-756,213,817.8563443539458,-6014,-4774,-12405,14589.149975238448
1735561147850,228,-756,213,817.8563443539458,-9337,-3778,-13715,17016.28860827178
1735561147880,299,-1044,140,1094.9598166142903,-13751,-2115,-13837,19622.074176804043
1735561147910,299,-1044,140,1094.9598166142903,17486,-1119,-15251,23229.407181415543
1735561147940,299,-1044,140,1094.9598166142903,12907,-1600,-17244,21598.754246483753
1735561147970,-243,-819,83,858.3117149381103,8744,37,17943,19960.214277406943
1735561148000,-243,-819,83,858.3117149381103,4117,2123,15375,16057.628810008033
1735561148030,-243,-819,83,858.3117149381103,-348,1457,11708,11803.440896619933
1735561148060,219,-1457,355,1515.5312599877311,-2502,-465,10574,10875.923179206444
1735561148120,219,-1457,355,1515.5312599877311,-4381,-990,12940,13697.33043333627
1735561148120,219,-1457,355,1515.5312599877311,-6272,-707,15387,16631.22370723213
1735561148150,219,-1457,355,1515.5312599877311,-7835,280,17649,19311.986588644886
1735561148181,288,-671,58,732.495051177822,-11944,1162,-17459,21185.515358376346
1735561148210,288,-671,58,732.495051177822,-16560,2537,-17105,23942.660545561765
1735561148240,288,-671,58,732.495051177822,11616,4063,17776,21620.027775190298
1735561148270,-326,-1915,-188,1951.6262449557291,2556,5544,13285,14620.543662942224
1735561148300,-326,-1915,-188,1951.6262449557291,-5347,2962,9477,11277.294977076728
1735561148330,-326,-1915,-188,1951.6262449557291,-10326,-339,10813,14955.339046641504
1735561148360,-383,-1677,1999,2637.237001105513,-12310,505,13632,18374.508129471113
1735561148390,-383,-1677,1999,2637.237001105513,-5084,3216,-17696,18690.589289800362
1735561148420,-383,-1677,1999,2637.237001105513,1312,-396,-13302,13372.410553075313
1735561148450,-383,-1677,1999,2637.237001105513,6227,-5961,-13156,15728.616785973267
1735561148480,22,-540,30,541.2799645285238,-43,-5049,-14212,15082.280795688694
1735561148510,22,-540,30,541.2799645285238,-4394,-5155,-16884,18192.050928908484
1735561148540,22,-540,30,541.2799645285238,-7368,-6082,15716,18392.139734136428
1735561148570,-103,-933,403,1021.5219038278132,-11388,-4426,17413,21271.77916865442
1735561148600,-103,-933,403,1021.5219038278132,-17230,-562,17200,24352.181503922806
1735561148630,-103,-933,403,1021.5219038278132,13265,1555,13236,18803.455693036853
1735561148660,-531,-641,123,841.4101259195779,9603,-957,7778,12394.786888042892
1735561148721,-531,-641,123,841.4101259195779,12272,-4103,-905,12971.338327250585
1735561148721,-531,-641,123,841.4101259195779,15130,-2614,-10545,18626.511240702053
1735561148751,-531,-641,123,841.4101259195779,13893,-1038,17590,22438.827799152077
1735561148780,-559,-414,-191,721.3584407213933,14377,-1428,11453,18436.608202161264
1735561148810,-559,-414,-191,721.3584407213933,15067,-969,5464,16056.42382350441
1735561148840,-559,-414,-191,721.3584407213933,15015,-387,-359,15024.276188888434
1735561148870,-623,-346,-327,784.0752514905696,13804,138,-8385,16151.708423569316
1735561148900,-623,-346,-327,784.0752514905696,13209,-554,-17589,22003.57966331842
1735561148930,-623,-346,-327,784.0752514905696,13688,-823,9042,16425.481332368923
1735561148960,-929,-413,-654,1208.8531755345643,12874,171,807,12900.401776688972
1735561148990,-929,-413,-654,1208.8531755345643,9786,297,-5433,11196.941278760018
1735561149020,-929,-413,-654,1208.8531755345643,8778,-1623,-11744,14751.574458341727
1735561149050,-929,-413,-654,1208.8531755345643,10098,-2809,16953,19931.490009530145
1735561149080,-611,-356,-1041,1258.4665271670915,8452,-3686,14572,17244.30584279924
1735561149110,-611,-356,-1041,1258.4665271670915,7723,-4788,11642,14768.406718397215
1735561149140,-611,-356,-1041,1258.4665271670915,8268,-5882,7681,12726.174169796672
1735561149170,-996,-3,-412,1077.8538862016503,8637,-7279,4603,12197.09879438549
1735561149200,-996,-3,-412,1077.8538862016503,17159,-8638,-6700,20345.425161446
1735561149230,-996,-3,-412,1077.8538862016503,-13316,-7254,-15051,21365.13451864977
1735561149260,-38,895,-328,953.9669805606482,-12487,-6260,17229,22179.973174014434
1735561149290,-38,895,-328,953.9669805606482,-10704,-5031,12694,17350.049365924006
1735561149320,-38,895,-328,953.9669805606482,-10660,-3586,9350,14625.918637815541
1735561149350,-38,895,-328,953.9669805606482,-11309,-2429,6198,13122.832240031114
1735561149380,-916,342,-496,1096.3740237710851,-15016,-4551,5595,16658.20764668276
1735561149410,-916,342,-496,1096.3740237710851,15957,-6424,7094,18606.946579167685
1735561149440,-916,342,-496,1096.3740237710851,9117,-6488,11314,15912.901338222393
1735561149470,67,363,-213,426.1771931955064,5006,-4469,16190,17525.64112949937
1735561149500,67,363,-213,426.1771931955064,4789,-1613,-16575,17328.211534950744
1735561149530,67,363,-213,426.1771931955064,6126,1002,-13089,14486.331523197998
1735561149560,-1846,-2000,-2000,3377.5310509305464,6178,3172,-11077,13073.98932996352
1735561149590,-1846,-2000,-2000,3377.5310509305464,-1888,3208,-16179,16601.682113569095
1735561149619,-1846,-2000,-2000,3377.5310509305464,-7446,-781,-17863,19368.522039639472
1735561149681,-896,136,-354,972.9480972796031,-11802,-624,-16822,20558.60559473818
1735561149710,-896,136,-354,972.9480972796031,-15882,9,-16390,22822.578842015202
1735561149740,-896,136,-354,972.9480972796031,16611,684,-16429,23373.17304090311
1735561149770,-869,114,-308,928.9892356749889,13586,1187,-16322,21269.603875013752
1735561149800,-869,114,-308,928.9892356749889,10972,1720,-16171,19617.45205168092
1735561149830,-869,114,-308,928.9892356749889,8693,2251,-16152,18480.323427905692
1735561149860,-927,-120,-130,943.7314236582355,6485,2940,-15930,17448.888933109753
1735561149890,-927,-120,-130,943.7314236582355,4084,4271,-15155,16266.361670637967
1735561149920,-927,-120,-130,943.7314236582355,1852,5886,-14778,16014.499180430214
1735561149950,-927,-120,-130,943.7314236582355,-1553,7641,-16064,17856.337418406943
1735561149980,-1246,279,187,1290.4751063077506,17546,6940,9138,20964.941211460624
1735561150010,-1246,279,187,1290.4751063077506,14068,5642,11452,18997.08114421792
1735561150040,-1246,279,187,1290.4751063077506,11151,5165,14631,19107.28099442723
1735561150070,-782,-18,408,882.2199272290328,7624,5487,17174,19574.953920763135
1735561150101,-782,-18,408,882.2199272290328,2143,6345,17514,18750.777850531962
1735561150131,-782,-18,408,882.2199272290328,-3494,6902,16875,18563.708277173504
1735561150160,-957,93,29,961.9454246473654,-6851,6720,17288,19772.949830513404
1735561150190,-957,93,29,961.9454246473654,-7002,5502,-15988,18300.714521569917
1735561150220,-957,93,29,961.9454246473654,-7937,4534,-13982,16704.773240005386
1735561150250,-957,93,29,961.9454246473654,-9052,3853,-12180,15656.842370031065
1735561150280,-764,149,221,809.1588224817177,-9522,3484,-9019,13570.154789095075
1735561150310,-764,149,221,809.1588224817177,-10139,3385,-6082,12298.303541545883
1735561150340,-764,149,221,809.1588224817177,-10628,3517,-3120,11621.44883394493
1735561150370,-882,144,270,933.5737785520756,-10801,3831,123,11460.94633963531
1735561150399,-882,144,270,933.5737785520756,-10555,4150,3789,11957.719096884657
1735561150430,-882,144,270,933.5737785520756,-10124,4290,7648,13393.706731148028
1735561150460,-943,164,350,1019.1393427789941,-9754,4230,11499,15660.792349047988
1735561150490,-943,164,350,1019.1393427789941,-9516,4045,15344,18502.827270447076
1735561150520,-943,164,350,1019.1393427789941,-9523,3822,-16980,19839.748309895465
1735561150550,-943,164,350,1019.1393427789941,-9696,3660,-13435,16967.8295901391
1735561150580,-820,163,464,956.1720556468904,-10080,3607,-10215,14797.400920431939
1735561150610,-820,163,464,956.1720556468904,-10424,3711,-7064,13127.505208530674
1735561150640,-820,163,464,956.1720556468904,-10584,3919,-3815,11913.59903639534
1735561150701,-868,44,333,930.7249862338499,-10359,4127,-165,11152.050708277828
1735561150701,-868,44,333,930.7249862338499,-9905,4144,3753,11373.951380237213
1735561150730,-868,44,333,930.7249862338499,-9623,3977,7590,12885.137096670722
1735561150759,-906,82,629,1105.9841771020053,-9977,3552,10236,14728.643148640678
1735561150790,-906,82,629,1105.9841771020053,-11092,2760,10872,15774.994389856372
1735561150850,-906,82,629,1105.9841771020053,-12113,2029,11515,16835.582407508213
1735561150851,-906,82,629,1105.9841771020053,-13054,1345,12169,17896.941135289013
1735561150880,-540,-599,672,1049.7547332591553,-14229,28,12895,19202.766727740043
1735561150910,-540,-599,672,1049.7547332591553,17407,-1198,13885,22298.701262629624
1735561150940,-540,-599,672,1049.7547332591553,11825,-1139,15556,19573.376867571933
1735561150970,-573,162,882,1064.1884231657475,7341,-161,16746,18285.09551520035
1735561151000,-573,162,882,1064.1884231657475,3356,1124,17038,17401.71129515715
1735561151030,-573,162,882,1064.1884231657475,-278,2143,16444,16585.38118343983
1735561151060,-616,-16,902,1092.3900402328832,-3698,1820,16019,16540.736531364015
1735561151090,-616,-16,902,1092.3900402328832,-6646,355,17414,18642.49814268463
1735561151120,-616,-16,902,1092.3900402328832,-9370,-239,-16747,19191.561426835495
1735561151150,-571,-55,740,936.3044376697144,-11777,59,-14591,18750.959735437544
1735561151180,-571,-55,740,936.3044376697144,-13557,1293,-12154,18253.32336863619
1735561151210,-571,-55,740,936.3044376697144,-14394,3152,-9668,17623.636514635677
1735561151240,-571,-55,740,936.3044376697144,-13793,5213,-6270,16022.955969483284
1735561151270,-674,42,838,1076.2360335911449,-11138,6302,-1325,12865.685873671873
1735561151300,-674,42,838,1076.2360335911449,-7977,5840,4666,10932.048527151715
1735561151330,-674,42,838,1076.2360335911449,-7362,4617,8624,12242.920770796485
1735561151360,-578,-49,845,1024.9439009038495,-7963,3555,11677,14573.939858528303
1735561151390,-578,-49,845,1024.9439009038495,-8925,2904,14453,17233.051093755857
1735561151420,-578,-49,845,1024.9439009038495,-9928,2678,17154,19999.914599817672
1735561151450,-629,23,828,1040.0740358262963,-10773,2835,-16128,19601.202463114347
1735561151480,-629,23,828,1040.0740358262963,-11336,3308,-13246,17745.54242619819
1735561151510,-629,23,828,1040.0740358262963,-11433,3922,-10099,15750.726141991041
1735561151540,-629,23,828,1040.0740358262963,-11012,4459,-6536,13559.724222859402
1735561151570,-868,-375,836,1262.119249516463,-11257,4328,-4045,12720.59975001179
1735561151600,-868,-375,836,1262.119249516463,-11340,4244,-1471,12197.170860490558
1735561151629,-868,-375,836,1262.119249516463,-11457,4190,1063,12245.363122423116
1735561151660,-210,429,933,1048.1555228113812,-11870,4590,3854,13297.30483970342
1735561151691,-210,429,933,1048.1555228113812,-12595,5326,6627,15195.967557217276
1735561151721,-210,429,933,1048.1555228113812,-12381,6158,10152,17154.39386862736
1735561151750,-534,91,862,1018.0771090639452,-10219,6633,15517,19728.201615960843
1735561151780,-534,91,862,1018.0771090639452,-7345,5675,-14399,17131.42874952349
1735561151810,-534,91,862,1018.0771090639452,-7408,4327,-10760,13761.50402390669
1735561151840,-534,91,862,1018.0771090639452,-8385,3353,-7823,11947.809966684272
1735561151870,-723,187,781,1080.5827131691492,-10799,2452,-6495,12838.057874927967
1735561151900,-723,187,781,1080.5827131691492,-12902,2045,-4900,13951.83246028994
1735561151930,-723,187,781,1080.5827131691492,-14695,2120,-3228,15193.992529944195
1735561151960,567,259,512,806.6684572982881,-17688,3449,-3139,18292.464732779998
1735561151990,567,259,512,806.6684572982881,12638,4180,-4877,14176.62064809523
1735561152020,567,259,512,806.6684572982881,4720,3870,-6207,8705.294308637704
1735561152051,169,-1895,285,1923.7492040284253,-806,3328,-5367,6366.310469966101
1735561152080,169,-1895,285,1923.7492040284253,-4956,3830,-3645,7246.851799229787
1735561152109,169,-1895,285,1923.7492040284253,-8943,5155,-2101,10534.015141435862
1735561152140,169,-1895,285,1923.7492040284253,-13660,6787,-1670,15344.310639452005
1735561152170,-871,-411,1350,1658.3310887757004,-14311,2649,3619,14997.302524120796
1735561152200,-871,-411,1350,1658.3310887757004,17708,623,8666,19724.62798128269
1735561152230,-871,-411,1350,1658.3310887757004,12936,3713,14170,19542.65501409673
1735561152260,301,-428,442,684.9445233009751,2489,7130,10819,13194.043428759813
1735561152290,301,-428,442,684.9445233009751,-9098,4934,4572,11314.642902009768
1735561152320,301,-428,442,684.9445233009751,-12205,2130,7215,14337.194634934687
1735561152350,-140,-10,756,768.9187213223514,-14903,929,9973,17956.14599517391
1735561152380,-140,-10,756,768.9187213223514,-16694,1153,11635,20381.174401883716
1735561152410,-140,-10,756,768.9187213223514,17906,1860,13244,22349.227548172665
1735561152440,-140,-10,756,768.9187213223514,11930,3813,14084,18847.358568245047
1735561152470,-120,225,792,832.0390615830485,5163,5446,12221,14341.141028523498
1735561152500,-120,225,792,832.0390615830485,-1639,4837,9410,10706.586290690419
1735561152530,-120,225,792,832.0390615830485,-5753,3218,8895,11071.294323610045
1735561152559,19,70,908,910.8924195534838,-8499,2082,9521,12931.247658288816
1735561152590,19,70,908,910.8924195534838,-10690,1420,10408,14987.29341809254
1735561152650,19,70,908,910.8924195534838,-12607,1052,11423,17044.88433518984
1735561152651,119,-115,694,713.4577773071088,-14227,1317,12571,19030.818663420658
1735561152680,119,-115,694,713.4577773071088,-15251,2527,13792,20717.094246056804
1735561152710,119,-115,694,713.4577773071088,-15833,4045,15080,22236.283727277812
1735561152740,119,-115,694,713.4577773071088,-15727,5807,16824,23750.931644885008
1735561152770,-305,358,930,1042.1559384276425,-11418,7478,-12929,18800.272577811207
1735561152800,-305,358,930,1042.1559384276425,-5982,6254,-4442,9727.702914871526
1735561152830,-305,358,930,1042.1559384276425,-6393,4494,-1089,7890.019391611151
1735561152860,-302,265,891,977.399611213346,-7793,3341,1502,8610.989141788532
1735561152890,-302,265,891,977.399611213346,-9277,2808,3993,10482.921443948724
1735561152920,-302,265,891,977.399611213346,-10595,2809,6504,12745.451031642622
1735561152950,-202,395,845,954.3867140734934,-11567,3227,9074,15051.461523719217
1735561152980,-202,395,845,954.3867140734934,-12239,3898,11687,17365.871530101795
1735561153010,-202,395,845,954.3867140734934,-12286,4720,14698,19729.556507940062
1735561153040,-202,395,845,954.3867140734934,-11524,5420,-17563,21694.191503718226
1735561153070,-207,385,859,963.8231165519948,-10126,5650,-13061,17465.626155394486
1735561153100,-207,385,859,963.8231165519948,-9085,5328,-8686,13651.791274407911
1735561153130,-207,385,859,963.8231165519948,-8884,4788,-4952,11241.561457377707
1735561153160,-84,372,854,935.2839141137839,-9346,4346,-1855,10472.652815786456
1735561153190,-84,372,854,935.2839141137839,-10048,4142,913,10906.513512575868
1735561153220,-84,372,854,935.2839141137839,-10675,4174,3665,12033.707907374186
1735561153250,-231,280,832,907.7361951580426,-11073,4389,6546,13591.348939674825
1735561153280,-231,280,832,907.7361951580426,-10933,4679,9882,15462.129672202338
1735561153311,-231,280,832,907.7361951580426,-10574,4860,13432,17772.104546170103
1735561153340,-231,280,832,907.7361951580426,-10170,4877,17076,20464.696552844365
1735561153370,-153,373,848,938.957933030016,-9948,4795,-15347,18907.27738200294
1735561153400,-153,373,848,938.957933030016,-9923,4676,-11908,16190.471549649195
1735561153430,-153,373,848,938.957933030016,-10009,4576,-8563,13944.347456944695
1735561153460,-202,400,898,1003.5975288929322,-10201,4522,-5342,12371.170074006743
1735561153491,-202,400,898,1003.5975288929322,-10387,4543,-2131,11535.587501293552
1735561153520,-202,400,898,1003.5975288929322,-10494,4620,1122,11520.734351594087
1735561153551,-196,418,1018,1117.7942565606606,-10513,4712,4429,12342.696382881659
1735561153580,-196,418,1018,1117.7942565606606,-10489,4791,7762,13900.411720521086
1735561153610,-196,418,1018,1117.7942565606606,-10401,4846,11156,16003.77621063229
1735561153640,-196,418,1018,1117.7942565606606,-10293,4862,14579,18496.81415811923
1735561153672,-43,305,942,991.0792097506637,-10276,4837,17884,21185.613066418446
1735561153700,-43,305,942,991.0792097506637,-10306,4807,-14901,18744.617520771128
1735561153730,-43,305,942,991.0792097506637,-10352,4792,-11705,16344.240361668693
1735561153760,-144,339,911,982.6382854336584,-10271,4783,-8348,14073.366121862957
1735561153790,-144,339,911,982.6382854336584,-10144,4735,-4871,12208.505313919473
1735561153820,-144,339,911,982.6382854336584,-10106,4657,-1455,11222.117001706942
1735561153850,-109,331,841,910.34224333489,-10163,4584,1873,11305.209153306276
1735561153880,-109,331,841,910.34224333489,-10308,4545,5075,12355.869617311442
1735561153910,-109,331,841,910.34224333489,-10437,4559,8273,14076.859699521056
1735561153940,-109,331,841,910.34224333489,-10511,4611,11500,16247.84422623506
1735561153970,-178,382,905,998.3150805231783,-10440,4703,14875,18771.71899427434
1735561154000,-178,382,905,998.3150805231783,-10303,4755,-17658,20989.683132434373
1735561154030,-178,382,905,998.3150805231783,-10168,4749,-14176,18080.381660794665
1735561154060,-207,321,838,920.9419091343384,-10031,4686,-10636,15352.656219690454
1735561154090,-207,321,838,920.9419091343384,-9951,4570,-7120,13061.458609205942
1735561154151,-207,321,838,920.9419091343384,-9999,4454,-3706,11556.493975250452
1735561154151,-136,308,896,957.170831147711,-10166,4386,-458,11081.259675686695
1735561154180,-136,308,896,957.170831147711,-10449,4395,2500,11608.084510374656
1735561154210,-136,308,896,957.170831147711,-10638,4489,5501,12789.807113479077
1735561154240,-136,308,896,957.170831147711,-10694,4626,8591,14476.421968152214
1735561154270,-23,292,873,920.8268023901129,-10687,4750,11702,16544.221740535275
1735561154300,-23,292,873,920.8268023901129,-10606,4850,14860,18889.926839455995
1735561154330,-23,292,873,920.8268023901129,-10461,4907,-17914,21317.189448893118
1735561154360,-107,311,795,860.3458606862707,-10145,4898,-14350,18243.736706058877
1735561154390,-107,311,795,860.3458606862707,-9858,4767,-10655,15278.529968553912
1735561154421,-107,311,795,860.3458606862707,-9803,4575,-7126,12954.12328179719
1735561154451,-298,243,925,1001.7374905632713,-9983,4421,-3849,11576.715034931109
1735561154481,-298,243,925,1001.7374905632713,-10109,4354,-624,11024.45341048707
1735561154511,-298,243,925,1001.7374905632713,-10245,4343,2578,11422.24837761813
1735561154540,-298,243,925,1001.7374905632713,-10344,4378,5793,12638.198803627041
1735561154570,-158,218,833,875.4296088207207,-10385,4424,9047,14466.105557474686
1735561154600,-158,218,833,875.4296088207207,-10405,4477,12282,16707.934582107988
1735561154630,-158,218,833,875.4296088207207,-10375,4526,15559,19240.784339522128
1735561154660,-170,262,869,923.4202726819462,-10345,4553,-17151,20540.341647596808
1735561154691,-170,262,869,923.4202726819462,-10327,4572,-13847,17868.674321280803
1735561154720,-170,262,869,923.4202726819462,-10299,4580,-10533,15426.920950079442
1735561154750,-113,357,928,1000.7007544715852,-10283,4587,-7240,13386.495359129663
1735561154780,-113,357,928,1000.7007544715852,-10398,4625,-4050,12079.38446279445
1735561154810,-113,357,928,1000.7007544715852,-10442,4692,-814,11476.620756999859
1735561154840,-113,357,928,1000.7007544715852,-10414,4760,2479,11715.563878874973
1735561154870,-154,284,859,917.7434281976635,-10261,4769,5905,12763.248293440036
1735561154900,-154,284,859,917.7434281976635,-10129,4717,9324,14552.790316636876
1735561154930,-154,284,859,917.7434281976635,-10090,4635,12679,16853.734482303913
1735561154960,-154,281,885,941.2236716105264,-10125,4566,15966,19449.34798392995
1735561154990,-154,281,885,941.2236716105264,-10198,4525,-16787,20156.34386489772
1735561155020,-154,281,885,941.2236716105264,-10280,4516,-13558,17603.750168643044
1735561155050,-137,354,947,1020.2421281244957,-10364,4534,-10354,15335.415481818547
1735561155080,-137,354,947,1020.2421281244957,-10514,4594,-7202,13546.875506920405
1735561155110,-137,354,947,1020.2421281244957,-10566,4690,-3984,12227.375515620677
1735561155140,-153,278,895,949.5883318575476,-10478,4775,-621,11531.467816370992
1735561155170,-153,278,895,949.5883318575476,-10212,4767,2925,11643.232283176352
1735561155200,-153,278,895,949.5883318575476,-10052,4674,6415,12807.85715879124
1735561155230,-153,278,895,949.5883318575476,-10033,4550,9802,14745.941577261183
1735561155260,-232,279,924,992.6938097923246,-10100,4468,13105,17138.087670449117
1735561155290,-232,279,924,992.6938097923246,-10192,4421,16393,19802.842068753667
1735561155320,-232,279,924,992.6938097923246,-10290,4414,-16336,19804.857787926678
1735561155350,-29,396,848,936.3551676580847,-10375,4438,-13075,17271.134705050506
1735561155380,-29,396,848,936.3551676580847,-10694,4511,-10056,15356.884221742377
1735561155410,-29,396,848,936.3551676580847,-10857,4670,-6947,13709.272701350717
1735561155440,-162,390,1039,1121.5458082485975,-10869,4836,-3767,12478.47530750452
1735561155471,-162,390,1039,1121.5458082485975,-10674,4958,-433,11777.24624010214
1735561155500,-162,390,1039,1121.5458082485975,-10429,4995,2973,11939.547520739636
1735561155530,-162,390,1039,1121.5458082485975,-10236,4948,6368,13031.109852963407
1735561155560,-104,354,990,1056.5188119479938,-10052,4867,9883,14913.218364927136
1735561155590,-104,354,990,1056.5188119479938,-10017,4749,13273,17293.519566589097
1735561155620,-104,354,990,1056.5188119479938,-10097,4645,16566,19948.879417150227
1735561155650,85,356,899,970.6502974810238,-10307,4594,-16292,19818.384116774
1735561155680,85,356,899,970.6502974810238,-10599,4628,-13313,17634.99798695764
1735561155710,85,356,899,970.6502974810238,-10774,4743,-10271,15622.693941827063
1735561155740,-115,352,875,950.1336748058138,-10759,4854,-7043,13744.862531142318
1735561155800,-115,352,875,950.1336748058138,-10429,4855,-3357,11983.510128505754
1735561155801,-115,352,875,950.1336748058138,-10224,4747,262,11275.319463323423
1735561155830,-115,352,875,950.1336748058138,-10196,4598,3754,11797.988642137268
1735561155860,-90,429,831,939.5222190028292,-10347,4515,7078,13324.553200764369
1735561155890,-90,429,831,939.5222190028292,-10537,4508,10364,15451.955507313629
1735561155920,-90,429,831,939.5222190028292,-10668,4563,13675,17934.12440014845
1735561155950,-52,359,873,945.364479975845,-10732,4673,16902,20559.43474417524
1735561155980,-52,359,873,945.364479975845,-10681,4781,-15875,19722.00159720103
1735561156010,-52,359,873,945.364479975845,-10551,4853,-12574,17116.678591362284
1735561156040,-83,346,932,997.6116478870924,-10402,4878,-9232,14738.599390715524
1735561156070,-83,346,932,997.6116478870924,-10241,4863,-5841,12753.200813913345
1735561156100,-83,346,932,997.6116478870924,-10149,4802,-2490,11500.50020651276
1735561156130,-83,346,932,997.6116478870924,-10144,4725,795,11218.662397986669
1735561156160,-58,313,955,1006.6568432191776,-10309,4701,3845,11964.90313374914
1735561156191,-58,313,955,1006.6568432191776,-10442,4726,6889,13372.687127125946
1735561156220,-58,313,955,1006.6568432191776,-10512,4786,9971,15258.728026935929
1735561156250,-115,335,949,1012.9417554825154,-10375,4836,13324,17565.776299383982
1735561156280,-115,335,949,1012.9417554825154,-10170,4812,16832,20245.998814580624
1735561156310,-115,335,949,1012.9417554825154,-10062,4727,-15717,19251.297670546785
1735561156340,-104,289,865,917.9117604650243,-10057,4630,-12329,16570.588100607656
1735561156370,-104,289,865,917.9117604650243,-10089,4546,-8980,14251.120552433764
1735561156400,-104,289,865,917.9117604650243,-10181,4490,-5685,12495.282549826554
1735561156430,-104,289,865,917.9117604650243,-10287,4476,-2414,11475.379775850557
1735561156460,3,335,868,930.4074376314927,-10579,4478,545,11500.641286467464
1735561156490,3,335,868,930.4074376314927,-10821,4572,3503,12258.394429940652
1735561156520,3,335,868,930.4074376314927,-10914,4725,6556,13580.211964472424
1735561156550,5,267,863,903.373123354907,-10842,4864,9732,15359.664189037467
1735561156580,5,267,863,903.373123354907,-10647,4938,13000,17514.064434048425
1735561156610,5,267,863,903.373123354907,-10449,4938,16297,19978.930251642603
1735561156640,-23,303,888,938.5531418092424,-10288,4889,-16396,19964.32019879465
1735561156670,-23,303,888,938.5531418092424,-10163,4817,-13028,17211.009325428884
1735561156700,-23,303,888,938.5531418092424,-10145,4722,-9739,14834.636160014172
1735561156730,-23,303,888,938.5531418092424,-10214,4642,-6523,12977.807557519105
1735561156760,-220,427,1060,1163.7564178125936,-10482,4520,-3538,11950.73922399782
1735561156790,-220,427,1060,1163.7564178125936,-10736,4504,-511,11653.70468992586
1735561156820,-220,427,1060,1163.7564178125936,-10922,4569,2540,12108.56907318119
1735561156850,-14,313,1075,1119.7276454566977,-11015,4714,5613,13230.94063171625
1735561156880,-14,313,1075,1119.7276454566977,-11009,4862,8653,14822.669597612976
1735561156910,-14,313,1075,1119.7276454566977,-10875,4983,11809,16809.175916742617
1735561156940,-17,356,1009,1070.0962573525803,-10647,5058,15098,19154.41403436816
1735561156970,-17,356,1009,1070.0962573525803,-10393,5081,-17462,20946.4186437682
1735561157000,-17,356,1009,1070.0962573525803,-10207,5021,-14050,18077.49401880692
1735561157030,-17,356,1009,1070.0962573525803,-10144,4919,-10724,15559.61031003026
1735561157060,65,277,891,935.3261463254408,-10012,4819,-7316,13303.637134257684
1735561157090,65,277,891,935.3261463254408,-10021,4697,-4048,11784.250251925236
1735561157120,65,277,891,935.3261463254408,-10130,4604,-868,11160.96501204085
1735561157150,-75,328,1000,1055.087200187738,-10294,4562,2226,11477.51523632184
1735561157180,-75,328,1000,1055.087200187738,-10406,4581,5385,12580.485761686628
1735561157210,-75,328,1000,1055.087200187738,-10465,4632,8575,14300.429154399528
1735561157240,43,251,1000,1031.9156942308805,-10496,4701,11777,16460.958234562167
1735561157270,43,251,1000,1031.9156942308805,-10556,4782,14828,18819.305088126926
1735561157300,43,251,1000,1031.9156942308805,-10530,4865,17947,21369.22867115236
1735561157330,43,251,1000,1031.9156942308805,-10439,4925,-14871,18824.850251728432
1735561157360,-77,246,1060,1090.8918369847672,-10195,4928,-11473,16119.954652541675
1735561157390,-77,246,1060,1090.8918369847672,-9999,4848,-8067,13731.700331714204
1735561157420,-77,246,1060,1090.8918369847672,-9945,4726,-4760,11995.653421135507
1735561157450,-58,281,963,1004.835309889138,-10000,4608,-1495,11111.646547654402
1735561157480,-58,281,963,1004.835309889138,-10146,4535,1715,11244.944019424907
1735561157510,-58,281,963,1004.835309889138,-10302,4523,4899,12271.468290306584
1735561157540,8,297,873,922.1724350684095,-10374,4563,8156,13962.850031422668
1735561157570,8,297,873,922.1724350684095,-10379,4614,11487,16154.374206387569
1735561157600,8,297,873,922.1724350684095,-10340,4654,14857,18689.72351320372
1735561157630,8,297,873,922.1724350684095,-10278,4674,-17747,21034.24752635568
1735561157660,-149,291,1010,1061.5940843844223,-10231,4668,-14460,18318.165437619566
1735561157689,-149,291,1010,1061.5940843844223,-10164,4639,-11125,15766.827264862135
1735561157720,-149,291,1010,1061.5940843844223,-10146,4594,-7823,13610.4915781907
1735561157750,44,253,959,992.7869862160765,-10294,4555,-4733,12211.296000015724
1735561157780,44,253,959,992.7869862160765,-10548,4574,-1854,11645.561214471374
1735561157810,44,253,959,992.7869862160765,-10711,4665,1069,11731.602916907817
1735561157840,-55,246,931,964.521643095685,-10687,4795,4185,12438.577852793302
1735561157870,-55,246,931,964.521643095685,-10335,4881,7742,13804.888626859689
1735561157900,-55,246,931,964.521643095685,-10030,4832,11307,15868.12443233289
1735561157930,-55,246,931,964.521643095685,-9884,4696,14772,18383.63010942072
1735561157960,-18,333,913,971.9989711928712,-9994,4568,-17992,21082.18973446544
1735561157990,-18,333,913,971.9989711928712,-10197,4511,-14837,18559.754820578855
1735561158020,-18,333,913,971.9989711928712,-10380,4528,-11691,16276.567973623924
1735561158050,-20,277,987,1025.3282401260583,-10539,4591,-8612,14363.646681814476
1735561158079,-20,277,987,1025.3282401260583,-10601,4682,-5522,12837.243045140183
1735561158110,-20,277,987,1025.3282401260583,-10567,4777,-2355,11833.310737067628
1735561158140,10,354,946,1010.1148449557604,-10444,4844,907,11548.33845191593
1735561158170,10,354,946,1010.1148449557604,-10353,4876,4230,12200.52806234222
1735561158200,10,354,946,1010.1148449557604,-10264,4874,7564,13649.896263342078
1735561158230,10,354,946,1010.1148449557604,-10208,4845,10880,15686.034839946009
1735561158261,28,361,988,1052.2589985360069,-10171,4801,14220,18130.28521562747
1735561158290,28,361,988,1052.2589985360069,-10192,4758,17512,20813.11057963225
1735561158319,28,361,988,1052.2589985360069,-10243,4730,-15224,18948.934666624402
1735561158350,-25,402,1038,1113.4060355503736,-10290,4715,-11949,16458.855549521053
1735561158380,-25,402,1038,1113.4060355503736,-10321,4718,-8632,14258.120107503653
1735561158410,-25,402,1038,1113.4060355503736,-10340,4730,-5308,12548.44069994356
1735561158440,55,312,907,960.7382577996985,-10327,4747,-1940,11530.157761279765
1735561158470,55,312,907,960.7382577996985,-10277,4742,1397,11404.16160881632
1735561158500,55,312,907,960.7382577996985,-10249,4722,4722,12232.602707518952
1735561158530,55,312,907,960.7382577996985,-10249,4697,8026,13839.092672570698
1735561158560,-83,246,990,1023.4769171798649,-10255,4663,11217,15897.474107542997
1735561158590,-83,246,990,1023.4769171798649,-10240,4623,14435,18292.046194999617
1735561158620,-83,246,990,1023.4769171798649,-10263,4587,17622,20902.263561633703
1735561158650,2,220,982,1006.3438776084446,-10474,4511,-15445,19199.005755507238
1735561158680,2,220,982,1006.3438776084446,-10789,4487,-12708,17263.515111355508
1735561158710,2,220,982,1006.3438776084446,-11031,4556,-9948,15537.14262662218
1735561158740,69,299,936,985.0167511265988,-11090,4688,-7024,13939.225946945548
1735561158770,69,299,936,985.0167511265988,-11026,4816,-3889,12644.795490635663
1735561158800,69,299,936,985.0167511265988,-10869,4901,-661,11941.184321498433
1735561158830,69,299,936,985.0167511265988,-10686,4923,2610,12051.498869435287
1735561158860,-46,253,850,888.045606936941,-10443,4758,6081,12987.431385766778
1735561158890,-46,253,850,888.045606936941,-10394,4543,9420,14744.846048704612
1735561158920,-46,253,850,888.045606936941,-10539,4356,12600,16994.2712994703
1735561158950,62,262,953,990.301469250652,-10857,4310,15446,19365.677499121997
1735561158980,62,262,953,990.301469250652,-11188,4394,-17872,21538.035286441518
1735561159010,62,262,953,990.301469250652,-11369,4562,-15106,19448.836494762352
1735561159040,-12,305,953,1000.6887628029007,-11358,4736,-12155,17296.759378565686
1735561159070,-12,305,953,1000.6887628029007,-11168,4846,-8892,15075.662638836146
1735561159100,-12,305,953,1000.6887628029007,-10941,4877,-5568,13209.58871426359
1735561159130,37,299,885,934.8769972568584,-10803,4808,-2322,12050.450489504532
1735561159160,37,299,885,934.8769972568584,-10899,4667,644,11873.661019247602
1735561159190,37,299,885,934.8769972568584,-11074,4575,3530,12490.99679769393
1735561159220,37,299,885,934.8769972568584,-11267,4547,6380,13723.15189743231
1735561159250,120,266,877,924.2753918611054,-11298,4611,9483,15454.236118294557
1735561159280,120,266,877,924.2753918611054,-11281,4673,12602,17547.31586311707
1735561159310,120,266,877,924.2753918611054,-11217,4719,15765,19915.45317084198
1735561159340,45,257,913,949.5488402394055,-11103,4790,-17008,20868.463599412393
1735561159370,45,257,913,949.5488402394055,-10779,4898,-13529,17978.07236607974
1735561159400,45,257,913,949.5488402394055,-10467,4877,-10014,15284.744485924519
1735561159430,-30,270,908,947.7679040777863,-10283,4751,-6565,13092.414406823518
1735561159460,-30,270,908,947.7679040777863,-10221,4571,-3147,11630.412331469593
1735561159490,-30,270,908,947.7679040777863,-10332,4410,130,11234.554908851529
1735561159520,-30,270,908,947.7679040777863,-10532,4318,3319,11856.808550364638
1735561159550,-45,297,1019,1062.3535193145453,-10679,4345,6541,13255.366724462963
1735561159580,-45,297,1019,1062.3535193145453,-10757,4418,9810,15214.068259344704
1735561159610,-45,297,1019,1062.3535193145453,-10749,4503,13142,17565.027013927418
1735561159640,29,343,992,1050.0257139708533,-10732,4584,16469,20184.56937861197
1735561159670,29,343,992,1050.0257139708533,-10722,4663,-16219,19994.019455827285
1735561159700,29,343,992,1050.0257139708533,-10646,4722,-12848,17340.86802902323
1735561159730,37,298,982,1026.8870434473306,-10557,4752,-9456,14948.166743785005
1735561159760,37,298,982,1026.8870434473306,-10460,4756,-6084,13001.776494002655
1735561159790,37,298,982,1026.8870434473306,-10393,4728,-2726,11738.80355913668
1735561159820,37,298,982,1026.8870434473306,-10374,4685,598,11398.53959943992
1735561159849,27,299,974,1019.2183279356784,-10367,4654,3885,12009.480838071227
1735561159880,27,299,974,1019.2183279356784,-10388,4626,7151,13433.064467946248
1735561159910,27,299,974,1019.2183279356784,-10424,4610,10401,15430.25200701531
1735561159940,20,302,980,1025.672462338733,-10483,4635,13627,17806.505636985603
1735561159970,20,302,980,1025.672462338733,-10501,4688,16881,20425.87834096737
1735561160000,20,302,980,1025.672462338733,-10469,4735,-15820,19552.30385402191
1735561160030,21,209,964,986.6194808536876,-10386,4745,-12468,16906.65682504971
1735561160060,21,209,964,986.6194808536876,-10243,4668,-9101,14475.409286096197
1735561160090,21,209,964,986.6194808536876,-10217,4560,-5818,12610.702319855147
1735561160120,21,209,964,986.6194808536876,-10288,4467,-2615,11516.738166685913
1735561160150,23,278,969,1008.3521210370909,-10464,4463,496,11386.820495643198
1735561160180,23,278,969,1008.3521210370909,-10601,4522,3633,12084.220041028713
1735561160210,23,278,969,1008.3521210370909,-10645,4614,6831,13463.564981088775
1735561160240,49,328,963,1018.5057682703618,-10678,4676,10038,15383.306016588242
1735561160270,49,328,963,1018.5057682703618,-10717,4738,13248,17686.498720775686
1735561160300,49,328,963,1018.5057682703618,-10689,4800,16512,20246.996443917305
1735561160329,14,273,949,987.5859456270123,-10587,4858,-16162,19922.223194212034
1735561160360,14,273,949,987.5859456270123,-10330,4882,-12718,17096.501045535602
1735561160391,14,273,949,987.5859456270123,-10144,4819,-9301,14581.909957203823
1735561160420,14,273,949,987.5859456270123,-10080,4712,-5969,12626.888175635357
1735561160450,65,284,995,1036.7767358501058,-10171,4629,-2780,11515.436682992096
1735561160480,65,284,995,1036.7767358501058,-10315,4593,344,11296.601701396752
1735561160510,65,284,995,1036.7767358501058,-10441,4608,3465,11927.043640399745
1735561160540,106,277,951,996.1756873162484,-10535,4656,6594,13271.97788575614
1735561160570,106,277,951,996.1756873162484,-10583,4725,9736,15136.552117308618
1735561160600,106,277,951,996.1756873162484,-10557,4795,12936,17371.884468876713
1735561160630,-16,255,973,1005.9870774517931,-10457,4840,16214,19891.411337559737
1735561160660,-16,255,973,1005.9870774517931,-10193,4822,-16289,19811.119453478645
1735561160690,-16,255,973,1005.9870774517931,-10042,4724,-12857,16984.121672903784
1735561160720,-16,255,973,1005.9870774517931,-10031,4600,-9529,14580.219545672144
1735561160750,72,226,870,901.7538466787929,-10182,4492,-6424,12849.862411714765
1735561160780,72,226,870,901.7538466787929,-10384,4449,-3403,11798.367090407044
1735561160810,72,226,870,901.7538466787929,-10556,4477,-382,11472.514502061002
1735561160840,69,310,1051,1097.9353350721526,-10709,4569,2651,11940.948161682974
1735561160870,69,310,1051,1097.9353350721526,-10788,4718,5765,13110.137032083227
1735561160900,69,310,1051,1097.9353350721526,-10715,4865,9004,14817.269181600232
1735561160930,234,200,942,991.0196768984963,-10532,4958,12360,16978.645057836624
1735561160960,234,200,942,991.0196768984963,-10400,4960,15560,19361.694140751217
1735561160990,234,200,942,991.0196768984963,-10312,4921,-17260,20699.303973805498
1735561161020,234,200,942,991.0196768984963,-10287,4864,-14127,18139.817915293417
1735561161050,139,261,883,931.1986898616213,-10207,4791,-10854,15650.74586082082
1735561161080,139,261,883,931.1986898616213,-10203,4711,-7609,13571.721003616307
1735561161110,139,261,883,931.1986898616213,-10268,4646,-4424,12107.390965852223
1735561161140,25,333,990,1044.8033307757016,-10354,4624,-1243,11407.530013109761
1735561161170,25,333,990,1044.8033307757016,-10399,4644,2024,11567.303618389205
1735561161200,25,333,990,1044.8033307757016,-10412,4674,5314,12589.46448424237
1735561161230,-17,244,920,951.9585074991452,-10355,4608,8714,14296.62495136527
1735561161260,-17,244,920,951.9585074991452,-10294,4339,12190,16534.492946564766
1735561161290,-17,244,920,951.9585074991452,-10472,4108,15475,19131.494269920477
1735561161320,-17,244,920,951.9585074991452,-10761,3981,-17348,20799.05252649745
1735561161350,-30,266,955,991.8069368581771,-11096,4305,-14400,18681.922840007664
1735561161380,-30,266,955,991.8069368581771,-11084,4687,-11200,16439.6783727663
1735561161410,-30,266,955,991.8069368581771,-10727,4989,-7691,14110.638929545325
1735561161440,-313,423,1009,1137.9714407664192,-10170,4940,-3826,11936.112264887592
1735561161470,-313,423,1009,1137.9714407664192,-9860,4648,77,10900.891385570265
1735561161500,-313,423,1009,1137.9714407664192,-9944,4330,3679,11452.819609161754
1735561161530,20,272,878,919.3845767686121,-10245,4178,7059,13124.221500721482
1735561161560,20,272,878,919.3845767686121,-10633,4232,9986,15188.505818545813
1735561161591,20,272,878,919.3845767686121,-10867,4396,12990,17497.33136795437
1735561161620,20,272,878,919.3845767686121,-10901,4608,16132,20007.670753988332
1735561161651,-40,338,1114,1164.83475222883,-10846,4712,-16581,20365.859201123825
1735561161680,-40,338,1114,1164.83475222883,-10714,4783,-13195,17657.14897711406
1735561161710,-40,338,1114,1164.83475222883,-10563,4797,-9773,15169.037774361299
1735561161740,-61,205,971,994.2771243471309,-10375,4835,-6355,13092.13026974602
1735561161770,-61,205,971,994.2771243471309,-10113,4814,-2911,11572.436476386465
1735561161799,-61,205,971,994.2771243471309,-9964,4714,466,11032.689971172034
1735561161829,20,293,949,993.4032413879069,-9968,4589,3730,11590.204700521903
1735561161861,20,293,949,993.4032413879069,-10225,4518,6795,13081.856672506392
1735561161890,20,293,949,993.4032413879069,-10456,4538,9851,15065.310517875163
1735561161920,20,293,949,993.4032413879069,-10597,4626,12953,17363.07847128498
1735561161950,80,215,934,961.7593254031905,-10521,4704,16189,19872.16087897841
1735561161980,80,215,934,961.7593254031905,-10402,4738,-16552,20115.142355946675
1735561162010,80,215,934,961.7593254031905,-10294,4727,-13288,17460.867933754038
1735561162041,31,280,1021,1059.1515472301403,-10285,4696,-10065,15137.30048588585
1735561162071,31,280,1021,1059.1515472301403,-10326,4686,-6836,13240.68608494288
1735561162100,31,280,1021,1059.1515472301403,-10362,4691,-3609,11933.206023529468
1735561162130,81,249,1000,1033.7127260511018,-10387,4707,-383,11410.18435433889
1735561162160,81,249,1000,1033.7127260511018,-10420,4724,2771,11771.619132472813
1735561162190,81,249,1000,1033.7127260511018,-10428,4747,5943,12907.224411158271
1735561162220,81,249,1000,1033.7127260511018,-10413,4769,9134,14649.364696122491
1735561162250,56,278,979,1019.2453090399779,-10338,4785,12423,16855.307710036028
1735561162280,56,278,979,1019.2453090399779,-10273,4777,15724,19380.362070921172
1735561162310,56,278,979,1019.2453090399779,-10238,4750,-16991,20397.873050884496
1735561162340,62,273,981,1020.163712352091,-10224,4720,-13734,17760.386594891454
1735561162370,62,273,981,1020.163712352091,-10237,4690,-10507,15400.951853700471
1735561162400,62,273,981,1020.163712352091,-10271,4671,-7299,13438.269345417959
1735561162430,25,290,920,964.9481851374197,-10297,4662,-4082,12017.702650673298
1735561162460,25,290,920,964.9481851374197,-10282,4655,-789,11314.197717911775
1735561162490,25,290,920,964.9481851374197,-10277,4646,2497,11551.495747304762
1735561162520,25,290,920,964.9481851374197,-10283,4636,5775,12672.14307053073
1735561162550,46,242,960,991.1003985469888,-10331,4640,8969,14446.526295272508
1735561162580,46,242,960,991.1003985469888,-10357,4653,12161,16637.54125464457
1735561162610,46,242,960,991.1003985469888,-10363,4672,15368,19115.30216868151
1735561162640,48,302,904,954.3186050790375,-10382,4695,-17413,20809.649636646936
1735561162670,48,302,904,954.3186050790375,-10408,4732,-14172,18208.895408563367
1735561162700,48,302,904,954.3186050790375,-10392,4771,-10899,15796.971418597934
1735561162730,29,312,969,1018.4036527821372,-10338,4794,-7593,13693.441094188121
1735561162760,29,312,969,1018.4036527821372,-10258,4789,-4247,12091.24038302109
1735561162790,29,312,969,1018.4036527821372,-10210,4761,-919,11302.910333184105
1735561162820,29,312,969,1018.4036527821372,-10204,4723,2377,11492.539928144692
1735561162851,13,340,903,964.9756473611135,-10219,4700,5700,12609.835883150898
1735561162880,13,340,903,964.9756473611135,-10249,4688,9016,14432.865308039149
1735561162910,13,340,903,964.9756473611135,-10279,4689,12328,16721.96597293512
1735561162940,-30,342,966,1025.1926648196425,-10307,4703,15631,19304.937684437107
1735561162970,-30,342,966,1025.1926648196425,-10299,4724,-17029,20454.154052416834
1735561162999,-30,342,966,1025.1926648196425,-10275,4737,-13677,17750.3555739033
1735561163030,56,288,861,909.6158529841045,-10253,4742,-10320,15300.750733215675
1735561163059,56,288,861,909.6158529841045,-10274,4738,-7075,13343.887926687634
1735561163090,56,288,861,909.6158529841045,-10293,4739,-3831,11961.627439441507
1735561163120,29,370,941,1011.5443638318588,-10291,4750,-570,11348.659876831272
1735561163150,29,370,941,1011.5443638318588,-10295,4775,2763,11679.975128398177
1735561163180,29,370,941,1011.5443638318588,-10275,4797,6117,12884.274251970888
1735561163210,29,370,941,1011.5443638318588,-10242,4807,9486,14764.4847184045
1735561163240,-31,310,952,1001.6810869732941,-10111,4801,12930,17101.66138128106
1735561163270,-31,310,952,1001.6810869732941,-10006,4744,16366,19760.352426006983
1735561163301,-31,310,952,1001.6810869732941,-9988,4667,-16260,19645.066378101143
1735561163331,-117,257,980,1019.871560540836,-10087,4433,-12964,17013.651988917605
1735561163360,-117,257,980,1019.871560540836,-10433,3966,-9831,14873.641316100104
1735561163391,-117,257,980,1019.871560540836,-10979,3690,-6884,13473.826368185097
1735561163420,-16,281,894,937.2582354932924,-11519,3761,-4017,12765.92225418908
1735561163450,-16,281,894,937.2582354932924,-11839,4224,-1150,12622.463982915539
1735561163480,-16,281,894,937.2582354932924,-11713,4730,2045,12796.456306337313
1735561163510,-16,281,894,937.2582354932924,-11148,5098,5656,13500.290515392622
1735561163540,81,382,908,988.4073047079327,-10599,5176,9359,15057.246029735983
1735561163570,81,382,908,988.4073047079327,-10229,5075,12986,17292.31800540344
1735561163600,81,382,908,988.4073047079327,-10100,4884,16445,19907.322296079903
1735561163630,4,270,941,978.9775278319722,-10128,4449,-16167,19589.33061643506
1735561163661,4,270,941,978.9775278319722,-10446,3974,-13010,17151.434109135014
1735561163690,4,270,941,978.9775278319722,-10980,3684,-10049,15333.448959708967
1735561163721,1,309,914,964.8201905018365,-11556,3624,-7189,14083.899779535497
1735561163750,1,309,914,964.8201905018365,-12067,3800,-4361,13381.73419254769
1735561163781,1,309,914,964.8201905018365,-12315,4127,-1396,13062.93114121023
1735561163810,1,309,914,964.8201905018365,-12241,4494,1798,13163.241280171082
1735561163840,-68,357,834,909.741171982449,-11904,4753,5224,13841.473946079586
1735561163870,-68,357,834,909.741171982449,-11426,4851,8847,15243.19802403682
1735561163900,-68,357,834,909.741171982449,-11033,4766,12462,17313.095881441885
1735561163930,-53,296,832,884.6745164183266,-10766,4822,15970,19854.453908380357
1735561163960,-53,296,832,884.6745164183266,-10415,4877,-16456,20076.286758262842
1735561163990,-53,296,832,884.6745164183266,-10142,4804,-12904,17101.222061595483
1735561164051,-52,279,875,919.8749915069982,-10085,4595,-9521,14610.636228446727
1735561164051,-52,279,875,919.8749915069982,-10340,4301,-6442,12919.503279925277
1735561164080,-52,279,875,919.8749915069982,-10726,4135,-3498,12015.877204765367
1735561164111,-52,279,875,919.8749915069982,-11106,4115,-594,11858.722401675486
1735561164139,8,349,878,944.8539569690122,-11367,4427,2374,12427.505542143203
1735561164170,8,349,878,944.8539569690122,-11333,4781,5563,13499.69699659959
1735561164200,8,349,878,944.8539569690122,-10982,5057,9041,15096.928628035572
1735561164230,-65,360,936,1004.948257374478,-10476,5203,12729,17287.140480715716
1735561164260,-65,360,936,1004.948257374478,-9961,5168,16526,19975.9460601995
1735561164291,-65,360,936,1004.948257374478,-9688,4980,-15826,19212.4964541311
1735561164320,-79,365,1096,1157.878231939784,-9680,4740,-12381,16415.21126882015
1735561164351,-79,365,1096,1157.878231939784,-9859,4515,-9081,14143.891508350875
1735561164380,-79,365,1096,1157.878231939784,-10154,4394,-5901,12539.248502202992
1735561164410,-79,365,1096,1157.878231939784,-10444,4391,-2752,11658.967407107715
1735561164440,-8,281,784,832.8751407023744,-10583,4465,413,11493.76713701822
1735561164470,-8,281,784,832.8751407023744,-10618,4562,3619,12109.951651431149
1735561164500,-8,281,784,832.8751407023744,-10560,4652,6901,13445.389730312767
1735561164530,3,386,938,1014.321941002954,-10480,4717,10241,15393.458675684293
1735561164560,3,386,938,1014.321941002954,-10423,4767,13620,17800.77576961184
1735561164590,3,386,938,1014.321941002954,-10340,4788,17029,20489.689724346732
1735561164620,-38,336,971,1028.193075253865,-10288,4726,-15574,19254.28513344497
1735561164651,-38,336,971,1028.193075253865,-10317,4559,-12256,16656.3653298071
1735561164680,-38,336,971,1028.193075253865,-10473,4435,-9051,14535.252147795716
1735561164710,-38,336,971,1028.193075253865,-10675,4384,-5903,12962.271791626652
1735561164740,-65,325,955,1010.8783309577865,-10757,4588,-2682,11998.163067736661
1735561164771,-65,325,955,1010.8783309577865,-10626,4777,715,11672.310396832325
1735561164801,-65,325,955,1010.8783309577865,-10365,4881,4247,12218.608554168515
1735561164830,-107,391,916,1001.6915692966573,-10082,4862,7852,13672.588343104608
1735561164860,-107,391,916,1001.6915692966573,-9924,4756,11425,15863.03681518769
1735561164890,-107,391,916,1001.6915692966573,-9921,4624,14881,18473.0013262599
1735561164920,0,327,889,947.2328119316813,-10050,4523,-17777,20916.0645916004
1735561164950,0,327,889,947.2328119316813,-10282,4483,-14648,18449.40966535244
1735561164980,0,327,889,947.2328119316813,-10471,4523,-11512,16205.724729243058
1735561165010,0,327,889,947.2328119316813,-10567,4614,-8321,14219.336341756602
1735561165040,-9,377,894,970.2814024807442,-10640,4745,-5083,12710.685032680181
1735561165070,-9,377,894,970.2814024807442,-10581,4879,-1724,11778.55585375389
1735561165098,-9,377,894,970.2814024807442,-10418,4965,1736,11670.460359386
1735561165130,82,325,887,948.2183292891991,-10237,4970,5192,12508.154660060773
1735561165160,82,325,887,948.2183292891991,-10144,4911,8531,14134.943155173989
1735561165190,82,325,887,948.2183292891991,-10138,4837,11806,16295.927374654073
1735561165220,-9,279,948,988.243897021378,-10171,4777,15054,18785.41684392444
1735561165250,-9,279,948,988.243897021378,-10084,4716,-17569,20798.97769122319
1735561165280,-9,279,948,988.243897021378,-10081,4642,-14254,18065.194186612
1735561165310,-9,279,948,988.243897021378,-10142,4582,-10994,15643.622470514942
1735561165340,-19,324,1020,1070.3910500373217,-10270,4564,-7795,13677.17152776845
1735561165370,-19,324,1020,1070.3910500373217,-10376,4595,-4583,12238.434948963042
1735561165400,-19,324,1020,1070.3910500373217,-10422,4653,-1331,11490.868287470708
1735561165430,-37,317,834,892.9804029204672,-10412,4707,1974,11595.786691725576
1735561165460,-37,317,834,892.9804029204672,-10355,4742,5332,12575.484602988467
1735561165490,-37,317,834,892.9804029204672,-10286,4751,8708,14289.963645859985
1735561165520,0,337,941,999.5248871338822,-10228,4722,12085,16521.395007686246
1735561165550,0,337,941,999.5248871338822,-10268,4656,15385,19073.761689818817
1735561165580,0,337,941,999.5248871338822,-10349,4617,-17356,20727.981715545775
1735561165610,0,337,941,999.5248871338822,-10436,4612,-14112,18147.429129218275
1735561165640,-9,321,958,1010.3890339864146,-10579,4371,-10954,15843.326607755078
1735561165670,-9,321,958,1010.3890339864146,-10850,4216,-7922,14080.31391695512
1735561165700,-9,321,958,1010.3890339864146,-11148,4171,-4942,12887.92105034788
1735561165730,-74,351,1091,1148.4589674864314,-11379,4291,-1931,12313.532515082745
1735561165760,-74,351,1091,1148.4589674864314,-11413,4505,1247,12333.15057071793
1735561165790,-74,351,1091,1148.4589674864314,-11255,4693,4588,13028.776535039658
1735561165820,-42,299,933,980.6395872082669,-10961,4820,8081,14445.708082333658
1735561165850,-42,299,933,980.6395872082669,-10579,4859,11666,16480.918603039092
1735561165880,-42,299,933,980.6395872082669,-10303,4762,15210,18978.212587069414
1735561165910,-42,299,933,980.6395872082669,-10218,4598,-17378,20677.137422767206
1735561165940,-57,269,885,926.7335107785841,-10235,4562,-14066,17983.865685663914
1735561165970,-57,269,885,926.7335107785841,-10266,4535,-10773,15556.815548176946
1735561166000,-57,269,885,926.7335107785841,-10310,4523,-7495,13525.111977355307
1735561166030,-69,371,996,1065.0906064743976,-10391,4492,-4229,12084.510167979503
1735561166060,-69,371,996,1065.0906064743976,-10526,4494,-970,11486.235762859824
1735561166090,-69,371,996,1065.0906064743976,-10613,4540,2312,11772.540634884213
1735561166120,-66,334,892,954.7648925259035,-10628,4608,5645,12886.196995234863
1735561166150,-66,334,892,954.7648925259035,-10541,4664,9036,14646.326262923409
1735561166180,-66,334,892,954.7648925259035,-10436,4678,12455,16909.192913915198
1735561166210,-66,334,892,954.7648925259035,-10355,4656,15866,19509.851793388898
1735561166240,-63,290,928,974.296156207136,-10306,4481,-16757,20176.472585662737
1735561166270,-63,290,928,974.296156207136,-10409,4321,-13515,17597.543777470764
1735561166300,-63,290,928,974.296156207136,-10600,4226,-10360,15412.614184491871
1735561166330,-28,319,850,908.3198775761764,-10818,4236,-7257,13698.06077516084
1735561166360,-28,319,850,908.3198775761764,-10985,4333,-4144,12514.70535010713
1735561166390,-28,319,850,908.3198775761764,-11022,4469,-943,11930.871468589376
1735561166420,-57,294,1004,1047.7122696618571,-10941,4592,2364,12098.778492062742
1735561166450,-57,294,1004,1047.7122696618571,-10744,4666,5802,13071.660032298882
1735561166480,-57,294,1004,1047.7122696618571,-10551,4657,9264,14793.003278577342
1735561166510,-57,294,1004,1047.7122696618571,-10435,4587,12685,17054.00301981913
1735561166540,-62,319,1024,1074.3281621553072,-10539,4386,15849,19531.98192708564
1735561166570,-62,319,1024,1074.3281621553072,-10767,4254,-17097,20647.813782577563
1735561166600,-62,319,1024,1074.3281621553072,-11018,4216,-14089,18375.823818267305
1735561166630,-99,250,865,905.828902166408,-11175,4461,-11027,16321.025549885031
1735561166660,-99,250,865,905.828902166408,-10973,4795,-7685,14228.772926714377
1735561166690,-99,250,865,905.828902166408,-10521,4990,-4087,12340.7904933193
1735561166720,-60,276,894,937.5563983035901,-10030,4979,-388,11204.547514290794
1735561166750,-60,276,894,937.5563983035901,-9787,4803,3154,11349.092210392864
1735561166780,-60,276,894,937.5563983035901,-9793,4592,6507,12622.613120903294
1735561166810,-60,276,894,937.5563983035901,-9970,4430,9713,14607.127335653646
1735561166840,-99,309,933,987.8112167818302,-10232,4378,12860,17007.066413699926
1735561166870,-99,309,933,987.8112167818302,-10445,4422,16028,19635.398977357196
1735561166900,-99,309,933,987.8112167818302,-10554,4526,-16742,20301.875676892516
1735561166930,-58,303,997,1043.6388264145792,-10587,4640,-13506,17777.12589256205
1735561166960,-58,303,997,1043.6388264145792,-10521,4742,-10196,15399.234429022763
1735561166990,-58,303,997,1043.6388264145792,-10386,4802,-6816,13318.635665863078
1735561167020,-5,271,995,1031.2569999762427,-10244,4804,-3408,11816.61609768211
1735561167050,-5,271,995,1031.2569999762427,-10173,4755,-88,11229.768385857296
1735561167080,-5,271,995,1031.2569999762427,-10171,4693,3181,11644.408572357808
1735561167110,-38,263,901,939.368937106183,-10202,4643,6431,12922.693759429572
1735561167140,-38,263,901,939.368937106183,-10198,4604,9737,14832.571894314216
1735561167170,-38,263,901,939.368937106183,-10229,4572,13014,17172.647466247014
1735561167200,-38,263,901,939.368937106183,-10276,4557,16272,19777.270008775224
1735561167230,21,326,846,906.8809183128731,-10380,4561,-16545,20057.022361257914
1735561167260,21,326,846,906.8809183128731,-10475,4606,-13366,17595.193008319064
1735561167290,21,326,846,906.8809183128731,-10502,4673,-10140,15328.030956388364
1735561167320,-16,279,899,941.4340125574389,-10461,4733,-6867,13378.695713708417
1735561167350,-16,279,899,941.4340125574389,-10310,4756,-3528,11889.592928271346
1735561167380,-16,279,899,941.4340125574389,-10192,4725,-198,11235.73286439296
1735561167410,-97,297,1091,1134.8563785783645,-10158,4667,3081,11595.620466365739
1735561167440,-97,297,1091,1134.8563785783645,-10157,4619,6400,12863.118206717996
1735561167470,-97,297,1091,1134.8563785783645,-10196,4581,9683,14788.660047482328
1735561167500,-97,297,1091,1134.8563785783645,-10253,4564,12947,17134.1446824754
1735561167530,-18,378,985,1055.19334721178,-10404,4566,16190,19778.970448433356
1735561167560,-18,378,985,1055.19334721178,-10538,4628,-16568,20173.40952838662
1735561167590,-18,378,985,1055.19334721178,-10575,4721,-13259,17604.532001731826
1735561167620,2,306,951,999.0200198194228,-10474,4822,-9854,15167.652290318367
1735561167650,2,306,951,999.0200198194228,-10278,4861,-6387,13040.719842094608
1735561167680,2,306,951,999.0200198194228,-10115,4829,-2924,11583.705883697152
1735561167710,-100,392,927,1011.4311642420358,-10043,4751,483,11120.572782010826
1735561167740,-100,392,927,1011.4311642420358,-10048,4675,3945,11763.543428746289
1735561167770,-100,392,927,1011.4311642420358,-10117,4619,7351,13331.393438046902
1735561167800,-100,392,927,1011.4311642420358,-10210,4598,10729,15507.97037010324
1735561167830,-49,367,879,953.7981966852317,-10307,4595,14015,17993.56826757828
1735561167860,-49,367,879,953.7981966852317,-10384,4622,17293,20693.91671482226
1735561167890,-49,367,879,953.7981966852317,-10411,4667,-15396,19162.63619651534
1735561167920,26,250,979,1010.7507111053645,-10369,4695,-12080,16597.758463117843
1735561167950,26,250,979,1010.7507111053645,-10305,4679,-8822,14349.695118712452
1735561167980,26,250,979,1010.7507111053645,-10277,4646,-5587,12586.366195212977
1735561168010,-44,351,908,974.4747303034594,-10280,4605,-2366,11510.099087323271
1735561168040,-44,351,908,974.4747303034594,-10330,4580,942,11338.988667425327
1735561168070,-44,351,908,974.4747303034594,-10383,4577,4241,12113.698815803536
1735561168099,-44,351,908,974.4747303034594,-10420,4592,7547,13660.895761259582
1735561168130,-30,310,899,951.4205169114233,-10405,4653,10901,15771.69093661171
1735561168189,-30,310,899,951.4205169114233,-10338,4692,14291,18251.624283882244
1735561168191,-30,310,899,951.4205169114233,-10259,4701,17701,20992.186236788202
1735561168221,-30,281,1101,1136.6890515879882,-10227,4674,-14944,18701.896721990528
1735561168250,-30,281,1101,1136.6890515879882,-10235,4635,-11644,16180.889530554246
1735561168280,-30,281,1101,1136.6890515879882,-10272,4607,-8372,14029.569380419343
1735561168310,-135,296,945,999.4328391642932,-10323,4602,-5117,12406.708749704734
1735561168340,-135,296,945,999.4328391642932,-10283,4624,-1734,11407.375728010365
1735561168370,-135,296,945,999.4328391642932,-10237,4629,1658,11356.618070534907
1735561168400,-135,296,945,999.4328391642932,-10204,4617,5047,12284.564054129069
1735561168430,-32,281,835,881.5951451771953,-10235,4592,8291,13949.278475964267
1735561168460,-32,281,835,881.5951451771953,-10301,4583,11480,16090.521744182193
1735561168490,-32,281,835,881.5951451771953,-10352,4596,14673,18536.020311814507
1735561168520,13,295,968,1012.0365606044082,-10375,4614,17907,21203.543807580845
1735561168550,13,295,968,1012.0365606044082,-10400,4635,-14858,18719.064853779422
1735561168580,13,295,968,1012.0365606044082,-10399,4661,-11605,16264.690190716821
1735561168610,-112,330,989,1048.6014495507814,-10369,4680,-8308,14086.923901263895
1735561168640,-112,330,989,1048.6014495507814,-10236,4687,-4796,12237.045435888518
1735561168670,-112,330,989,1048.6014495507814,-10145,4649,-1303,11235.303066673368
1735561168700,-112,330,989,1048.6014495507814,-10120,4589,2143,11316.614776513337
1735561168730,-20,284,909,952.5423875082935,-10208,4555,5416,12421.124949053528
1735561168760,-20,284,909,952.5423875082935,-10308,4554,8641,14200.727481365171
1735561168790,-20,284,909,952.5423875082935,-10375,4585,11881,16426.229360385783
1735561168820,-33,340,1062,1115.5863928894078,-10418,4632,15166,18973.605456001238
1735561168849,-33,340,1062,1115.5863928894078,-10429,4694,-17488,20895.64119619209
1735561168880,-33,340,1062,1115.5863928894078,-10382,4746,-14093,18136.236902952056
1735561168910,-85,345,981,1043.365228479462,-10289,4767,-10657,15561.473548478627
1735561168940,-85,345,981,1043.365228479462,-10146,4737,-7144,13282.214461451826
1735561168970,-85,345,981,1043.365228479462,-10082,4669,-3681,11704.53100299196
1735561168999,-85,345,981,1043.365228479462,-10101,4595,-282,11100.619352090225
1735561169029,50,311,852,908.363913858317,-10220,4550,2944,11567.974585034322
1735561169059,50,311,852,908.363913858317,-10363,4553,6105,12860.50554993854
1735561169089,50,311,852,908.363913858317,-10457,4601,9289,14724.251118477978
1735561169119,-84,276,910,954.6371038253227,-10475,4677,12515,16977.195852083463
1735561169149,-84,276,910,954.6371038253227,-10346,4739,15882,19538.059294617775
1735561169179,-84,276,910,954.6371038253227,-10207,4745,-16723,20158.288692247665
1735561169209,-44,318,906,961.1950894589505,-10106,4704,-13336,17381.247020855553
1735561169239,-44,318,906,961.1950894589505,-10132,4646,-10019,14987.431434371934
1735561169269,-44,318,906,961.1950894589505,-10199,4609,-6740,13064.841445650996
1735561169299,-44,318,906,961.1950894589505,-10273,4601,-3478,11781.350262172838
1735561169329,-12,317,976,1026.2597137177313,-10351,4618,-218,11336.518380878673
1735561169359,-12,317,976,1026.2597137177313,-10396,4658,3053,11793.836907469935
1735561169390,-12,317,976,1026.2597137177313,-10391,4704,6362,13060.457151263887
1735561169419,-38,261,1058,1090.380208917972,-10318,4745,9712,14943.195541784227
1735561169449,-38,261,1058,1090.380208917972,-10190,4743,13098,17259.482987621617
1735561169479,-38,261,1058,1090.380208917972,-10108,4702,16460,19879.941348002012
1735561169509,-56,272,871,914.1996499671175,-10094,4642,-16229,19667.675027821668
1735561169539,-56,272,871,914.1996499671175,-10133,4590,-12957,17077.167153834383
1735561169569,-56,272,871,914.1996499671175,-10201,4562,-9716,14807.866186591504
1735561169599,-56,272,871,914.1996499671175,-10271,4560,-6484,12974.178085720883
1735561169629,93,289,816,870.6468859417117,-10405,4563,-3339,11842.04015362218
1735561169659,93,289,816,870.6468859417117,-10536,4613,-231,11503.930893394658
1735561169689,93,289,816,870.6468859417117,-10584,4694,2931,11943.42718820691
1735561169719,19,339,824,891.2115349343275,-10537,4791,6215,13138.04684875191
1735561169749,19,339,824,891.2115349343275,-10394,4865,9649,14993.554014975902
1735561169779,19,339,824,891.2115349343275,-10234,4876,13119,17338.347470275246
1735561169809,-35,363,855,929.5262234063115,-10116,4830,16567,20003.195869660427
1735561169839,-35,363,855,929.5262234063115,-10051,4746,-15984,19468.830807215927
1735561169869,-35,363,855,929.5262234063115,-10084,4662,-12612,16807.255695085976
1735561169899,-35,363,855,929.5262234063115,-10177,4606,-9297,14533.436414007529
1735561169929,-13,328,787,852.7144891462792,-10285,4595,-6046,12784.731753149927
1735561169959,-13,328,787,852.7144891462792,-10365,4617,-2795,11685.971889406546
1735561169989,-13,328,787,852.7144891462792,-10399,4660,483,11405.616598851637
1735561170019,-38,331,969,1024.678486160415,-10384,4706,3801,12017.549375808698
1735561170049,-38,331,969,1024.678486160415,-10324,4739,7169,13432.708513177824
1735561170079,-38,331,969,1024.678486160415,-10256,4745,10553,15461.771243942267
1735561170109,-62,267,1006,1042.6739663001085,-10201,4726,13933,17903.183124796553
1735561170139,-62,267,1006,1042.6739663001085,-10107,4672,17319,20589.48260641826
1735561170169,-62,267,1006,1042.6739663001085,-10094,4599,-15353,18940.80901123286
1735561170199,-62,267,1006,1042.6739663001085,-10146,4538,-12080,16415.272157353957
1735561170229,25,289,938,981.8299241722061,-10284,4511,-8885,14319.671853782125
1735561170259,25,289,938,981.8299241722061,-10425,4539,-5721,12728.432228676083
1735561170290,25,289,938,981.8299241722061,-10497,4606,-2517,11736.163512835019
1735561170319,-62,232,868,900.6064623352422,-10444,4680,764,11470.101656044728
1735561170349,-62,232,868,900.6064623352422,-10271,4705,4152,12036.177549371727
1735561170379,-62,232,868,900.6064623352422,-10136,4669,7530,13462.501884865234
1735561170409,-69,355,981,1045.5367042815858,-10079,4595,10872,15520.974518373516
1735561170439,-69,355,981,1045.5367042815858,-10190,4541,14199,18057.363650322823
1735561170469,-69,355,981,1045.5367042815858,-10306,4535,17507,20815.256664283534
1735561170499,-69,355,981,1045.5367042815858,-10387,4569,-15169,18943.70848065394
1735561170529,-16,378,927,1001.233738944109,-10460,4630,-11866,16481.821986661547
1735561170559,-16,378,927,1001.233738944109,-10475,4706,-8527,14303.209080482604
1735561170589,-16,378,927,1001.233738944109,-10416,4771,-5126,12551.150266011478
1735561170619,-76,310,952,1004.0816699850665,-10278,4807,-1656,11466.772388078522
1735561170649,-76,310,952,1004.0816699850665,-10089,4775,1862,11316.164986425392
1735561170679,-76,310,952,1004.0816699850665,-9999,4689,5320,12258.430649964946
1735561170710,-52,321,871,929.7236148447558,-10033,4593,8677,14037.345439932722
1735561170740,-52,321,871,929.7236148447558,-10190,4537,11912,16319.197682484271
1735561170770,-52,321,871,929.7236148447558,-10340,4541,15132,18881.570512009854
1735561170800,-3,296,852,901.9584247624721,-10428,4594,-17620,20983.622661494846
1735561170830,-3,296,852,901.9584247624721,-10449,4657,-14384,18378.48486682186
1735561170860,-3,296,852,901.9584247624721,-10410,4713,-11098,15929.409059974572
1735561170891,-3,296,852,901.9584247624721,-10334,4746,-7774,13775.01898365298
1735561170921,-41,275,924,964.9259038910708,-10200,4740,-4336,12054.397371913703
1735561170950,-41,275,924,964.9259038910708,-10104,4689,-913,11176.363719922505
1735561170980,-41,275,924,964.9259038910708,-10087,4618,2453,11361.808922878434
1735561171010,-29,312,1041,1087.1366059516163,-10151,4563,5742,12523.351548207851
1735561171040,-29,312,1041,1087.1366059516163,-10297,4562,8949,14384.875877114824
1735561171070,-29,312,1041,1087.1366059516163,-10395,4607,12177,16660.126139978653
1735561171100,-84,315,998,1049.8976140557706,-10415,4673,15466,19222.546917617343
1735561171130,-84,315,998,1049.8976140557706,-10313,4727,-17101,20521.85905321445
1735561171160,-84,315,998,1049.8976140557706,-10198,4735,-13644,17679.880231494782
1735561171190,-84,315,998,1049.8976140557706,-10117,4704,-10201,15117.595906757133
1735561171220,-134,370,861,946.6662558684554,-10082,4653,-6743,12990.96539907639
1735561171250,-134,370,861,946.6662558684554,-10103,4605,-3309,11585.59946657919
1735561171280,-134,370,861,946.6662558684554,-10157,4575,92,11140.185725561312
1735561171310,-60,303,959,1007.5167492404282,-10237,4572,3431,11724.807631684198
1735561171340,-60,303,959,1007.5167492404282,-10309,4591,6708,13128.214882458315
1735561171370,-60,303,959,1007.5167492404282,-10340,4629,10010,15117.649982718875
1735561171400,-61,338,938,998.9038992816076,-10309,4667,13363,17510.743530758482
1735561171430,-61,338,938,998.9038992816076,-10250,4682,16775,20208.51921838906
1735561171460,-61,338,938,998.9038992816076,-10197,4675,-15810,19385.317485148393
1735561171490,-61,338,938,998.9038992816076,-10169,4653,-12411,16706.043547171783
1735561171519,-95,270,906,950.1373584908658,-10126,4612,-9071,14355.816277732172
1735561171550,-95,270,906,950.1373584908658,-10111,4556,-5760,12496.68183959246
1735561171580,-95,270,906,950.1373584908658,-10148,4507,-2491,11379.808170615179
1735561171610,-42,338,994,1050.7349808586368,-10262,4490,756,11226.766230754072
1735561171640,-42,338,994,1050.7349808586368,-10415,4534,3988,12038.83403822812
1735561171670,-42,338,994,1050.7349808586368,-10480,4618,7276,13568.216537187192
1735561171700,-73,370,924,998.0005010018782,-10458,4706,10629,15636.2348728842
1735561171730,-73,370,924,998.0005010018782,-10375,4775,14071,18122.75616455731
1735561171760,-73,370,924,998.0005010018782,-10258,4801,17556,20892.326366395868
1735561171790,-73,370,924,998.0005010018782,-10159,4784,-14959,18704.641616454457
1735561171820,-133,274,986,1031.9694762927827,-10011,4723,-11471,15940.849757776403
1735561171850,-133,274,986,1031.9694762927827,-9937,4615,-8040,13589.841573763839
1735561171880,-133,274,986,1031.9694762927827,-9983,4507,-4704,11920.61047094485
1735561171910,-56,332,937,995.6550607514632,-10144,4447,-1479,11174.25550092712
1735561171940,-56,332,937,995.6550607514632,-10365,4469,1668,11409.969763325405
1735561171970,-56,332,937,995.6550607514632,-10496,4558,4863,12433.428690429684
1735561172000,-28,270,920,959.2100916900322,-10510,4667,8149,14094.225413267663
1735561172030,-28,270,920,959.2100916900322,-10405,4737,11491,16209.450175746246
1735561172060,-28,270,920,959.2100916900322,-10275,4758,14871,18691.19659090878
1735561172090,-28,270,920,959.2100916900322,-10171,4733,-17754,21001.31057815202
1735561172120,-73,314,947,1000.3669326802041,-10123,4690,-14373,18194.8992302788
1735561172150,-73,314,947,1000.3669326802041,-10127,4643,-11013,15665.240087531374
1735561172180,-73,314,947,1000.3669326802041,-10169,4607,-7688,13555.012135737836
1735561172210,8,340,963,1021.2898707027305,-10239,4593,-4400,12053.745061183266
1735561172240,8,340,963,1021.2898707027305,-10345,4611,-1168,11386.15694604637
1735561172270,8,340,963,1021.2898707027305,-10400,4659,2094,11586.678428264073
1735561172300,-49,342,873,938.8791189498252,-10408,4716,5396,12636.61093806405
1735561172330,-49,342,873,938.8791189498252,-10333,4769,8806,14389.575601802855
1735561172360,-49,342,873,938.8791189498252,-10236,4787,12247,16663.735295545233
1735561172390,-49,342,873,938.8791189498252,-10158,4770,15684,19285.375806553526
1735561172420,-46,371,832,912.1299249558695,-10141,4729,-16913,20279.371070129368
1735561172450,-46,371,832,912.1299249558695,-10173,4695,-13546,17579.16579363196
1735561172480,-46,371,832,912.1299249558695,-10223,4679,-10198,15178.997793003331
1735561172510,-33,233,676,715.7890750772884,-10192,4668,-6855,13139.943416925356
1735561172540,-33,233,676,715.7890750772884,-10112,4615,-3548,11667.864971793255
1735561172570,-33,233,676,715.7890750772884,-10103,4548,-292,11083.328786966485
1735561172600,0,307,856,909.3871562761374,-10174,4496,2913,11498.254693648076
1735561172630,0,307,856,909.3871562761374,-10377,4510,6067,12838.641594810566
1735561172660,0,307,856,909.3871562761374,-10502,4586,9261,14733.958090072063
1735561172691,0,307,856,909.3871562761374,-10523,4687,12528,17019.173951752182
1735561172720,-24,329,979,1033.0817973423013,-10449,4773,15887,19605.098801077234
1735561172750,-24,329,979,1033.0817973423013,-10319,4819,-16683,20199.67848754034
1735561172780,-24,329,979,1033.0817973423013,-10194,4813,-13240,17389.082925789964
1735561172810,-68,411,922,1011.7455213639446,-10115,4766,-9789,14861.107024713872
1735561172840,-68,411,922,1011.7455213639446,-10114,4715,-6340,12834.321992220703
1735561172870,-68,411,922,1011.7455213639446,-10159,4675,-2931,11560.781418226019
1735561172900,-69,391,906,989.180468873097,-10230,4658,446,11249.390205695596
1735561172930,-69,391,906,989.180468873097,-10287,4666,3805,11919.393860427635
1735561172960,-69,391,906,989.180468873097,-10317,4689,7178,13414.577667597292
1735561172990,-69,391,906,989.180468873097,-10316,4718,10576,15509.066896496384
1735561173020,-72,396,944,1026.224147055603,-10283,4748,14014,18018.762138393413
1735561173050,-72,396,944,1026.224147055603,-10235,4762,17472,20801.506027208703
1735561173080,-72,396,944,1026.224147055603,-10191,4757,-15066,18800.794823623815
1735561173110,-128,368,974,1049.0395607411572,-10161,4743,-11633,16157.619224378324
1735561173140,-128,368,974,1049.0395607411572,-10118,4716,-8193,13847.015165731567
1735561173170,-128,368,974,1049.0395607411572,-10114,4681,-4782,12127.336104850066
1735561173200,-3,312,920,971.4695054400833,-10155,4653,-1415,11259.5141547049
1735561173230,-3,312,920,971.4695054400833,-10288,4644,1751,11422.595195488633
1735561173260,-3,312,920,971.4695054400833,-10387,4677,4931,12412.850558997317
1735561173291,-3,312,920,971.4695054400833,-10425,4733,8150,14053.626364750131
1735561173320,-94,332,864,930.3526213216148,-10301,4771,11577,16214.190420739482
1735561173351,-94,332,864,930.3526213216148,-10166,4759,15051,18775.735351777836
1735561173380,-94,332,864,930.3526213216148,-10091,4705,-17509,20749.22617834217
1735561173410,-70,331,815,882.4318670583016,-10067,4636,-14135,17962.049159269107
1735561173440,-70,331,815,882.4318670583016,-10111,4571,-10838,15510.918928290483
1735561173470,-70,331,815,882.4318670583016,-10194,4534,-7580,13488.187128002042
1735561173500,-5,289,897,942.4197578573998,-10285,4531,-4330,12044.089255730381
1735561173530,-5,289,897,942.4197578573998,-10379,4555,-1135,11391.219908332909
1735561173560,-5,289,897,942.4197578573998,-10422,4603,2089,11583.160794878055
1735561173590,-5,289,897,942.4197578573998,-10410,4656,5357,12599.360499644417
1735561173621,-14,358,909,977.0573166401242,-10380,4701,8701,14337.056950434424
1735561173650,-14,358,909,977.0573166401242,-10331,4735,12083,16587.606065975884
1735561173680,-14,358,909,977.0573166401242,-10269,4746,15483,19175.509536906706
1735561173710,-28,364,909,979.5718452466873,-10209,4733,-17105,20474.520629309005
1735561173740,-28,364,909,979.5718452466873,-10174,4703,-13698,17699.25673580673
1735561173770,-28,364,909,979.5718452466873,-10178,4668,-10322,15229.103453585178
1735561173800,-104,266,959,1000.6263038717301,-10219,4645,-6991,13224.147118056422
1735561173830,-104,266,959,1000.6263038717301,-10139,4621,-3622,11716.306841321628
1735561173860,-104,266,959,1000.6263038717301,-10108,4576,-286,11099.244839177123
1735561173890,-104,266,959,1000.6263038717301,-10125,4531,3012,11494.247691780442
1735561173921,-38,312,977,1026.3123306284497,-10258,4515,6233,12824.276899693019
1735561173950,-38,312,977,1026.3123306284497,-10386,4552,9440,14754.772109388881
1735561173980,-38,312,977,1026.3123306284497,-10441,4622,12692,17072.323479831328
1735561174010,-77,332,943,1002.6973621188,-10385,4704,16058,19693.532060044487
1735561174040,-77,332,943,1002.6973621188,-10249,4752,-16467,19969.616771485627
1735561174070,-77,332,943,1002.6973621188,-10119,4744,-12979,17127.5841261983
1735561174100,-31,309,963,1011.8354609322605,-10035,4697,-9518,14606.688810267713
1735561174130,-31,309,963,1011.8354609322605,-10028,4631,-6162,12648.208924586912
1735561174160,-31,309,963,1011.8354609322605,-10080,4577,-2856,11432.937723962288
1735561174190,-31,309,963,1011.8354609322605,-10160,4552,420,11141.036935581895
1735561174220,-171,340,1013,1082.132154591111,-10172,4574,3785,11777.8302331117
1735561174251,-171,340,1013,1082.132154591111,-10132,4592,7224,13263.863087351287
1735561174280,-171,340,1013,1082.132154591111,-10090,4593,10671,15387.462103933838
1735561174310,-98,293,953,1001.8293267817628,-10075,4579,14104,17927.511874211657
1735561174340,-98,293,953,1001.8293267817628,-10095,4562,17477,20692.18205023337
1735561174370,-98,293,953,1001.8293267817628,-10122,4555,-15159,18788.246059704456
1735561174400,-75,322,967,1021.9579247698997,-10157,4562,-11806,16228.312574017053
1735561174430,-75,322,967,1021.9579247698997,-10232,4596,-8484,14063.971558560548
1735561174460,-75,322,967,1021.9579247698997,-10251,4646,-5126,12367.060806836846
1735561174490,-75,322,967,1021.9579247698997,-10220,4693,-1725,11377.533739787372
1735561174520,-125,294,899,954.0765168475745,-10101,4709,1730,11278.199413026887
1735561174550,-125,294,899,954.0765168475745,-9992,4676,5194,12193.550590373585
1735561174580,-125,294,899,954.0765168475745,-9951,4616,8614,13947.431770759806
1735561174610,-64,340,874,939.9851062649876,-10025,4550,11949,16247.514456063733
1735561174640,-64,340,874,939.9851062649876,-10188,4534,15201,18852.66296839786
1735561174670,-64,340,874,939.9851062649876,-10310,4573,-17532,20846.569334065498
1735561174700,-35,260,905,942.2579264723646,-10370,4640,-14232,18210.33563666524
1735561174730,-35,260,905,942.2579264723646,-10342,4696,-10939,15769.308830763635
1735561174760,-35,260,905,942.2579264723646,-10275,4731,-7608,13632.301713210429
1735561174790,-70,276,974,1014.7669683232698,-10194,4733,-4258,12018.714115911069
1735561174820,-70,276,974,1014.7669683232698,-10112,4698,-875,11184.336055394617
1735561174850,-70,276,974,1014.7669683232698,-10089,4646,2468,11378.236286876801
1735561174880,-70,276,974,1014.7669683232698,-10119,4598,5768,12522.203839580316
1735561174910,-12,249,948,980.2290548642189,-10193,4568,9004,14346.981877733031
1735561174940,-12,249,948,980.2290548642189,-10277,4568,12207,16598.018014208807
1735561174970,-12,249,948,980.2290548642189,-10333,4594,15422,19123.645285352894
1735561175000,-114,307,899,956.7894230184612,-10340,4628,-17324,20699.15360588447
1735561175030,-114,307,899,956.7894230184612,-10262,4656,-13901,17894.825537009296
1735561175060,-114,307,899,956.7894230184612,-10186,4653,-10470,15330.554621408843
1735561175090,-76,264,998,1035.1212489365678,-10142,4627,-7075,13203.216199093311
1735561175120,-76,264,998,1035.1212489365678,-10139,4590,-3791,11757.512577071733
1735561175151,-76,264,998,1035.1212489365678,-10168,4559,-535,11156.116259702567
1735561175181,-76,264,998,1035.1212489365678,-10214,4543,2702,11500.671676037013
1735561175210,-77,254,906,944.076797723575,-10236,4546,5979,12696.072345414546
1735561175240,-77,254,906,944.076797723575,-10246,4554,9262,14543.179707340483
1735561175270,-77,254,906,944.076797723575,-10245,4564,12552,16832.79017275508
1735561175300,-96,220,982,1010.9104807053886,-10210,4578,15867,19415.5574990779
1735561175330,-96,220,982,1010.9104807053886,-10144,4571,-16796,20146.969821787097
1735561175360,-96,220,982,1010.9104807053886,-10105,4545,-13475,17445.448546827334
1735561175390,-75,251,981,1015.37530007382,-10102,4513,-10173,15030.219625807202
1735561175420,-75,251,981,1015.37530007382,-10163,4497,-6901,13081.795710069777
1735561175450,-75,251,981,1015.37530007382,-10216,4505,-3630,11740.467665301923
1735561175480,-75,251,981,1015.37530007382,-10244,4528,-345,11205.415878047543
1735561175510,-72,310,1020,1068.49613944085,-10302,4571,2948,11649.71883780892
1735561175540,-72,310,1020,1068.49613944085,-10316,4630,6284,12936.205471466506
1735561175570,-72,310,1020,1068.49613944085,-10274,4682,9668,14864.266682214768
1735561175600,-63,283,981,1022.9462351463052,-10191,4703,13088,17241.532240494173
1735561175630,-63,283,981,1022.9462351463052,-10110,4687,16506,19915.52422106935
1735561175660,-63,283,981,1022.9462351463052,-10072,4649,-16103,19554.155415154088
1735561175689,-70,303,909,960.7236855620871,-10090,4604,-12770,16913.835047084976
1735561175720,-70,303,909,960.7236855620871,-10168,4576,-9502,14649.77829183773
1735561175750,-70,303,909,960.7236855620871,-10242,4578,-6241,12837.70731088694
1735561175780,-70,303,909,960.7236855620871,-10290,4604,-2967,11656.929484216673
1735561175810,-90,221,966,995.0361802467285,-10231,4630,394,11236.792113410304
1735561175868,-90,221,966,995.0361802467285,-10149,4622,3770,11771.915094834825
1735561175869,-90,221,966,995.0361802467285,-10103,4589,7126,13187.471554471691
1735561175900,-111,246,1034,1068.640725407749,-10101,4549,10424,15211.291135206111
1735561175930,-111,246,1034,1068.640725407749,-10133,4518,13694,17624.29144675042
1735561175960,-111,246,1034,1068.640725407749,-10180,4504,16948,20276.91100735021
1735561175990,-156,247,1045,1085.066818219044,-10230,4510,-15798,19353.805930617367
1735561176020,-156,247,1045,1085.066818219044,-10231,4537,-12471,16756.597834882832
1735561176051,-156,247,1045,1085.066818219044,-10210,4558,-9125,14432.085400246217
1735561176079,-156,247,1045,1085.066818219044,-10177,4568,-5766,12557.257224410114
1735561176110,-119,203,958,986.4755445524232,-10123,4543,-2422,11356.93893617466
1735561176140,-119,203,958,986.4755445524232,-10110,4503,877,11102.172670247928
1735561176170,-119,203,958,986.4755445524232,-10135,4467,4147,11826.661532317563
1735561176200,-59,285,958,1001.234238327875,-10211,4444,7403,13372.28723891317
1735561176230,-59,285,958,1001.234238327875,-10342,4467,10630,15488.962295776952
1735561176260,-59,285,958,1001.234238327875,-10412,4528,13893,17942.351490259018
1735561176290,-79,252,963,998.555957370442,-10411,4598,17193,20618.67536967397
1735561176320,-79,252,963,998.555957370442,-10319,4648,-15465,19163.817208479108
1735561176351,-79,252,963,998.555957370442,-10216,4656,-12101,16506.943781330327
1735561176380,-79,252,963,998.555957370442,-10141,4630,-8748,14170.542861866656
1735561176410,-83,229,1066,1093.4742795329023,-10110,4583,-5415,12350.636177946462
1735561176440,-83,229,1066,1093.4742795329023,-10123,4534,-2121,11292.95913390286
1735561176470,-83,229,1066,1093.4742795329023,-10173,4499,1139,11181.603239249727
1735561176499,-13,231,992,1018.623581113259,-10252,4483,4355,12006.948738126603
1735561176530,-13,231,992,1018.623581113259,-10356,4496,7517,13563.408163142478
1735561176560,-13,231,992,1018.623581113259,-10415,4540,10704,15609.594517475462
1735561176590,-16,210,954,976.9708286330764,-10430,4597,13914,17986.570128848914
1735561176620,-16,210,954,976.9708286330764,-10394,4653,17141,20579.104110723576
1735561176650,-16,210,954,976.9708286330764,-10322,4686,-15594,19278.87745694754
1735561176680,-16,210,954,976.9708286330764,-10246,4690,-12318,16694.60212164399
1735561176710,-51,193,1026,1045.2396854310498,-10176,4672,-9037,14389.090624497436
1735561176740,-51,193,1026,1045.2396854310498,-10132,4631,-5768,12544.855878008324
1735561176770,-51,193,1026,1045.2396854310498,-10137,4586,-2536,11411.461825725923
1735561176800,4,244,971,1001.1957850490583,-10189,4547,677,11178.070450663656
1735561176830,4,244,971,1001.1957850490583,-10300,4540,3847,11895.4196647281
1735561176860,4,244,971,1001.1957850490583,-10380,4570,7030,13343.545256040465
1735561176890,-14,248,896,929.7935254668103,-10401,4619,10246,15313.277833305317
1735561176920,-14,248,896,929.7935254668103,-10348,4660,13524,17654.893939075362
1735561176950,-14,248,896,929.7935254668103,-10276,4676,16824,20261.00017274567
1735561176980,-14,248,896,929.7935254668103,-10215,4666,-15874,19444.83625541753
1735561177010,-37,261,963,998.4282648242687,-10191,4644,-12574,16838.310277459554
1735561177040,-37,261,963,998.4282648242687,-10191,4619,-9286,14540.338304179859
1735561177070,-37,261,963,998.4282648242687,-10212,4599,-6016,12713.300161641744
1735561177100,-83,305,1070,1115.7123285148373,-10249,4589,-2731,11556.785149858935
1735561177130,-83,305,1070,1115.7123285148373,-10280,4599,596,11277.606882667971
1735561177160,-83,305,1070,1115.7123285148373,-10292,4616,3935,11946.419756563051
1735561177190,-68,278,1002,1042.071014854554,-10285,4636,7282,13427.629910002734
1735561177220,-68,278,1002,1042.071014854554,-10254,4649,10611,15470.974048197482
1735561177251,-68,278,1002,1042.071014854554,-10222,4648,13943,17902.525994953896
1735561177280,-68,278,1002,1042.071014854554,-10203,4638,17270,20587.98564697382
1735561177310,-41,235,1000,1028.0593368089217,-10177,4607,-15403,19027.563874547894
1735561177340,-41,235,1000,1028.0593368089217,-10185,4571,-12117,16475.73837495607
1735561177370,-41,235,1000,1028.0593368089217,-10220,4545,-8856,14266.53990987303
1735561177400,-58,297,954,1000.8441437106978,-10270,4540,-5605,12549.921314494366
1735561177431,-58,297,954,1000.8441437106978,-10323,4562,-2334,11524.917743741167
1735561177460,-58,297,954,1000.8441437106978,-10339,4597,960,11355.568237653279
1735561177490,-19,259,876,913.683752728481,-10320,4630,4278,12092.997312494534
1735561177520,-19,259,876,913.683752728481,-10286,4642,7558,13582.095714579544
1735561177550,-19,259,876,913.683752728481,-10253,4640,10840,15625.594676683508
1735561177580,-19,259,876,913.683752728481,-10233,4629,14116,18038.940822564942
1735561177610,6,246,906,938.8226669611253,-10260,4615,17359,20685.760948053132
1735561177640,6,246,906,938.8226669611253,-10294,4613,-15414,19100.722525600962
1735561177670,6,246,906,938.8226669611253,-10318,4621,-12184,16621.209974006106
1735561177700,-134,307,1072,1123.1157553876626,-10288,4642,-8852,14343.953848224694
1735561177730,-134,307,1072,1123.1157553876626,-10193,4651,-5375,12426.571329212255
1735561177760,-134,307,1072,1123.1157553876626,-10125,4627,-1907,11294.308433897137
1735561177790,-81,250,958,993.390658301154,-10103,4585,1514,11197.545713235557
1735561177820,-81,250,958,993.390658301154,-10128,4536,4803,12092.16643120661
1735561177851,-81,250,958,993.390658301154,-10187,4504,8059,13748.034986862667
1735561177880,-81,250,958,993.390658301154,-10251,4497,11303,15907.979727168375
1735561177910,-31,286,863,909.6845607132178,-10366,4527,14508,18396.460230163844
1735561177940,-31,286,863,909.6845607132178,-10439,4594,17734,21084.883518767656
1735561177970,-31,286,863,909.6845607132178,-10431,4670,-14980,18841.843354618995
1735561178000,0,239,990,1018.4404744510108,-10338,4718,-11632,16261.5248977456
1735561178030,0,239,990,1018.4404744510108,-10225,4714,-8281,13976.672780028872
1735561178060,0,239,990,1018.4404744510108,-10155,4675,-4954,12227.909306173317
1735561178090,-68,276,944,985.8681453419621,-10144,4627,-1672,11274.10524165887
1735561178120,-68,276,944,985.8681453419621,-10147,4598,1651,11261.838837419047
1735561178150,-68,276,944,985.8681453419621,-10173,4576,4954,12205.401304340632
1735561178180,-68,276,944,985.8681453419621,-10208,4567,8246,13894.504992981938
1735561178210,-26,188,943,961.9090393587119,-10220,4565,11488,16039.381814770792
1735561178240,-26,188,943,961.9090393587119,-10222,4559,14709,18483.193609330614
1735561178270,-26,188,943,961.9090393587119,-10229,4555,17926,21135.797642861744
1735561178300,-36,257,971,1005.0800963107368,-10264,4555,-14859,18624.918845460776
1735561178330,-36,257,971,1005.0800963107368,-10318,4579,-11629,16206.85058856285
1735561178360,-36,257,971,1005.0800963107368,-10334,4615,-8374,14078.837203405685
1735561178390,-121,326,943,1005.0701468056844,-10314,4653,-5090,12407.139275433317
1735561178420,-121,326,943,1005.0701468056844,-10243,4695,-1669,11390.681937443429
1735561178450,-121,326,943,1005.0701468056844,-10159,4705,1771,11334.84658034682
1735561178480,-121,326,943,1005.0701468056844,-10093,4680,5205,12282.633023908187
1735561178510,-69,278,962,1003.7375154889849,-10076,4623,8556,14003.67955217485
1735561178540,-69,278,962,1003.7375154889849,-10118,4570,11840,16230.97113545582
1735561178570,-69,278,962,1003.7375154889849,-10189,4542,15092,18767.363933168665
1735561178600,-103,283,886,935.7852317706238,-10249,4552,-17621,20886.8941204766
1735561178630,-103,283,886,935.7852317706238,-10264,4579,-14292,18181.809618407075
1735561178660,-103,283,886,935.7852317706238,-10251,4605,-10940,15683.514465833225
1735561178691,-66,208,914,939.6893103574181,-10221,4621,-7565,13529.660269201146
1735561178721,-66,208,914,939.6893103574181,-10161,4614,-4219,11930.418182109124
1735561178751,-66,208,914,939.6893103574181,-10130,4588,-889,11156.028191072304
1735561178781,-36,221,954,979.9249971298824,-10129,4557,2402,11363.647917812308
1735561178810,-36,221,954,979.9249971298824,-10187,4534,5609,12481.70685443301
1735561178840,-36,221,954,979.9249971298824,-10245,4533,8809,14251.547108998377
1735561178870,-36,221,954,979.9249971298824,-10284,4552,12017,16458.725618953613
1735561178900,-56,298,833,886.4699656502752,-10334,4590,15264,18996.03516526541
1735561178930,-56,298,833,886.4699656502752,-10345,4644,-17440,20802.38834845653
1735561178960,-56,298,833,886.4699656502752,-10306,4690,-14103,18086.02623574344
1735561178990,-32,347,928,991.2703970158698,-10235,4712,-10723,15554.449459881247
1735561179020,-32,347,928,991.2703970158698,-10221,4715,-7338,13436.75221175117
1735561179050,-32,347,928,991.2703970158698,-10209,4713,-3953,11918.98733114521
1735561179080,-121,337,1032,1092.3525072063505,-10199,4709,-576,11248.380238949961
1735561179110,-121,337,1032,1092.3525072063505,-10106,4695,2895,11513.265653149849
1735561179140,-121,337,1032,1092.3525072063505,-10058,4654,6340,12767.876879105625
1735561179170,-121,337,1032,1092.3525072063505,-10063,4607,9745,14746.302689148897
1735561179200,-64,259,1023,1057.2161557600225,-10098,4555,13059,17124.692989948755
1735561179230,-64,259,1023,1057.2161557600225,-10163,4520,16317,19747.44180900402
1735561179260,-64,259,1023,1057.2161557600225,-10235,4512,-16439,19883.513019584843
1735561179290,-65,303,920,970.7903996229052,-10297,4533,-13170,17321.235464019304
1735561179320,-65,303,920,970.7903996229052,-10337,4579,-9864,15003.976339624107
1735561179350,-65,303,920,970.7903996229052,-10325,4628,-6517,13057.384807073735
1735561179380,19,205,1036,1056.2584910901307,-10281,4663,-3141,11717.8671694127
1735561179410,19,205,1036,1056.2584910901307,-10229,4665,135,11243.348744924708
1735561179440,19,205,1036,1056.2584910901307,-10195,4649,3404,11710.612366567344
1735561179470,19,205,1036,1056.2584910901307,-10186,4626,6655,13017.046400777712
1735561179499,-52,317,857,915.2278404856356,-10237,4617,9887,14962.13978680857
1735561179530,-52,317,857,915.2278404856356,-10282,4634,13155,17327.65145655925
1735561179560,-52,317,857,915.2278404856356,-10298,4662,16442,19953.005086953694
1735561179591,-25,300,907,955.6537029698571,-10289,4691,-16226,19777.56501695798
1735561179620,-25,300,907,955.6537029698571,-10264,4710,-12880,17129.74594090642
1735561179650,-25,300,907,955.6537029698571,-10231,4718,-9523,14751.963055810573
1735561179681,-57,363,980,1046.622185891356,-10204,4715,-6164,12819.818134435449
1735561179710,-57,363,980,1046.622185891356,-10211,4717,-2764,11582.499989207856
1735561179740,-57,363,980,1046.622185891356,-10213,4721,638,11269.438939006679
1735561179770,-57,363,980,1046.622185891356,-10211,4725,4045,11956.260744898465
1735561179800,-62,300,1022,1066.9245521591488,-10172,4712,7404,13434.721582526376
1735561179830,-62,300,1022,1066.9245521591488,-10145,4681,10743,15499.833386201286
1735561179860,-62,300,1022,1066.9245521591488,-10155,4648,14054,17951.12378097817
1735561179890,-154,250,930,975.251762367031,-10139,4619,17402,20663.109301361208
1735561179920,-154,250,930,975.251762367031,-10081,4574,-15193,18798.27880418843
1735561179950,-154,250,930,975.251762367031,-10082,4520,-11833,16189.41052046059
1735561179980,-14,358,838,911.3747856946669,-10120,4477,-8510,13959.87209826795
1735561180010,-14,358,838,911.3747856946669,-10359,4480,-5368,12497.788004282998
1735561180040,-14,358,838,911.3747856946669,-10518,4558,-2188,11670.091344972412
1735561180070,-14,358,838,911.3747856946669,-10561,4671,1069,11597.229108713856
1735561180101,-44,281,1003,1042.5478406289085,-10418,4765,4440,12286.315517680636
1735561180130,-44,281,1003,1042.5478406289085,-10216,4782,7871,13754.52002070592
1735561180160,-44,281,1003,1042.5478406289085,-10071,4731,11279,15843.713043349402
1735561180191,-61,333,920,980.311175086768,-10036,4648,14641,18348.953130900954
1735561180220,-61,333,920,980.311175086768,-10099,4583,17962,21109.882377692207
1735561180250,-61,333,920,980.311175086768,-10195,4552,-14754,18502.411869807678
1735561180281,-46,291,948,992.7240301312344,-10274,4557,-11471,16059.42607940894
1735561180311,-46,291,948,992.7240301312344,-10288,4573,-8182,13917.62900065956
1735561180340,-46,291,948,992.7240301312344,-10284,4591,-4879,12273.653816203225
1735561180370,-46,291,948,992.7240301312344,-10266,4603,-1565,11359.03120869029
1735561180400,-84,360,880,954.4925353296379,-10298,4629,1758,11426.592186649526
1735561180430,-84,360,880,954.4925353296379,-10299,4667,5126,12414.755978270374
1735561180460,-84,360,880,954.4925353296379,-10268,4696,8523,14146.581530532385
1735561180490,26,307,1018,1063.6018992085337,-10247,4699,11884,16380.203478589636
1735561180520,26,307,1018,1063.6018992085337,-10273,4689,15146,18892.39439562916
1735561180550,26,307,1018,1063.6018992085337,-10298,4690,-17594,20918.741357930692
1735561180580,-84,314,980,1032.4979418865687,-10307,4698,-14318,18256.79536501409
1735561180610,-84,314,980,1032.4979418865687,-10200,4700,-10874,15632.462250074363
1735561180640,-84,314,980,1032.4979418865687,-10129,4668,-7446,13410.062676960164
1735561180670,-84,314,980,1032.4979418865687,-10112,4620,-4056,11834.191142617226
1735561180700,-85,337,982,1041.689973072603,-10141,4586,-685,11150.807235352964
1735561180730,-85,337,982,1041.689973072603,-10193,4572,2666,11485.120330235988
1735561180760,-85,337,982,1041.689973072603,-10240,4578,6016,12728.23397019398
1735561180790,-73,318,949,1003.5208019767203,-10273,4595,9374,14646.515967969994
1735561180820,-73,318,949,1003.5208019767203,-10281,4617,12740,17009.50469590458
1735561180850,-73,318,949,1003.5208019767203,-10268,4637,16124,19670.205108234128
1735561180880,-40,283,921,964.3287821070156,-10254,4651,-16498,19973.991113445503
1735561180910,-40,283,921,964.3287821070156,-10254,4660,-13189,17343.870300483683
1735561180940,-40,283,921,964.3287821070156,-10246,4667,-9873,14974.562898462178
1735561180970,-40,283,921,964.3287821070156,-10235,4670,-6554,13019.947810955311
1735561181000,-47,308,956,1005.4894330623271,-10229,4660,-3210,11689.830666010523
1735561181031,-47,308,956,1005.4894330623271,-10237,4653,129,11245.586645435622
1735561181060,-47,308,956,1005.4894330623271,-10247,4651,3466,11774.802163943137
1735561181090,9,261,960,994.8879333874745,-10264,4658,6761,13143.735427951979
1735561181120,9,261,960,994.8879333874745,-10280,4668,10007,15086.705173761433
1735561181150,9,261,960,994.8879333874745,-10281,4681,13263,17421.764864674304
1735561181180,-34,304,836,890.2067175662066,-10273,4689,16525,20014.916312590467
1735561181210,-34,304,836,890.2067175662066,-10264,4694,-16163,19713.59685597735
1735561181241,-34,304,836,890.2067175662066,-10252,4695,-12849,17095.125913546235
1735561181270,-34,304,836,890.2067175662066,-10244,4693,-9536,14761.405116045016
1735561181301,-117,333,931,995.6600825582996,-10178,4692,-6116,12767.615439070836
1735561181329,-117,333,931,995.6600825582996,-10120,4669,-2674,11461.423864424525
1735561181360,-117,333,931,995.6600825582996,-10103,4632,739,11138.768064736782
1735561181390,-128,291,961,1012.2183558896766,-10106,4600,4123,11844.423371359198
1735561181420,-128,291,961,1012.2183558896766,-10110,4567,7486,13383.190389440031
1735561181450,-128,291,961,1012.2183558896766,-10141,4543,10826,15513.897189294506
1735561181480,-22,309,923,973.5984798673425,-10190,4534,14141,18010.028789538344
1735561181510,-22,309,923,973.5984798673425,-10348,4553,17311,20675.62898680473
1735561181540,-22,309,923,973.5984798673425,-10440,4617,-15482,19235.451983252173
1735561181570,-22,309,923,973.5984798673425,-10446,4698,-12215,16745.039414704283
1735561181600,-116,328,940,1002.3173150255362,-10298,4755,-8759,14331.047065724124
1735561181630,-116,328,940,1002.3173150255362,-10128,4749,-5243,12353.883357066312
1735561181660,-116,328,940,1002.3173150255362,-10026,4688,-1765,11207.731483221749
1735561181690,0,324,882,939.6275858019495,-10046,4615,1619,11173.249393081674
1735561181720,0,324,882,939.6275858019495,-10177,4576,4873,12176.092723037222
1735561181751,0,324,882,939.6275858019495,-10296,4586,8119,13890.902526473938
1735561181780,-85,319,945,1001.0049949925325,-10372,4635,11383,16082.111117636266
1735561181810,-85,319,945,1001.0049949925325,-10311,4701,14782,18625.88644870359
1735561181840,-85,319,945,1001.0049949925325,-10212,4733,-17775,21038.93671267633
1735561181870,-85,319,945,1001.0049949925325,-10119,4726,-14326,18164.89782520122
1735561181900,-103,376,943,1020.4087416324892,-10101,4692,-10892,15578.213280090884
1735561181930,-103,376,943,1020.4087416324892,-10126,4666,-7477,13424.342106784972
1735561181960,-103,376,943,1020.4087416324892,-10165,4654,-4077,11899.952520913686
1735561181990,-64,307,814,872.3193222667946,-10146,4649,-669,11180.432818097875
1735561182021,-64,307,814,872.3193222667946,-10109,4621,2707,11439.989991254362
1735561182050,-64,307,814,872.3193222667946,-10109,4587,6056,12645.457128945556
1735561182080,-54,302,875,927.224352570617,-10143,4561,9386,14552.668689968861
1735561182109,-54,302,875,927.224352570617,-10199,4554,12703,16915.221724825245
1735561182140,-54,302,875,927.224352570617,-10242,4567,16023,19557.417569812227
1735561182170,-54,302,875,927.224352570617,-10259,4591,-16639,20079.359626243066
1735561182200,-14,290,852,900.1111042532472,-10280,4613,-13341,17462.544201805187
1735561182229,-14,290,852,900.1111042532472,-10283,4638,-10040,15101.41493370737
1735561182260,-14,290,852,900.1111042532472,-10264,4658,-6720,13122.692559074909
1735561182290,-80,311,936,989.5539399143435,-10201,4668,-3331,11702.400864779842
1735561182321,-80,311,936,989.5539399143435,-10116,4652,122,11135.054737180235
1735561182350,-80,311,936,989.5539399143435,-10076,4611,3547,11634.788610026399
1735561182380,-103,271,946,989.4271069664505,-10097,4571,6910,13061.070017422004
1735561182410,-103,271,946,989.4271069664505,-10116,4547,10226,15085.746285815627
1735561182440,-103,271,946,989.4271069664505,-10148,4534,13527,17507.678001379853
1735561182470,-116,292,946,996.8129212645671,-10193,4535,16807,20172.72225060366
1735561182500,-116,292,946,996.8129212645671,-10249,4558,-15919,19473.878042136344
1735561182530,-116,292,946,996.8129212645671,-10267,4595,-12620,16905.316146112145
1735561182560,-116,292,946,996.8129212645671,-10247,4629,-9291,14585.997771835837
1735561182590,3,293,894,940.7943452211009,-10285,4646,-6027,12794.188915284938
1735561182620,3,293,894,940.7943452211009,-10327,4676,-2792,11675.066124009749
1735561182650,3,293,894,940.7943452211009,-10330,4713,471,11364.115011737606
1735561182680,-49,252,961,994.6989494314348,-10287,4745,3791,11946.090364633947
1735561182709,-49,252,961,994.6989494314348,-10131,4745,7247,13329.335879930402
1735561182740,-49,252,961,994.6989494314348,-10032,4694,10674,15382.097906332543
1735561182770,-11,313,916,968.06301447788,-10008,4620,14040,17850.099831653602
1735561182800,-11,313,916,968.06301447788,-10126,4561,17294,20552.883812253694
1735561182830,-11,313,916,968.06301447788,-10252,4552,-15473,19111.19925593368
1735561182860,-11,313,916,968.06301447788,-10343,4585,-12227,16658.313329986322
1735561182890,-71,272,917,959.121473015801,-10315,4641,-8906,14396.351690619398
1735561182920,-71,272,917,959.121473015801,-10225,4669,-5525,12525.0074251475
1735561182951,-71,272,917,959.121473015801,-10141,4661,-2139,11363.983588513316
1735561182980,-116,283,935,983.7530177844437,-10086,4626,1230,11164.236292734044
1735561183010,-116,283,935,983.7530177844437,-10062,4578,4592,11970.312944948431
1735561183040,-116,283,935,983.7530177844437,-10087,4533,7915,13599.370683969166
1735561183070,-97,274,972,1014.5289547371233,-10148,4507,11200,15771.333266404588
1735561183101,-97,274,972,1014.5289547371233,-10230,4510,14435,18258.20979723916
1735561183130,-97,274,972,1014.5289547371233,-10282,4538,17685,20954.049560884407
1735561183160,-97,274,972,1014.5289547371233,-10293,4577,-15037,18788.457813242683
1735561183191,-138,340,933,1002.5632149645228,-10285,4614,-11678,16231.016758046922
1735561183221,-138,340,933,1002.5632149645228,-10249,4647,-8273,13967.073387077195
1735561183251,-138,340,933,1002.5632149645228,-10197,4660,-4848,12214.643384069794
1735561183280,-104,305,945,998.4317703278477,-10145,4656,-1412,11251.360140000852
1735561183310,-104,305,945,998.4317703278477,-10113,4633,1995,11301.21599652002
1735561183340,-104,305,945,998.4317703278477,-10112,4605,5380,12345.159739752256
1735561183371,-96,317,907,965.5847968977142,-10136,4583,8728,14139.319962431007
1735561183400,-96,317,907,965.5847968977142,-10188,4572,12024,16409.604017160196
1735561183430,-96,317,907,965.5847968977142,-10232,4581,15320,18983.724213125304
1735561183460,-96,317,907,965.5847968977142,-10253,4601,-17370,20688.40520678189
1735561183490,-51,273,799,845.8906548721294,-10246,4617,-14061,18000.247942736787
1735561183520,-51,273,799,845.8906548721294,-10230,4625,-10762,15551.982799630407
1735561183550,-51,273,799,845.8906548721294,-10213,4626,-7460,13466.8795568981
1735561183580,21,315,875,930.2101913008694,-10245,4624,-4179,11991.890676619763
1735561183610,21,315,875,930.2101913008694,-10330,4647,-945,11366.465325685025
1735561183640,21,315,875,930.2101913008694,-10367,4692,2319,11613.238738612068
1735561183670,-60,319,942,996.3558601222758,-10346,4738,5634,12697.650018802691
1735561183701,-60,319,942,996.3558601222758,-10212,4760,9099,14482.207877254075
1735561183730,-60,319,942,996.3558601222758,-10106,4733,12558,16799.877648363992
1735561183760,-60,319,942,996.3558601222758,-10061,4679,15977,19452.025370125342
1735561183790,-33,307,937,986.5632265597578,-10100,4627,-16713,20068.470245636563
1735561183820,-33,307,937,986.5632265597578,-10173,4598,-13447,17477.2235209143
1735561183850,-33,307,937,986.5632265597578,-10247,4598,-10191,15165.721018138242
1735561183880,-100,309,917,972.8155015212288,-10269,4624,-6885,13199.884923740812
1735561183910,-100,309,917,972.8155015212288,-10221,4649,-3496,11760.274571624594
1735561183939,-100,309,917,972.8155015212288,-10169,4653,-96,11183.388842385835
1735561183971,-70,293,943,989.9484835081066,-10141,4638,3286,11625.348209838705
1735561184001,-70,293,943,989.9484835081066,-10164,4616,6596,12966.170136165883
1735561184030,-70,293,943,989.9484835081066,-10198,4607,9894,14937.030795978162
1735561184060,-70,293,943,989.9484835081066,-10228,4610,13190,17315.893970569352
1735561184090,-73,326,974,1029.699470719491,-10272,4635,16515,19993.55981309982
1735561184120,-73,326,974,1029.699470719491,-10285,4672,-16130,19692.275363705434
1735561184150,-73,326,974,1029.699470719491,-10261,4705,-12746,17026.028955690166
1735561184180,-50,289,941,985.6480101943087,-10193,4716,-9342,14608.588877780085
1735561184210,-50,289,941,985.6480101943087,-10128,4694,-5960,12654.312308458331
1735561184240,-50,289,941,985.6480101943087,-10106,4656,-2606,11428.07105333179
1735561184270,-28,292,919,964.680776215635,-10121,4617,706,11146.73790846452
1735561184300,-28,292,919,964.680776215635,-10180,4588,3951,11844.515397431842
1735561184330,-28,292,919,964.680776215635,-10243,4583,7184,13324.143274522381
1735561184360,-28,292,919,964.680776215635,-10290,4600,10424,15352.650455214565
1735561184390,-22,321,805,866.9198348174991,-10310,4632,13713,17770.703221876167
1735561184420,-22,321,805,866.9198348174991,-10303,4669,17029,20443.537145024588
1735561184451,-22,321,805,866.9198348174991,-10267,4695,-15628,19279.22970452917
1735561184480,-15,329,945,1000.7452223218455,-10226,4703,-12273,16652.80198645261
1735561184510,-15,329,945,1000.7452223218455,-10200,4698,-8925,14344.574897849012
1735561184540,-15,329,945,1000.7452223218455,-10187,4686,-5584,12526.556629816512
1735561184570,-107,304,873,930.5879861678851,-10192,4671,-2262,11437.29640255948
1735561184600,-107,304,873,930.5879861678851,-10118,4646,1146,11192.522325195514
1735561184630,-107,304,873,930.5879861678851,-10092,4604,4523,11979.265795531877
1735561184660,-107,304,873,930.5879861678851,-10111,4562,7863,13596.725120410429
1735561184690,-56,291,938,983.6976161402446,-10195,4536,11162,15783.015079508732
1735561184721,-56,291,938,983.6976161402446,-10282,4544,14436,18296.59957478438
1735561184750,-56,291,938,983.6976161402446,-10333,4579,17730,21025.960857948918
1735561184780,-99,308,967,1019.6832841622933,-10320,4627,-14923,18724.51489358269
1735561184811,-99,308,967,1019.6832841622933,-10249,4661,-11505,16097.57581128289
1735561184841,-99,308,967,1019.6832841622933,-10173,4664,-8074,13799.72104790528
1735561184870,-8,315,797,857.0285876212065,-10123,4641,-4661,12072.23802780578
1735561184900,-8,315,797,857.0285876212065,-10195,4611,-1400,11276.49528887411
1735561184930,-8,315,797,857.0285876212065,-10268,4610,1850,11406.420297358853
1735561184960,-8,315,797,857.0285876212065,-10318,4632,5111,12411.23962382485
1735561184990,-37,291,898,944.6978352891468,-10319,4673,8391,14097.076682773632
1735561185020,-37,291,898,944.6978352891468,-10272,4702,11712,16272.483891526825
1735561185051,-37,291,898,944.6978352891468,-10216,4710,15048,18788.109537683667
1735561185080,-44,253,909,944.5771540747744,-10159,4689,-17618,20870.695388510656
1735561185110,-44,253,909,944.5771540747744,-10122,4645,-14309,18132.247240758657
1735561185140,-44,253,909,944.5771540747744,-10136,4597,-11040,15676.495303479027
1735561185170,-81,325,953,1010.1460290472858,-10182,4566,-7797,13613.033791187032
1735561185200,-81,325,953,1010.1460290472858,-10255,4573,-4505,12098.445313345017
1735561185230,-81,325,953,1010.1460290472858,-10296,4603,-1196,11341.324481734926
1735561185260,-81,325,953,1010.1460290472858,-10298,4640,2141,11496.18567177827
1735561185290,-91,280,1070,1109.7661915917245,-10242,4661,5496,12523.158587193568
1735561185320,-91,280,1070,1109.7661915917245,-10175,4653,8859,14271.051643099046
1735561185350,-91,280,1070,1109.7661915917245,-10139,4626,12206,16528.32819737072
1735561185380,-147,301,932,990.3706376907587,-10136,4598,15544,19117.95062238628
1735561185410,-147,301,932,990.3706376907587,-10140,4578,-17093,20394.811423496907
1735561185440,-147,301,932,990.3706376907587,-10160,4564,-13744,17690.484221750405
1735561185471,-51,303,937,986.0927948220694,-10182,4560,-10390,15245.288583690372
1735561185500,-51,303,937,986.0927948220694,-10273,4571,-7122,13309.82546842745
1735561185530,-51,303,937,986.0927948220694,-10325,4609,-3831,11938.386281235835
1735561185561,-51,303,937,986.0927948220694,-10327,4655,-505,11338.914366022878
1735561185590,-58,308,926,977.6011456621765,-10282,4691,2847,11654.63058187603
1735561185620,-58,308,926,977.6011456621765,-10221,4705,6222,12857.649474145732
