Timestamp,Acc_X,Acc_Y,Acc_Z,Acc_Betrag,Ori_X,Ori_Y,Ori_Z,Ori_Betrag
1735574958925,-34,130,1109,1117.1110061224892,9839,-4172,7118,12840.460622578927
1735574958925,-1,129,850,859.7336796938922,9731,-4171,5261,11822.339996802664
1735574958928,-1,129,850,859.7336796938922,9637,-4195,3413,11050.717759494177
1735574958958,-1,129,850,859.7336796938922,9568,-4239,1561,10580.759235518026
1735574958988,-46,37,1000,1001.7409844865089,9606,-4284,-355,10523.968690565362
1735574959018,-46,37,1000,1001.7409844865089,9737,-4296,-2329,10894.449320640304
1735574959048,-46,37,1000,1001.7409844865089,9846,-4278,-4301,11564.756850016347
1735574959078,84,2,1034,1037.4083092013482,9916,-4243,-6253,12467.161425119994
1735574959108,84,2,1034,1037.4083092013482,9884,-4237,-8026,13418.729485312684
1735574959138,84,2,1034,1037.4083092013482,9856,-4238,-9799,14530.030316554745
1735574959168,84,2,1034,1037.4083092013482,9834,-4244,-11573,15768.748238208384
1735574959198,59,62,1018,1021.5914056020636,9807,-4261,-13376,17124.565571132018
1735574959228,59,62,1018,1021.5914056020636,9781,-4285,-15191,18568.67434686709
1735574959258,59,62,1018,1021.5914056020636,9767,-4314,-17009,20082.603566270984
1735574959288,18,77,963,966.2411707229205,9780,-4337,17137,20202.34486390132
1735574959318,18,77,963,966.2411707229205,9812,-4348,15242,18641.325382064442
1735574959348,18,77,963,966.2411707229205,9841,-4352,13347,17144.316667630705
1735574959378,-4,41,1064,1064.7971637828493,9865,-4351,11460,15734.707687148179
1735574959408,-4,41,1064,1064.7971637828493,9929,-4340,9565,14453.714609054656
1735574959438,-4,41,1064,1064.7971637828493,9978,-4315,7674,13306.76463307291
1735574959468,-4,41,1064,1064.7971637828493,10009,-4281,5786,12328.213090306315
1735574959498,9,43,1045,1045.9230373215803,9999,-4241,3945,11555.479522719947
1735574959528,9,43,1045,1045.9230373215803,9977,-4207,2113,11031.960251922594
1735574959558,9,43,1045,1045.9230373215803,9949,-4178,283,10794.367698017331
1735574959588,-63,71,1018,1022.41576670159,9951,-4146,-1621,10901.346614065622
1735574959618,-63,71,1018,1022.41576670159,9969,-4100,-3599,11364.14369849308
1735574959648,-63,71,1018,1022.41576670159,9969,-4052,-5572,12118.038166303983
1735574959678,-85,71,912,918.7001687166494,9944,-4009,-7518,13094.866971451065
1735574959708,-85,71,912,918.7001687166494,9906,-3978,-9443,14252.14261084978
1735574959738,-85,71,912,918.7001687166494,9868,-3957,-11367,15564.18844655898
1735574959768,-85,71,912,918.7001687166494,9831,-3945,-13291,16995.94854663899
1735574959798,-101,14,850,856.094036890808,9826,-3924,-15248,18559.352251627748
1735574959828,-101,14,850,856.094036890808,9832,-3899,-17208,20198.655623580496
1735574959858,-101,14,850,856.094036890808,9830,-3874,16833,19874.27143318718
1735574959888,13,72,997,999.6809491032626,9797,-3861,14897,18243.057282155314
1735574959918,13,72,997,999.6809491032626,9703,-3881,13032,16704.592003398346
1735574959948,13,72,997,999.6809491032626,9632,-3922,11162,15256.072626990212
1735574959978,-75,59,856,861.3025020281782,9574,-3976,9307,13931.62951703784
1735574960008,-75,59,856,861.3025020281782,9587,-4020,7386,12752.410164357167
1735574960038,-75,59,856,861.3025020281782,9610,-4060,5461,11775.322543353112
1735574960068,-75,59,856,861.3025020281782,9641,-4093,3533,11053.669933556004
1735574960097,0,28,972,972.4032085508562,9706,-4125,1604,10667.468162596033
1735574960127,0,28,972,972.4032085508562,9760,-4147,-298,10608.676307626696
1735574960158,0,28,972,972.4032085508562,9811,-4156,-2202,10880.113096838653
1735574960188,20,60,971,973.0575522547472,9806,-4163,-4053,11398.02675904913
1735574960218,20,60,971,973.0575522547472,9765,-4183,-5866,12135.18314653718
1735574960249,20,60,971,973.0575522547472,9737,-4212,-7683,13098.801548233334
1735574960278,35,-5,1010,1010.6186224288567,9740,-4241,-9532,14272.795976962609
1735574960308,35,-5,1010,1010.6186224288567,9825,-4253,-11425,15657.243020404327
1735574960338,35,-5,1010,1010.6186224288567,9897,-4245,-13317,17126.38674677178
1735574960368,35,-5,1010,1010.6186224288567,9953,-4222,-15206,18657.704280001868
1735574960398,-8,43,1006,1006.9503463428572,9932,-4203,-17067,20188.915820320814
1735574960428,-8,43,1006,1006.9503463428572,9908,-4187,17056,20164.487818935544
1735574960458,-8,43,1006,1006.9503463428572,9883,-4177,15180,18589.06716325486
1735574960488,-140,43,906,917.7608620986188,9903,-4154,13244,17050.76716749132
1735574960518,-140,43,906,917.7608620986188,9969,-4098,11210,15551.162818258961
1735574960548,-140,43,906,917.7608620986188,10004,-4027,9186,14166.13359389216
1735574960578,-44,123,920,929.2281743468608,10015,-3954,7170,12936.121559416486
1735574960608,-44,123,920,929.2281743468608,9893,-3924,5261,11872.124746649186
1735574960639,-44,123,920,929.2281743468608,9787,-3922,3350,11062.999276868819
1735574960669,-44,123,920,929.2281743468608,9702,-3944,1436,10570.999763503924
1735574960698,-52,85,958,963.1682096082699,9660,-3972,-471,10455.344327185021
1735574960728,-52,85,958,963.1682096082699,9645,-4006,-2385,10712.716088835734
1735574960758,-52,85,958,963.1682096082699,9643,-4042,-4302,11306.299881039773
1735574960788,-47,40,979,980.9434234450017,9660,-4083,-6235,12200.889885578019
1735574960818,-47,40,979,980.9434234450017,9706,-4119,-8174,13341.17209993185
1735574960848,-47,40,979,980.9434234450017,9753,-4143,-10116,14649.877610410265
1735574960878,-28,73,1036,1038.9461006231265,9801,-4156,-12047,16076.75794431203
1735574960908,-28,73,1036,1038.9461006231265,9808,-4167,-13934,17541.86731793397
1735574960938,-28,73,1036,1038.9461006231265,9818,-4176,-15821,19082.351558442686
1735574960968,-28,73,1036,1038.9461006231265,9828,-4183,-17709,20680.806415611554
1735574960998,112,79,1083,1091.6382184588444,9737,-4200,16482,19598.60946597998
1735574961028,112,79,1083,1091.6382184588444,9637,-4249,14723,18102.278834445126
1735574961058,112,79,1083,1091.6382184588444,9568,-4316,12959,16676.635182194277
1735574961088,25,5,1049,1049.309773136608,9624,-4382,11126,15349.631135633195
1735574961118,25,5,1049,1049.309773136608,9788,-4405,9209,14142.653569963453
1735574961148,25,5,1049,1049.309773136608,9927,-4393,7293,13077.906063280925
1735574961178,-66,63,1048,1051.9643530082187,10013,-4347,5388,12173.213298057337
1735574961208,-66,63,1048,1051.9643530082187,10044,-4264,3394,11427.286117009586
1735574961238,-66,63,1048,1051.9643530082187,10043,-4177,1412,10968.2688697898
1735574961268,-66,63,1048,1051.9643530082187,10015,-4092,-560,10833.203081268255
1735574961298,-107,97,865,876.9737738381918,9970,-4039,-2492,11041.94208461537
1735574961328,-107,97,865,876.9737738381918,9919,-3996,-4436,11577.248075427942
1735574961358,-107,97,865,876.9737738381918,9865,-3966,-6378,12398.639643122144
1735574961388,-11,37,884,884.8423588413928,9818,-3949,-8296,13446.610762567645
1735574961418,-11,37,884,884.8423588413928,9772,-3950,-10151,14633.430390718371
1735574961449,-11,37,884,884.8423588413928,9735,-3962,-12007,15957.30923432895
1735574961478,9,132,901,910.662396280861,9702,-3977,-13863,17381.83252709564
1735574961508,9,132,901,910.662396280861,9579,-4010,-15695,18819.41460301037
1735574961538,9,132,901,910.662396280861,9487,-4068,-17531,20344.23146742093
1735574961568,9,132,901,910.662396280861,9429,-4144,16626,19557.675040760852
1735574961598,-83,15,1031,1034.4442952619536,9578,-4205,14617,17974.3372061392
1735574961628,-83,15,1031,1034.4442952619536,9764,-4212,12571,16465.317518954806
1735574961658,-83,15,1031,1034.4442952619536,9914,-4176,10531,15054.179917883272
1735574961688,20,33,1089,1089.6834402706136,9958,-4132,8607,13795.493358339889
1735574961718,20,33,1089,1089.6834402706136,9914,-4112,6797,12704.139049931719
1735574961748,20,33,1089,1089.6834402706136,9874,-4102,4988,11798.407689175689
1735574961778,40,89,1064,1068.46478650445,9839,-4093,3173,11118.74538785739
1735574961808,40,89,1064,1068.46478650445,9749,-4089,1370,10660.198028179402
1735574961839,40,89,1064,1068.46478650445,9676,-4104,-435,10519.363906624772
1735574961868,85,78,1046,1052.3426248138007,9618,-4139,-2236,10706.864200128814
1735574961899,85,78,1046,1052.3426248138007,9556,-4201,-3979,11171.301535631379
1735574961928,85,78,1046,1052.3426248138007,9522,-4275,-5728,11906.05278839297
1735574961958,85,78,1046,1052.3426248138007,9513,-4353,-7482,12861.807882253568
1735574961988,-11,104,914,919.9635862358901,9551,-4426,-9327,14064.281211636804
1735574962019,-11,104,914,919.9635862358901,9618,-4483,-11218,15441.720661895164
1735574962048,-11,104,914,919.9635862358901,9690,-4523,-13113,16920.531847433165
1735574962078,-34,102,868,874.6336375877617,9756,-4549,-15009,18470.057336131904
1735574962108,-34,102,868,874.6336375877617,9829,-4556,-16927,20097.007389161205
1735574962138,-34,102,868,874.6336375877617,9890,-4548,17155,20317.244621257087
1735574962168,-27,-4,970,970.3839446322265,9949,-4528,15225,18742.625483106684
1735574962198,-27,-4,970,970.3839446322265,10093,-4482,13276,17268.73327722679
1735574962228,-27,-4,970,970.3839446322265,10192,-4406,11339,15870.18024472312
1735574962258,-27,-4,970,970.3839446322265,10248,-4311,9416,14569.395354646671
1735574962288,60,99,1029,1035.491187794469,10164,-4228,7605,13379.79465462755
1735574962318,60,99,1029,1035.491187794469,10031,-4180,5827,12330.745719541865
1735574962349,60,99,1029,1035.491187794469,9912,-4159,4049,11486.488845595943
1735574962378,26,63,974,976.3815852421634,9823,-4163,2250,10903.41221820032
1735574962408,26,63,974,976.3815852421634,9784,-4178,420,10647.006151965914
1735574962438,26,63,974,976.3815852421634,9756,-4200,-1411,10714.964162329243
1735574962468,-70,33,1000,1002.990029860716,9739,-4226,-3245,11101.226148493688
1735574962498,-70,33,1000,1002.990029860716,9820,-4227,-5191,11884.713290609918
1735574962528,-70,33,1000,1002.990029860716,9885,-4210,-7133,12896.395387859353
1735574962558,-70,33,1000,1002.990029860716,9932,-4179,-9072,14085.803100994986
1735574962588,-34,3,1003,1003.5805896887405,9906,-4148,-10976,15356.018885114723
1735574962618,-34,3,1003,1003.5805896887405,9878,-4125,-12866,16736.91922069292
1735574962648,-34,3,1003,1003.5805896887405,9848,-4110,-14754,18208.671560550483
1735574962679,55,-3,987,988.5357858975061,9832,-4118,-16602,19729.48433183189
1735574962709,55,-3,987,988.5357858975061,9804,-4149,17616,20582.907301933807
1735574962739,55,-3,987,988.5357858975061,9789,-4185,15833,19079.377217299312
1735574962768,124,22,1032,1039.6557122432407,9789,-4221,14029,17619.710638940698
1735574962798,124,22,1032,1039.6557122432407,9734,-4269,12266,16230.52288128759
1735574962828,124,22,1032,1039.6557122432407,9702,-4328,10498,14935.474281053146
1735574962858,124,22,1032,1039.6557122432407,9692,-4391,8725,13760.13699059715
1735574962888,-19,63,989,991.1866625414206,9728,-4430,6882,12713.017265779199
1735574962918,-19,63,989,991.1866625414206,9791,-4450,4980,11851.859811860753
1735574962948,-19,63,989,991.1866625414206,9847,-4456,3079,11238.30885854273
1735574962978,-113,25,905,912.3699907384065,9923,-4448,1137,10933.590535592597
1735574963008,-113,25,905,912.3699907384065,10041,-4404,-873,10999.046595046319
1735574963038,-113,25,905,912.3699907384065,10120,-4335,-2873,11378.082175832622
1735574963068,40,32,969,970.3530285416746,10161,-4251,-4865,12040.977825741562
1735574963098,40,32,969,970.3530285416746,10059,-4207,-6688,12791.077906103144
1735574963128,40,32,969,970.3530285416746,9966,-4186,-8512,13758.557191798855
1735574963158,40,32,969,970.3530285416746,9885,-4184,-10336,14901.408557582736
1735574963188,-13,24,1003,1003.3713171104703,9878,-4188,-12207,16251.925332095272
1735574963218,-13,24,1003,1003.3713171104703,9886,-4189,-14098,17721.01354324859
1735574963248,-13,24,1003,1003.3713171104703,9893,-4187,-15990,19263.50222571171
1735574963278,84,45,1187,1190.819045867171,9891,-4188,-17880,20858.226794241164
1735574963308,84,45,1187,1190.819045867171,9847,-4207,16284,19489.251242672202
1735574963338,84,45,1187,1190.819045867171,9816,-4235,14446,17971.532961881687
1735574963369,46,60,880,883.2417562592929,9778,-4267,12626,16529.74437188912
1735574963399,46,60,880,883.2417562592929,9730,-4303,10802,15161.527396670825
1735574963428,46,60,880,883.2417562592929,9702,-4348,8975,13913.465887405626
1735574963458,46,60,880,883.2417562592929,9692,-4397,7142,12817.044784192649
1735574963488,-84,80,987,993.7932380530671,9827,-4403,5116,11921.820079165765
1735574963518,-84,80,987,993.7932380530671,9959,-4367,3046,11292.939652721076
1735574963548,-84,80,987,993.7932380530671,10051,-4301,987,10977.03835285274
1735574963578,-170,121,881,905.3739558878419,10072,-4227,-1017,10970.2781186258
1735574963608,-170,121,881,905.3739558878419,10063,-4147,-3040,11300.58308230155
1735574963638,-170,121,881,905.3739558878419,10031,-4072,-5054,11947.59645284356
1735574963668,-65,18,1005,1007.2606415421978,9989,-4011,-7071,12878.947278407502
1735574963698,-65,18,1005,1007.2606415421978,9968,-3981,-8990,14001.052996114257
1735574963728,-65,18,1005,1007.2606415421978,9942,-3957,-10907,15279.52427269907
1735574963758,-65,18,1005,1007.2606415421978,9914,-3939,-12823,16680.30113637041
1735574963788,65,43,1090,1092.7826865392772,9818,-3941,-14670,18086.83236501074
1735574963818,65,43,1090,1092.7826865392772,9710,-3978,-16473,19531.213812766477
1735574963848,65,43,1090,1092.7826865392772,9633,-4037,17718,20567.439850404327
1735574963878,-48,71,1123,1126.2655104370372,9615,-4095,15825,18964.38438230991
1735574963908,-48,71,1123,1126.2655104370372,9656,-4134,13823,17360.97983985927
1735574963939,-48,71,1123,1126.2655104370372,9702,-4163,11819,15847.653895766402
1735574963968,-59,95,1016,1022.1359987790274,9731,-4184,9849,14463.782976801056
1735574963997,-59,95,1016,1022.1359987790274,9724,-4213,7940,13241.946420371893
1735574964028,-59,95,1016,1022.1359987790274,9727,-4242,6027,12203.844558171002
1735574964058,-59,95,1016,1022.1359987790274,9737,-4269,4112,11399.213744815912
1735574964088,-81,39,955,959.222080646604,9798,-4274,2129,10899.565174813168
1735574964118,-81,39,955,959.222080646604,9866,-4259,140,10746.93616804343
1735574964148,-81,39,955,959.222080646604,9915,-4229,-1843,10935.644242567514
1735574964178,35,80,937,941.0600405925225,9918,-4219,-3727,11404.262974870406
1735574964208,35,80,937,941.0600405925225,9853,-4244,-5498,12054.922189711553
1735574964238,35,80,937,941.0600405925225,9807,-4282,-7273,12938.674661649082
1735574964268,-18,95,895,900.2077537990883,9798,-4322,-9091,14047.304688088743
1735574964298,-18,95,895,900.2077537990883,9859,-4334,-11052,15431.46593814081
1735574964329,-18,95,895,900.2077537990883,9911,-4332,-13012,16920.58772619911
1735574964358,-18,95,895,900.2077537990883,9953,-4319,-14970,18488.29007777626
1735574964388,-66,62,937,941.3654975619194,9992,-4302,-16925,20119.714038723312
1735574964418,-66,62,937,941.3654975619194,10036,-4269,17105,20286.120427523838
1735574964448,-66,62,937,941.3654975619194,10060,-4227,15142,18664.171371909335
1735574964478,-62,97,868,875.6009365001844,10041,-4171,13175,17082.141171410567
1735574964508,-62,97,868,875.6009365001844,9983,-4121,11210,15566.2143760132
1735574964538,-62,97,868,875.6009365001844,9921,-4086,9248,14164.997034944978
1735574964568,-32,73,1052,1055.0151657677723,9867,-4070,7295,12928.248682632926
1735574964598,-32,73,1052,1055.0151657677723,9832,-4075,5389,11929.592197556462
1735574964628,-32,73,1052,1055.0151657677723,9805,-4087,3481,11178.50414858804
1735574964658,-32,73,1052,1055.0151657677723,9786,-4106,1571,10728.143968086932
1735574964688,92,51,1055,1060.231106881891,9729,-4135,-296,10575.409306499678
1735574964718,92,51,1055,1060.231106881891,9671,-4186,-2122,10749.591666663437
1735574964748,92,51,1055,1060.231106881891,9638,-4248,-3953,11250.011422216423
1735574964778,-40,80,995,999.0120119397965,9640,-4304,-5822,12056.106336624607
1735574964808,-40,80,995,999.0120119397965,9697,-4337,-7787,13171.133094764475
1735574964838,-40,80,995,999.0120119397965,9752,-4357,-9755,14465.302554734208
1735574964869,-139,59,1083,1093.4765658211427,9808,-4371,-11708,15886.464962350812
1735574964898,-139,59,1083,1093.4765658211427,9955,-4358,-13743,17520.394915640456
1735574964928,-139,59,1083,1093.4765658211427,10068,-4313,-15771,19201.32896442327
1735574964958,-139,59,1083,1093.4765658211427,10142,-4243,-17788,20911.149107593297
1735574964988,41,71,1042,1045.220550888663,10038,-4193,16345,19634.1976663168
1735574965018,41,71,1042,1045.220550888663,9901,-4185,14545,18085.935170734192
1735574965048,41,71,1042,1045.220550888663,9789,-4206,12742,16609.440719060953
1735574965078,-48,38,1106,1107.6930982903161,9798,-4248,10846,15221.104559131049
1735574965108,-48,38,1106,1107.6930982903161,9902,-4265,8851,13949.194600406146
1735574965138,-48,38,1106,1107.6930982903161,9991,-4257,6858,12844.231934997126
1735574965168,-65,52,1046,1049.3069141104522,10026,-4230,4890,11930.032523006801
1735574965198,-65,52,1046,1049.3069141104522,9986,-4199,2948,11226.86514571187
1735574965228,-65,52,1046,1049.3069141104522,9946,-4179,1007,10835.174479444251
1735574965258,-65,52,1046,1049.3069141104522,9907,-4168,-932,10788.396405397792
1735574965288,-85,62,881,887.2598266573326,9925,-4179,-2863,11142.999371802907
1735574965318,-85,62,881,887.2598266573326,9944,-4184,-4801,11808.411959277166
1735574965348,-85,62,881,887.2598266573326,9961,-4184,-6739,12733.47941451982
1735574965378,-5,84,1046,1049.3793403722032,9970,-4170,-8712,13881.237120660391
1735574965408,-5,84,1046,1049.3793403722032,9937,-4163,-10659,15155.488081879777
1735574965438,-5,84,1046,1049.3793403722032,9908,-4164,-12606,16565.584686330876
1735574965468,-95,99,855,865.9393743213205,9870,-4170,-14523,18047.806764258086
1735574965498,-95,99,855,865.9393743213205,9862,-4167,-16480,19652.311136352386
1735574965528,-95,99,855,865.9393743213205,9854,-4166,17562,20564.063703460946
1735574965558,-95,99,855,865.9393743213205,9848,-4167,15605,18917.26772026024
1735574965588,-22,22,1012,1012.4781479123388,9955,-4180,13628,17386.68481913674
1735574965618,-22,22,1012,1012.4781479123388,10049,-4170,11680,15962.258643437652
1735574965648,-22,22,1012,1012.4781479123388,10121,-4140,9736,14641.172664783378
1735574965678,-60,41,995,997.6502393123554,10122,-4083,7829,13432.014517562136
1735574965708,-60,41,995,997.6502393123554,10088,-4020,5923,12369.724047043248
1735574965738,-60,41,995,997.6502393123554,10043,-3967,4021,11522.47278148228
1735574965769,-143,62,839,853.3545570277339,9998,-3927,2113,10947.424445959881
1735574965798,-143,62,839,853.3545570277339,9995,-3881,105,10722.556178449242
1735574965828,-143,62,839,853.3545570277339,9978,-3838,-1898,10857.860378546042
1735574965858,55,100,1013,1019.4086521116053,9945,-3803,-3900,11339.128449753094
1735574965888,55,100,1013,1019.4086521116053,9751,-3836,-5694,11925.541203651934
1735574965918,55,100,1013,1019.4086521116053,9602,-3911,-7493,12792.160646270824
1735574965948,55,100,1013,1019.4086521116053,9501,-4016,-9298,13887.04651824858
1735574965978,15,9,963,963.1588654007188,9510,-4121,-11160,15230.506918681334
1735574966008,15,9,963,963.1588654007188,9578,-4211,-13046,16723.29874755576
1735574966038,15,9,963,963.1588654007188,9660,-4284,-14940,18299.504255580257
1735574966068,-45,146,985,996.7778087417477,9753,-4334,-16833,19931.24316243219
1735574966099,-45,146,985,996.7778087417477,9786,-4360,17214,20275.531854923065
1735574966128,-45,146,985,996.7778087417477,9820,-4379,15261,18668.319742279968
1735574966158,-14,85,1024,1027.6171466066533,9868,-4392,13290,17125.746348699668
1735574966188,-14,85,1024,1027.6171466066533,9963,-4396,11323,15709.758559570544
1735574966218,-14,85,1024,1027.6171466066533,10039,-4380,9358,14406.182179883746
1735574966248,-14,85,1024,1027.6171466066533,10095,-4347,7399,13249.552256585881
1735574966279,-51,35,952,954.007337497988,10090,-4293,5484,12260.18780443432
1735574966308,-51,35,952,954.007337497988,10089,-4234,3562,11506.6294369811
1735574966338,-51,35,952,954.007337497988,10070,-4177,1646,11025.4952269728
1735574966368,-73,1,933,935.8520182165554,10090,-4127,-295,10905.377297462019
1735574966399,-73,1,933,935.8520182165554,10134,-4066,-2257,11150.083452602496
1735574966428,-73,1,933,935.8520182165554,10150,-3996,-4211,11692.862652062582
1735574966459,0,50,1052,1053.1875426532542,10141,-3925,-6159,12497.15115536337
1735574966489,0,50,1052,1053.1875426532542,10030,-3886,-8027,13421.42410476623
1735574966518,0,50,1052,1053.1875426532542,9930,-3873,-9896,14544.271896523387
1735574966548,0,50,1052,1053.1875426532542,9846,-3882,-11767,15826.431341272106
1735574966578,4,95,1058,1062.2640914574868,9721,-3905,-13607,17172.574501221417
1735574966608,4,95,1058,1062.2640914574868,9614,-3958,-15449,18621.663754885063
1735574966638,4,95,1058,1062.2640914574868,9542,-4033,-17296,20161.013590591123
1735574966668,41,132,883,893.7527622334937,9499,-4134,16858,19786.69050144566
1735574966698,41,132,883,893.7527622334937,9463,-4254,15028,18261.589991016663
1735574966728,41,132,883,893.7527622334937,9468,-4378,13187,16813.889407272785
1735574966758,-65,56,865,869.2444995511908,9525,-4491,11304,15449.113955175553
1735574966789,-65,56,865,869.2444995511908,9779,-4538,9225,14188.830466250558
1735574966818,-65,56,865,869.2444995511908,9997,-4527,7148,13096.856187650532
1735574966848,-65,56,865,869.2444995511908,10166,-4466,5082,12211.446924914344
1735574966878,1,78,950,953.1972513598641,10190,-4401,3175,11544.935079938734
1735574966908,1,78,950,953.1972513598641,10171,-4340,1302,11134.632683658676
1735574966938,1,78,950,953.1972513598641,10138,-4285,-566,11020.917611524006
1735574966969,-31,35,952,953.1474177691507,10117,-4238,-2442,11237.334959855918
1735574966998,-31,35,952,953.1474177691507,10124,-4188,-4338,11783.588757250483
1735574967028,-31,35,952,953.1474177691507,10115,-4136,-6229,12578.559615472672
1735574967058,-127,17,1078,1085.5883197603039,10088,-4087,-8118,13578.410694923026
1735574967088,-127,17,1078,1085.5883197603039,10119,-4014,-10111,14857.276937581799
1735574967118,-127,17,1078,1085.5883197603039,10120,-3937,-12096,16255.078744810804
1735574967148,-127,17,1078,1085.5883197603039,10097,-3861,-14073,17745.5926640955
1735574967178,-31,75,1011,1014.2519410876175,9983,-3813,-15980,19223.934508835595
1735574967208,-31,75,1011,1014.2519410876175,9848,-3806,-17854,20742.084176861303
1735574967238,-31,75,1011,1014.2519410876175,9737,-3831,16267,19341.6912135418
1735574967268,72,45,1073,1076.354030976797,9640,-3887,14414,17770.81216489556
1735574967298,72,45,1073,1076.354030976797,9551,-3977,12625,16322.645465732568
1735574967328,72,45,1073,1076.354030976797,9501,-4084,10830,14974.543632445031
1735574967358,-13,26,1007,1007.4194756902409,9496,-4197,9023,13755.121010009327
1735574967388,-13,26,1007,1007.4194756902409,9610,-4285,7101,12693.995667243627
1735574967418,-13,26,1007,1007.4194756902409,9729,-4345,5172,11844.072357090698
1735574967448,-13,26,1007,1007.4194756902409,9844,-4378,3238,11249.705062800536
1735574967478,60,99,1020,1026.5480992140601,9830,-4414,1426,10869.488120422231
1735574967508,60,99,1020,1026.5480992140601,9793,-4464,-361,10768.494137993483
1735574967538,60,99,1020,1026.5480992140601,9777,-4520,-2155,10984.723665163361
1735574967568,54,87,870,876.0051369712395,9795,-4570,-3993,11522.628779926914
1735574967598,54,87,870,876.0051369712395,9838,-4608,-5859,12342.92465341987
1735574967628,54,87,870,876.0051369712395,9884,-4636,-7728,13375.647124531957
1735574967658,0,47,1013,1014.0897396187381,9963,-4658,-9615,14608.44132684935
1735574967688,0,47,1013,1014.0897396187381,10167,-4643,-11592,16102.788640480878
1735574967718,0,47,1013,1014.0897396187381,10324,-4585,-13559,17648.05037390816
1735574967748,0,47,1013,1014.0897396187381,10429,-4495,-15509,19222.334587661302
1735574967778,-59,44,901,904.0011061940135,10426,-4369,-17447,20789.11845172854
1735574967808,-59,44,901,904.0011061940135,10398,-4238,16608,20047.56124819176
1735574967838,-59,44,901,904.0011061940135,10335,-4115,14675,18414.697255181796
1735574967899,6,92,942,946.50092445808,10226,-4025,12794,16865.886783682618
1735574967899,6,92,942,946.50092445808,10067,-3984,10971,15413.616901947447
1735574967929,6,92,942,946.50092445808,9929,-3978,9145,14072.688087213473
1735574967958,-28,8,1083,1083.391434339408,9832,-4000,7289,12876.247318221252
1735574967988,-28,8,1083,1083.391434339408,9877,-4013,5340,11923.711586582427
1735574968018,-28,8,1083,1083.391434339408,9917,-4014,3391,11223.099660967107
1735574968048,-28,8,1083,1083.391434339408,9950,-4007,1443,10823.160259369719
1735574968078,41,27,1034,1035.1647211917532,9876,-4013,-395,10667.50064448088
1735574968108,41,27,1034,1035.1647211917532,9800,-4043,-2211,10829.329157431683
1735574968138,41,27,1034,1035.1647211917532,9747,-4088,-4031,11312.14895587925
1735574968168,15,104,916,922.0070498645875,9700,-4149,-5844,12060.53634794075
1735574968198,15,104,916,922.0070498645875,9652,-4224,-7673,13033.733501955609
1735574968228,15,104,916,922.0070498645875,9633,-4308,-9509,14204.739842742632
1735574968258,-10,-9,1069,1069.084655207435,9674,-4389,-11398,15580.88575787654
1735574968288,-10,-9,1069,1069.084655207435,9899,-4421,-13413,17246.565194264043
1735574968318,-10,-9,1069,1069.084655207435,10088,-4402,-15424,18948.48606089679
1735574968348,-10,-9,1069,1069.084655207435,10233,-4341,-17425,20668.55570667675
1735574968378,78,41,1024,1027.7845104884584,10189,-4279,16764,20078.776307335065
1735574968408,78,41,1024,1027.7845104884584,10107,-4240,14990,18569.575897149618
1735574968438,78,41,1024,1027.7845104884584,10030,-4218,13216,17118.851596996803
1735574968468,55,82,974,978.9918283622187,9961,-4206,11426,15731.034072812887
1735574968498,55,82,974,978.9918283622187,9893,-4204,9613,14420.63916752652
1735574968528,55,82,974,978.9918283622187,9837,-4217,7798,13242.298214433928
1735574968558,29,114,990,996.9638910211343,9794,-4239,5973,12229.81136403992
1735574968588,29,114,990,996.9638910211343,9756,-4261,4100,11408.139944793806
1735574968618,29,114,990,996.9638910211343,9731,-4291,2223,10864.933087690877
1735574968648,29,114,990,996.9638910211343,9720,-4326,343,10644.73226530381
1735574968678,-41,88,1078,1082.3626933703877,9799,-4359,-1574,10839.68440499999
1735574968708,-41,88,1078,1082.3626933703877,9895,-4365,-3521,11373.728104715708
1735574968738,-41,88,1078,1082.3626933703877,9974,-4351,-5465,12176.949618028319
1735574968768,-8,52,1042,1043.3273695250211,10005,-4330,-7375,13162.04961242739
1735574968798,-8,52,1042,1043.3273695250211,10015,-4312,-9250,14298.813552179776
1735574968828,-8,52,1042,1043.3273695250211,10018,-4292,-11122,15571.784483481653
1735574968858,-71,62,858,863.1622095527584,10005,-4266,-13000,16949.89029463023
1735574968888,-71,62,858,863.1622095527584,10003,-4220,-14959,18483.5085955021
1735574968918,-71,62,858,863.1622095527584,9988,-4176,-16913,20081.05298533919
1735574968948,-71,62,858,863.1622095527584,9962,-4137,17135,20247.57857127612
1735574968978,20,95,1108,1112.2450269612357,9934,-4136,15249,18663.409468797494
1735574969007,20,95,1108,1112.2450269612357,9885,-4152,13395,17157.457678805447
1735574969038,20,95,1108,1112.2450269612357,9850,-4179,11538,15735.691436984904
1735574969068,-71,63,944,948.7602436864647,9865,-4199,9605,14394.646609069638
1735574969098,-71,63,944,948.7602436864647,9939,-4190,7583,13184.90462612453
1735574969128,-71,63,944,948.7602436864647,9994,-4165,5566,12174.055076267727
1735574969158,37,21,1110,1110.8150161030414,10029,-4130,3569,11418.209229121701
1735574969188,37,21,1110,1110.8150161030414,10006,-4118,1729,10957.527138912319
1735574969219,37,21,1110,1110.8150161030414,9984,-4111,-111,10797.819131658021
1735574969248,37,21,1110,1110.8150161030414,9964,-4108,-1951,10952.778688533792
1735574969278,-65,132,1018,1028.5781448193422,9928,-4093,-3886,11420.106348016205
1735574969309,-65,132,1018,1028.5781448193422,9887,-4084,-5858,12196.22847440962
1735574969339,-65,132,1018,1028.5781448193422,9851,-4084,-7831,13230.488199609264
1735574969369,66,50,1032,1035.316376766059,9804,-4104,-9739,14415.594091122293
1735574969399,66,50,1032,1035.316376766059,9753,-4149,-11543,15670.866568253334
1735574969429,66,50,1032,1035.316376766059,9724,-4205,-13351,17043.690973495148
1735574969459,43,41,974,975.8104324099021,9735,-4264,-15183,18533.089596718622
1735574969489,43,41,974,975.8104324099021,9821,-4308,-17081,20168.576201606298
1735574969518,43,41,974,975.8104324099021,9904,-4333,17018,20161.260600468413
1735574969548,43,41,974,975.8104324099021,9978,-4338,15117,18625.316561068164
1735574969578,-79,2,997,1000.1269919365241,10108,-4300,13136,17123.55570551864
1735574969608,-79,2,997,1000.1269919365241,10232,-4216,11122,15689.721603648677
1735574969638,-79,2,997,1000.1269919365241,10303,-4107,9124,14361.985726214882
1735574969669,73,94,1081,1087.532068492695,10147,-4054,7345,13166.075725135413
1735574969698,73,94,1081,1087.532068492695,9956,-4057,5618,12130.255932996632
1735574969728,73,94,1081,1087.532068492695,9802,-4098,3887,11312.894280421788
1735574969758,-6,52,972,973.4084445904505,9689,-4166,2131,10759.80659677487
1735574969788,-6,52,972,973.4084445904505,9707,-4225,242,10589.383268160616
1735574969818,-6,52,972,973.4084445904505,9739,-4277,-1653,10764.444203023211
1735574969848,-34,61,977,979.492725853541,9783,-4316,-3569,11272.653015151314
1735574969878,-34,61,977,979.492725853541,9847,-4327,-5553,12104.633286473407
1735574969908,-34,61,977,979.492725853541,9902,-4323,-7537,13173.621445904691
1735574969938,-34,61,977,979.492725853541,9945,-4307,-9517,14423.12597878837
1735574969968,-84,70,952,958.2588376842658,9984,-4289,-11443,15780.30500338951
1735574969998,-84,70,952,958.2588376842658,10017,-4257,-13384,17250.907048616315
1735574970029,-84,70,952,958.2588376842658,10034,-4219,-15320,18793.177405643783
1735574970058,25,128,961,969.8092595969581,10023,-4202,-17226,20367.92598670763
1735574970088,25,128,961,969.8092595969581,9947,-4220,16939,20091.81251156799
1735574970118,25,128,961,969.8092595969581,9891,-4253,15101,18546.16108524888
1735574970148,-88,27,1060,1063.9891916744268,9869,-4289,13232,17055.160685258874
1735574970178,-88,27,1060,1063.9891916744268,10044,-4264,11176,15619.430463368375
1735574970208,-88,27,1060,1063.9891916744268,10174,-4200,9132,14301.87749912577
1735574970238,-88,27,1060,1063.9891916744268,10256,-4107,7102,13133.597717305034
1735574970269,-27,2,1000,1000.3664328634783,10212,-4030,5217,12154.955080130901
1735574970298,-27,2,1000,1000.3664328634783,10150,-3969,3358,11404.017932290355
1735574970328,-27,2,1000,1000.3664328634783,10083,-3923,1501,10922.903414385755
1735574970358,-19,98,936,941.3081323349969,10000,-3895,-351,10737.514889395963
1735574970388,-19,98,936,941.3081323349969,9880,-3897,-2200,10846.24400426249
1735574970418,-19,98,936,941.3081323349969,9784,-3926,-4052,11294.19479201594
1735574970448,-31,28,946,946.9218552763475,9717,-3971,-5940,12061.199359931
1735574970478,-31,28,946,946.9218552763475,9745,-4007,-7910,13175.32443623306
1735574970508,-31,28,946,946.9218552763475,9778,-4036,-9882,14475.92843309195
1735574970539,-31,28,946,946.9218552763475,9814,-4056,-11857,15917.103411110955
1735574970567,-12,65,1062,1064.05497978253,9797,-4075,-13765,17379.93265234362
1735574970598,-12,65,1062,1064.05497978253,9777,-4101,-15668,18918.09065418601
1735574970628,-12,65,1062,1064.05497978253,9768,-4132,-17575,20527.24708771247
1735574970658,-47,127,881,891.346733880817,9763,-4168,16518,19634.987063912213
1735574970688,-47,127,881,891.346733880817,9755,-4208,14589,18047.332489872293
1735574970718,-47,127,881,891.346733880817,9761,-4249,12657,16538.76570364306
1735574970748,-79,115,1011,1020.581696876835,9792,-4284,10698,15122.272448279722
1735574970778,-79,115,1011,1020.581696876835,9882,-4294,8658,13822.204021066973
1735574970808,-79,115,1011,1020.581696876835,9958,-4282,6619,12700.726317813482
1735574970838,-79,115,1011,1020.581696876835,10014,-4253,4586,11806.760817429986
1735574970868,20,118,930,937.6694513526609,9921,-4237,2695,11119.417026085495
1735574970898,20,118,930,937.6694513526609,9820,-4252,839,10733.863470344682
1735574970928,20,118,930,937.6694513526609,9743,-4288,-1020,10693.614590025209
1735574970958,-142,67,872,886.0231373954068,9778,-4322,-2953,11090.950229804477
1735574970988,-142,67,872,886.0231373954068,9928,-4307,-5014,11927.096419497915
1735574971018,-142,67,872,886.0231373954068,10042,-4258,-7066,12996.179592480246
1735574971048,-10,113,909,916.0513086066741,10124,-4189,-9114,14251.599664599058
1735574971078,-10,113,909,916.0513086066741,10061,-4151,-11021,15489.253145326278
1735574971108,-10,113,909,916.0513086066741,10000,-4129,-12927,16856.926469555474
1735574971138,-10,113,909,916.0513086066741,9944,-4120,-14833,18326.90440309001
1735574971168,-46,-7,1074,1075.0074418347065,10015,-4109,-16821,20003.253410383022
1735574971198,-46,-7,1074,1075.0074418347065,10103,-4069,17183,20344.111162692756
1735574971228,-46,-7,1074,1075.0074418347065,10161,-4010,15195,18714.0066794901
1735574971258,25,9,1053,1053.3351793232769,10127,-3952,13280,17161.958891688326
1735574971288,25,9,1053,1053.3351793232769,10029,-3926,11437,15709.846784739819
1735574971318,25,9,1053,1053.3351793232769,9942,-3923,9594,14362.385909033359
1735574971348,35,105,802,809.6011363628388,9857,-3940,7772,13156.292524871891
1735574971378,35,105,802,809.6011363628388,9682,-3998,6003,12073.157706250673
1735574971408,35,105,802,809.6011363628388,9554,-4091,4229,11220.500790962942
1735574971438,35,105,802,809.6011363628388,9474,-4208,2447,10651.37310397115
1735574971469,-89,-8,1068,1071.7317761455056,9681,-4311,429,10606.154958324907
1735574971498,-89,-8,1068,1071.7317761455056,9937,-4343,-1644,10968.516490391943
1735574971528,-89,-8,1068,1071.7317761455056,10150,-4314,-3712,11636.667907953719
1735574971559,-109,42,859,866.9059925966598,10232,-4248,-5708,12462.76823181752
1735574971589,-109,42,859,866.9059925966598,10229,-4176,-7676,13453.341332174696
1735574971618,-109,42,859,866.9059925966598,10205,-4106,-9636,14623.739501235654
1735574971648,17,74,1045,1047.7547422942068,10175,-4041,-11608,15956.377095067664
1735574971678,17,74,1045,1047.7547422942068,10047,-4017,-13473,17280.052864502468
1735574971708,17,74,1045,1047.7547422942068,9937,-4022,-15341,18715.414342193977
1735574971738,17,74,1045,1047.7547422942068,9850,-4051,-17212,20240.70268049012
1735574971768,-91,47,882,887.9267987846746,9834,-4077,16870,19948.092264675335
1735574971799,-91,47,882,887.9267987846746,9857,-4093,14912,18337.961773326937
1735574971829,-91,47,882,887.9267987846746,9880,-4104,12954,16800.69439041137
1735574971858,-44,-9,1029,1029.9796114486926,9971,-4109,10958,15374.735314794854
1735574971888,-44,-9,1029,1029.9796114486926,10083,-4089,8972,14102.609474845427
1735574971918,-44,-9,1029,1029.9796114486926,10166,-4044,6993,12984.74262355631
1735574971948,44,41,961,962.8800548354919,10207,-3980,5034,12056.71617813076
1735574971978,44,41,961,962.8800548354919,10108,-3942,3200,11311.544014854913
1735574972008,44,41,961,962.8800548354919,10018,-3927,1365,10846.422359469503
1735574972038,44,41,961,962.8800548354919,9941,-3931,-470,10700.333733113188
1735574972068,4,44,1158,1158.842525971497,9890,-3943,-2325,10897.934391434002
1735574972098,4,44,1158,1158.842525971497,9860,-3962,-4197,11425.053741667914
1735574972128,4,44,1158,1158.842525971497,9841,-3987,-6070,12230.549864989718
1735574972158,-49,0,951,952.2615187016643,9824,-4012,-7949,13258.72244976868
1735574972188,-49,0,951,952.2615187016643,9846,-4028,-9860,14504.761287246336
1735574972218,-49,0,951,952.2615187016643,9868,-4039,-11772,15883.039035398735
1735574972249,-19,109,933,939.5376522524257,9891,-4042,-13684,17361.49478011614
1735574972278,-19,109,933,939.5376522524257,9807,-4055,-15563,18836.85862876292
1735574972308,-19,109,933,939.5376522524257,9742,-4087,-17445,20394.561971270676
1735574972339,-19,109,933,939.5376522524257,9700,-4132,16668,19722.719082317224
1735574972368,-15,-2,1062,1062.1078099703439,9813,-4178,14697,18159.087587210983
1735574972398,-15,-2,1062,1062.1078099703439,9944,-4189,12725,16684.018760478542
1735574972428,-15,-2,1062,1062.1078099703439,10053,-4170,10756,15301.739933746097
1735574972458,-11,49,938,939.3433876916364,10073,-4129,8828,14015.974957169408
1735574972488,-11,49,938,939.3433876916364,10028,-4094,6922,12854.404070200999
1735574972518,-11,49,938,939.3433876916364,9982,-4070,5018,11890.565503793334
1735574972548,78,116,987,996.849537292364,9951,-4057,3119,11189.718986641265
1735574972578,78,116,987,996.849537292364,9834,-4081,1326,10729.417178952452
1735574972608,78,116,987,996.849537292364,9745,-4130,-470,10594.471435612066
1735574972638,78,116,987,996.849537292364,9686,-4196,-2273,10797.756294712342
1735574972668,-106,17,1050,1055.473827245375,9770,-4230,-4231,11456.31533260149
1735574972698,-106,17,1050,1055.473827245375,9909,-4221,-6257,12456.129856420092
1735574972728,-106,17,1050,1055.473827245375,10017,-4179,-8277,13649.654171443319
1735574972758,58,55,864,867.6894605790715,10025,-4156,-10174,14875.591988220167
1735574972788,58,55,864,867.6894605790715,9932,-4180,-11924,16071.67695046164
1735574972818,58,55,864,867.6894605790715,9863,-4224,-13678,17384.14878560351
1735574972848,-80,97,963,971.1735169371125,9832,-4268,-15463,18814.57990495669
1735574972878,-80,97,963,971.1735169371125,9904,-4261,-17462,20522.348330539564
1735574972908,-80,97,963,971.1735169371125,9960,-4239,16542,19768.876675218547
1735574972938,-80,97,963,971.1735169371125,9997,-4205,14552,18148.904595043747
1735574972967,-92,38,1094,1098.5190030217957,10079,-4163,12517,16600.96680919518
1735574972998,-92,38,1094,1098.5190030217957,10147,-4098,10487,15156.925215887291
1735574973028,-92,38,1094,1098.5190030217957,10179,-4018,8467,13836.417672215593
1735574973058,57,138,876,888.6332201757933,10065,-3967,6584,12664.53196924387
1735574973088,57,138,876,888.6332201757933,9826,-3995,4845,11661.231753121108
1735574973118,57,138,876,888.6332201757933,9639,-4071,3099,10912.70649289167
1735574973148,-38,25,1048,1048.9866538712492,9537,-4172,1299,10490.345752166608
1735574973178,-38,25,1048,1048.9866538712492,9695,-4227,-715,10600.555598646704
1735574973208,-38,25,1048,1048.9866538712492,9839,-4243,-2733,11057.950036060029
1735574973238,-38,25,1048,1048.9866538712492,9960,-4226,-4747,11815.01946676348
1735574973268,-56,33,1132,1133.8646303681935,9979,-4209,-6661,12714.756898973728
1735574973299,-56,33,1132,1133.8646303681935,9991,-4187,-8579,13818.476435555405
1735574973328,-56,33,1132,1133.8646303681935,9994,-4163,-10495,15078.316550596754
1735574973358,70,103,806,815.5642218734218,9893,-4150,-12332,16345.402197560023
1735574973388,70,103,806,815.5642218734218,9698,-4191,-14063,17589.30510281745
1735574973418,70,103,806,815.5642218734218,9549,-4270,-15801,18949.614824581528
1735574973448,31,92,981,985.7920673245449,9491,-4376,-17585,20456.311544362048
1735574973478,31,92,981,985.7920673245449,9594,-4470,16495,19598.743862809166
1735574973508,31,92,981,985.7920673245449,9707,-4539,14566,18083.05079349168
1735574973539,18,73,984,986.8682789511475,9816,-4584,12645,16651.214280045766
1735574973569,18,73,984,986.8682789511475,9938,-4603,10735,15335.960289463454
1735574973599,18,73,984,986.8682789511475,10041,-4596,8827,14137.214223460009
1735574973629,18,73,984,986.8682789511475,10122,-4568,6923,13086.230817160455
1735574973658,-119,92,998,1009.2715194634197,10282,-4482,4849,12219.682851858308
1735574973688,-119,92,998,1009.2715194634197,10400,-4347,2747,11601.828218000817
1735574973718,-119,92,998,1009.2715194634197,10446,-4188,672,11274.300155663765
1735574973748,-118,4,995,1001.9805387331633,10412,-4022,-1370,11245.582599403198
1735574973778,-118,4,995,1001.9805387331633,10373,-3859,-3380,11572.182594480611
1735574973808,-118,4,995,1001.9805387331633,10292,-3710,-5378,12190.662328192017
1735574973838,25,117,975,982.3130865462396,10180,-3593,-7350,13060.036332261867
1735574973868,25,117,975,982.3130865462396,9890,-3580,-9136,13931.798017485036
1735574973899,25,117,975,982.3130865462396,9652,-3631,-10928,15025.526579790807
1735574973928,25,117,975,982.3130865462396,9471,-3733,-12724,16295.254094367476
1735574973958,-66,55,971,974.7933114255554,9461,-3842,-14625,17837.09925968906
1735574973988,-66,55,971,974.7933114255554,9516,-3937,-16566,19506.06523622845
1735574974018,-66,55,971,974.7933114255554,9589,-4016,17483,20340.414597544466
1735574974048,-28,68,948,950.8480425388697,9627,-4075,15564,18748.942636852884
1735574974078,-28,68,948,950.8480425388697,9639,-4130,13680,17236.86807398606
1735574974108,-28,68,948,950.8480425388697,9664,-4182,11791,15808.532537841707
1735574974138,-30,65,919,921.7841395901754,9715,-4229,9886,14491.330580729984
1735574974168,-30,65,919,921.7841395901754,9804,-4267,7954,13326.358129661681
1735574974199,-30,65,919,921.7841395901754,9887,-4284,6019,12342.357392329879
1735574974229,-30,65,919,921.7841395901754,9959,-4282,4085,11584.66356870151
1735574974258,14,57,1005,1006.7124713640931,9955,-4274,2200,11054.822522320294
1735574974288,14,57,1005,1006.7124713640931,9942,-4271,331,10825.634669616373
1735574974318,14,57,1005,1006.7124713640931,9932,-4270,-1537,10919.702056374981
1735574974348,128,92,992,1004.446116026141,9901,-4289,-3377,11306.168714467338
1735574974378,128,92,992,1004.446116026141,9821,-4341,-5141,11904.88147778045
1735574974408,128,92,992,1004.446116026141,9770,-4407,-6911,12752.900454406441
1735574974439,0,90,1073,1076.767848702774,9762,-4475,-8710,13827.015910889811
1735574974469,0,90,1073,1076.767848702774,9901,-4492,-10708,15260.050098213964
1735574974499,0,90,1073,1076.767848702774,10017,-4478,-12703,16785.677883243203
1735574974528,0,90,1073,1076.767848702774,10105,-4440,-14692,18376.0574933798
1735574974558,28,46,940,941.541289588513,10077,-4410,-16544,19867.006946190962
1735574974588,28,46,940,941.541289588513,10049,-4387,17616,20749.737974249216
1735574974618,28,46,940,941.541289588513,10021,-4370,15778,19195.380303604303
1735574974648,6,-3,987,987.0227960893304,10051,-4355,13904,17700.560499600004
1735574974678,6,-3,987,987.0227960893304,10124,-4321,12003,16286.142146008673
1735574974708,6,-3,987,987.0227960893304,10172,-4272,10108,14962.995422040334
1735574974738,176,244,1075,1116.305065831021,10189,-4222,8235,13764.310008133354
1735574974768,176,244,1075,1116.305065831021,9868,-4263,6582,12604.495904239884
1735574974798,176,244,1075,1116.305065831021,9613,-4364,4922,11648.190803725702
1735574974828,176,244,1075,1116.305065831021,9426,-4510,3256,10944.912608148135
1735574974858,-266,-5,1205,1234.0202591529849,9796,-4570,1041,10859.567072402104
1735574974888,-266,-5,1205,1234.0202591529849,10268,-4470,-1332,11277.719095632769
1735574974918,-266,-5,1205,1234.0202591529849,10584,-4254,-3649,11976.342221229319
1735574974948,-65,86,847,853.8325362739464,10573,-4038,-5714,12678.46871668657
1735574974978,-65,86,847,853.8325362739464,10336,-3917,-7565,13394.21554253925
1735574975008,-65,86,847,853.8325362739464,10115,-3850,-9419,14347.588159687328
1735574975038,11,77,1067,1069.8312951115236,9944,-3829,-11307,15536.815182012046
1735574975068,11,77,1067,1069.8312951115236,9807,-3849,-13179,16872.406200657926
1735574975098,11,77,1067,1069.8312951115236,9701,-3899,-15055,18329.337876748305
1735574975128,11,77,1067,1069.8312951115236,9630,-3972,-16937,19884.05524534671
1735574975158,-88,39,952,956.8536983259248,9616,-4047,17178,20097.99365608418
1735574975188,-88,39,952,956.8536983259248,9655,-4111,15251,18512.491647533563
1735574975218,-88,39,952,956.8536983259248,9707,-4164,13318,16998.054859306696
1735574975248,-6,125,1010,1017.7234398401168,9757,-4210,11378,15568.62334954507
1735574975278,-6,125,1010,1017.7234398401168,9748,-4265,9478,14249.428514856307
1735574975308,-6,125,1010,1017.7234398401168,9758,-4319,7572,13084.628729925813
1735574975338,69,83,884,890.5649892062903,9782,-4373,5662,12118.94785037051
1735574975368,69,83,884,890.5649892062903,9795,-4436,3839,11417.444635293836
1735574975398,69,83,884,890.5649892062903,9824,-4496,2008,10988.951542344701
1735574975428,69,83,884,890.5649892062903,9865,-4548,171,10864.242725565367
1735574975458,23,10,986,986.3189139421387,10039,-4564,-1775,11169.701965585295
1735574975488,23,10,986,986.3189139421387,10211,-4534,-3736,11780.465737822084
1735574975518,23,10,986,986.3189139421387,10339,-4467,-5685,12616.189400924512
1735574975548,-38,55,1028,1030.171344971311,10396,-4366,-7629,13613.978588201173
1735574975578,-38,55,1028,1030.171344971311,10402,-4244,-9596,14774.855532288631
1735574975608,-38,55,1028,1030.171344971311,10369,-4123,-11550,16059.819114797028
1735574975638,-102,-5,1190,1194.3738945573116,10315,-4010,-13498,17454.951417864217
1735574975668,-102,-5,1190,1194.3738945573116,10336,-3879,-15510,19037.847488621184
1735574975698,-102,-5,1190,1194.3738945573116,10311,-3745,-17509,20661.723718025078
1735574975728,-102,-5,1190,1194.3738945573116,10251,-3621,16500,19759.67211266422
1735574975758,7,69,880,882.7287239010635,9978,-3579,14731,18148.61113143372
1735574975788,7,69,880,882.7287239010635,9711,-3614,12993,16618.741408422
1735574975818,7,69,880,882.7287239010635,9502,-3705,11251,15185.520405965677
1735574975848,78,62,1039,1043.7667363927633,9413,-3845,9461,13888.812584234838
1735574975878,78,62,1039,1043.7667363927633,9385,-4006,7680,12771.400119015925
1735574975908,78,62,1039,1043.7667363927633,9405,-4168,5886,11852.056572595324
1735574975938,-68,17,843,845.9089785550216,9437,-4314,4087,11152.1806836152
1735574975968,-68,17,843,845.9089785550216,9596,-4411,2118,10771.539397876239
1735574975998,-68,17,843,845.9089785550216,9755,-4469,139,10730.857701041423
1735574976028,-68,17,843,845.9089785550216,9902,-4490,-1843,11027.527057323414
1735574976058,-12,31,1076,1076.5133533774674,10083,-4483,-3861,11690.65862130958
1735574976088,-12,31,1076,1076.5133533774674,10210,-4443,-5850,12578.03041020334
1735574976118,-12,31,1076,1076.5133533774674,10297,-4376,-7827,13654.285554359847
1735574976148,-27,126,871,880.4805506085867,10270,-4293,-9736,14788.25361562345
1735574976178,-27,126,871,880.4805506085867,10160,-4228,-11619,16003.21045915475
1735574976208,-27,126,871,880.4805506085867,10053,-4188,-13501,17345.868499443895
1735574976238,-35,46,885,886.8855619526117,9956,-4174,-15367,18780.01333865341
1735574976268,-35,46,885,886.8855619526117,9941,-4173,-17213,20310.7060192402
1735574976299,-35,46,885,886.8855619526117,9929,-4174,16940,20074.135523105346
1735574976330,-35,46,885,886.8855619526117,9920,-4179,15094,18539.12826968949
1735574976359,70,50,1057,1060.4946958848968,9877,-4195,13276,17070.598407788755
1735574976388,70,50,1057,1060.4946958848968,9825,-4230,11494,15701.450920217532
1735574976418,70,50,1057,1060.4946958848968,9791,-4274,9708,14435.235398149904
1735574976448,-114,50,1031,1038.4878429716932,9832,-4303,7824,13281.528865307639
1735574976478,-114,50,1031,1038.4878429716932,9957,-4282,5789,12287.794513255827
1735574976508,-114,50,1031,1038.4878429716932,10050,-4233,3763,11536.072035142637
1735574976539,-40,71,954,957.4742816389378,10113,-4164,1735,11073.47687043234
1735574976568,-40,71,954,957.4742816389378,10087,-4105,-223,10892.5810990784
1735574976598,-40,71,954,957.4742816389378,10049,-4054,-2177,11052.449773692708
1735574976628,-40,71,954,957.4742816389378,10003,-4013,-4129,11541.785780372116
1735574976658,86,65,926,932.25372082926,9894,-3998,-5963,12224.263127076412
1735574976688,86,65,926,932.25372082926,9779,-4019,-7754,13111.282088339034
1735574976718,86,65,926,932.25372082926,9692,-4064,-9549,14199.801442273761
1735574976748,70,63,1102,1106.0167268174564,9648,-4122,-11341,15449.694786629281
1735574976778,70,63,1102,1106.0167268174564,9641,-4182,-13144,16828.62861316988
1735574976809,70,63,1102,1106.0167268174564,9651,-4242,-14953,18295.58892192323
1735574976839,-65,70,945,949.8157716104739,9649,-4301,-16741,19795.526843203745
1735574976899,-65,70,945,949.8157716104739,9708,-4342,17358,20356.777544591874
1735574976899,-65,70,945,949.8157716104739,9768,-4369,15455,18797.845887228676
1735574976929,-65,70,945,949.8157716104739,9825,-4383,13550,17301.555248011664
1735574976958,145,70,933,946.7914237042919,9778,-4426,11781,15937.08633972973
1735574976988,145,70,933,946.7914237042919,9703,-4496,10088,14701.35942693736
1735574977018,145,70,933,946.7914237042919,9659,-4579,8388,13587.570275807224
1735574977048,-5,140,841,852.5878253880945,9698,-4632,6551,12586.589252057127
1735574977078,-5,140,841,852.5878253880945,9798,-4640,4557,11759.95973632563
1735574977108,-5,140,841,852.5878253880945,9881,-4626,2565,11207.73224162676
1735574977137,161,73,1019,1034.2199959389684,9952,-4604,589,10981.16756087439
1735574977168,161,73,1019,1034.2199959389684,9947,-4618,-1165,11028.415933396782
1735574977198,161,73,1019,1034.2199959389684,9946,-4633,-2921,11354.287560212662
1735574977228,161,73,1019,1034.2199959389684,9950,-4648,-4679,11937.313139898777
1735574977258,168,107,1037,1055.9554914862651,9873,-4676,-6351,12636.309033891186
1735574977288,168,107,1037,1055.9554914862651,9807,-4719,-8023,13520.900080985733
1735574977318,168,107,1037,1055.9554914862651,9763,-4774,-9701,14567.65753304216
1735574977348,72,69,1067,1071.6501294732343,9882,-4816,-11526,15927.851581428049
1735574977378,72,69,1067,1071.6501294732343,10025,-4822,-13394,17411.24765776422
1735574977408,72,69,1067,1071.6501294732343,10142,-4801,-15257,18939.00245525091
1735574977438,-60,62,798,802.6506089202201,10205,-4755,-17111,20482.63584112162
1735574977468,-60,62,798,802.6506089202201,10305,-4655,16891,20326.53268513841
1735574977498,-60,62,798,802.6506089202201,10351,-4537,14914,18712.428116094394
1735574977528,-15,79,953,956.3864281763936,10369,-4412,12946,17163.356926895158
1735574977558,-15,79,953,956.3864281763936,10335,-4301,11020,15708.317096366498
1735574977588,-15,79,953,956.3864281763936,10274,-4199,9105,14355.75501323424
1735574977618,-15,79,953,956.3864281763936,10196,-4113,7197,13140.471604931081
1735574977648,85,83,1062,1068.6243493389059,10089,-4055,5366,12125.382550666185
1735574977678,85,83,1062,1068.6243493389059,9967,-4033,3570,11329.213476671715
1735574977708,85,83,1062,1068.6243493389059,9863,-4036,1773,10803.31402857475
1735574977738,-72,72,902,907.7290344590725,9778,-4062,-27,10588.194227534741
1735574977768,-72,72,902,907.7290344590725,9824,-4067,-2008,10820.514266891385
1735574977798,-72,72,902,907.7290344590725,9863,-4062,-3988,11387.833727272277
1735574977828,5,59,984,985.7798942968963,9890,-4050,-5970,12241.5481047129
1735574977859,5,59,984,985.7798942968963,9864,-4057,-7872,13256.173241173336
1735574977888,5,59,984,985.7798942968963,9845,-4069,-9776,14458.594744995104
1735574977918,5,59,984,985.7798942968963,9834,-4084,-11681,15806.08658080804
1735574977948,68,50,932,935.8140841000418,9738,-4119,-13481,17132.78045152041
1735574977979,68,50,932,935.8140841000418,9659,-4178,-15263,18539.44805003644
1735574978009,68,50,932,935.8140841000418,9610,-4252,-17050,20028.332531691198
1735574978038,-40,131,1000,1009.336911046059,9629,-4322,17094,20089.8521896006
1735574978068,-40,131,1000,1009.336911046059,9689,-4371,15140,18498.701630114476
1735574978098,-40,131,1000,1009.336911046059,9753,-4405,13181,16978.333104283236
1735574978128,0,86,906,910.0725245825192,9828,-4425,11209,15550.301926329275
1735574978158,0,86,906,910.0725245825192,9923,-4429,9261,14277.537988042617
1735574978188,0,86,906,910.0725245825192,10001,-4412,7316,13153.311408158783
1735574978218,0,86,906,910.0725245825192,10058,-4378,5377,12216.479730265999
1735574978248,62,53,1031,1034.2214463063508,10063,-4329,3496,11498.966301368137
1735574978278,62,53,1031,1034.2214463063508,10048,-4285,1644,11046.54991388714
1735574978308,62,53,1031,1034.2214463063508,10024,-4244,-204,10887.31959666841
1735574978338,0,118,1000,1006.9379325459936,9978,-4205,-2056,11021.326825750155
1735574978368,0,118,1000,1006.9379325459936,9920,-4171,-3944,11461.185671648462
1735574978398,0,118,1000,1006.9379325459936,9863,-4151,-5830,12185.994830131844
1735574978428,69,51,972,975.7796882493507,9802,-4149,-7707,13141.204434906262
1735574978458,69,51,972,975.7796882493507,9742,-4182,-9488,14227.362088595342
1735574978488,69,51,972,975.7796882493507,9701,-4226,-11272,15460.480619954866
1735574978518,69,51,972,975.7796882493507,9680,-4277,-13060,16809.483305562964
1735574978548,9,136,953,962.6972525150366,9630,-4305,-14929,18279.632545540953
1735574978578,9,136,953,962.6972525150366,9589,-4343,-16826,19847.540049084168
1735574978608,9,136,953,962.6972525150366,9568,-4388,17272,20226.792924237892
1735574978638,43,172,1006,1021.5033039594146,9585,-4442,15386,18663.670191042274
1735574978668,43,172,1006,1021.5033039594146,9599,-4500,13525,17184.77308549636
1735574978698,43,172,1006,1021.5033039594146,9628,-4554,11658,15790.701821008463
1735574978728,45,104,936,942.8345560065138,9662,-4593,9769,14487.348066502716
1735574978758,45,104,936,942.8345560065138,9743,-4604,7849,13331.529019583613
1735574978788,45,104,936,942.8345560065138,9811,-4597,5931,12351.716115584912
1735574978818,45,104,936,942.8345560065138,9864,-4577,4015,11591.706086681115
1735574978848,-51,123,917,926.6169650939918,9948,-4544,2072,11131.209458095738
1735574978878,-51,123,917,926.6169650939918,10021,-4486,100,10979.737565169762
1735574978908,-51,123,917,926.6169650939918,10061,-4413,-1860,11142.615940612868
1735574978938,33,125,989,997.4141567072327,10051,-4343,-3770,11580.03238337441
1735574978968,33,125,989,997.4141567072327,9986,-4296,-5606,12231.23248082547
1735574978998,33,125,989,997.4141567072327,9921,-4262,-7440,13112.76038826303
1735574979028,40,197,758,784.2021423077089,9848,-4240,-9266,14171.078293482116
1735574979058,40,197,758,784.2021423077089,9702,-4239,-11073,15320.223692883861
1735574979088,40,197,758,784.2021423077089,9583,-4268,-12883,16613.891837856656
1735574979118,40,197,758,784.2021423077089,9494,-4321,-14698,18023.270541164275
1735574979148,37,124,1085,1092.689342860083,9599,-4378,-16604,19672.328306532505
1735574979178,37,124,1085,1092.689342860083,9719,-4406,17484,20483.213932388637
1735574979208,37,124,1085,1092.689342860083,9824,-4408,15574,18933.856342541527
1735574979238,40,83,1132,1135.7433688998585,9847,-4390,13706,17438.17493317463
1735574979268,40,83,1132,1135.7433688998585,9847,-4369,11862,16023.689150754268
1735574979298,40,83,1132,1135.7433688998585,9841,-4349,10021,14703.04468469031
1735574979328,122,71,1050,1059.4456097412458,9825,-4327,8196,13506.589873095281
1735574979358,122,71,1050,1059.4456097412458,9745,-4320,6494,12481.965430171644
1735574979388,122,71,1050,1059.4456097412458,9679,-4328,4791,11634.788610026399
1735574979418,122,71,1050,1059.4456097412458,9627,-4348,3086,11004.891139852316
1735574979448,64,119,937,946.6921358076236,9651,-4377,1266,10672.520133501741
1735574979478,64,119,937,946.6921358076236,9680,-4397,-578,10647.539293188825
1735574979508,64,119,937,946.6921358076236,9709,-4411,-2424,10936.058613595667
1735574979538,31,146,1050,1060.5550433617295,9751,-4417,-4247,11516.462086943195
1735574979568,31,146,1050,1060.5550433617295,9793,-4409,-6076,12339.364084100931
1735574979598,31,146,1050,1060.5550433617295,9825,-4394,-7904,13353.31707853895
1735574979628,-73,163,963,979.4217681877404,9838,-4371,-9736,14514.874474138589
1735574979659,-73,163,963,979.4217681877404,9887,-4320,-11698,15914.093533720354
1735574979688,-73,163,963,979.4217681877404,9911,-4261,-13653,17400.817538265263
1735574979718,-73,163,963,979.4217681877404,9912,-4198,-15599,18952.565762977847
1735574979748,-51,114,861,870.0103447660838,9890,-4161,-17473,20504.432447644096
1735574979778,-51,114,861,870.0103447660838,9870,-4129,16664,19802.88961237728
1735574979808,-51,114,861,870.0103447660838,9844,-4102,14804,18245.250231224563
1735574979838,158,63,1030,1043.950669332608,9770,-4098,13017,16783.587012316526
1735574979868,158,63,1030,1043.950669332608,9642,-4142,11381,15480.6811542645
1735574979898,158,63,1030,1043.950669332608,9547,-4209,9740,14273.348941296153
1735574979928,30,65,927,929.7601841335216,9482,-4286,8084,13176.84241387139
1735574979958,30,65,927,929.7601841335216,9536,-4339,6252,12200.39839513448
1735574979988,30,65,927,929.7601841335216,9594,-4379,4416,11433.351783269856
1735574980018,30,65,927,929.7601841335216,9653,-4406,2577,10919.44018711582
1735574980049,72,159,1109,1122.6513261026328,9667,-4435,743,10661.71482454863
1735574980078,72,159,1109,1122.6513261026328,9654,-4470,-1077,10693.013840821492
1735574980108,72,159,1109,1122.6513261026328,9653,-4507,-2902,11041.51538512717
1735574980138,59,125,1101,1109.642735298168,9674,-4534,-4736,11686.450615991153
1735574980199,59,125,1101,1109.642735298168,9720,-4548,-6582,12589.099570660326
1735574980199,59,125,1101,1109.642735298168,9762,-4551,-8429,13676.852196320613
1735574980229,-94,91,907,916.3874726337108,9796,-4543,-10290,14915.916498827686
1735574980258,-94,91,907,916.3874726337108,9961,-4477,-12357,16491.224909023585
1735574980288,-94,91,907,916.3874726337108,10068,-4377,-14406,18112.304905781595
1735574980318,-94,91,907,916.3874726337108,10118,-4255,-16435,19763.30372179712
1735574980348,89,84,950,957.8501970558862,10002,-4211,17813,20858.463366221396
1735574980378,89,84,950,957.8501970558862,9861,-4209,16129,19367.489331351135
1735574980408,89,84,950,957.8501970558862,9744,-4234,14442,17928.849823678036
1735574980438,77,130,954,965.8907805751124,9685,-4245,12662,16496.83284754986
1735574980468,77,130,954,965.8907805751124,9637,-4252,10828,15106.186050754175
1735574980498,77,130,954,965.8907805751124,9600,-4268,8993,13829.312094243878
1735574980528,105,142,820,838.8021220764764,9567,-4296,7179,12709.096978149155
1735574980557,105,142,820,838.8021220764764,9505,-4346,5441,11782.920775427458
1735574980588,105,142,820,838.8021220764764,9467,-4406,3698,11077.550676932153
1735574980618,105,142,820,838.8021220764764,9452,-4473,1950,10637.223932962961
1735574980648,44,150,980,992.3890366182004,9597,-4525,46,10610.37935231347
1735574980678,44,150,980,992.3890366182004,9742,-4542,-1883,10912.470710155423
1735574980708,44,150,980,992.3890366182004,9864,-4527,-3811,11502.86686004841
1735574980738,9,74,973,975.8514231172694,9934,-4487,-5700,12300.712377744632
1735574980767,9,74,973,975.8514231172694,10009,-4423,-7585,13314.474642283112
1735574980797,9,74,973,975.8514231172694,10050,-4345,-9460,14469.73133821081
1735574980827,138,73,994,1006.1853705952994,10035,-4268,-11295,15700.129744686825
1735574980857,138,73,994,1006.1853705952994,9873,-4250,-12922,16808.233488383008
1735574980887,138,73,994,1006.1853705952994,9736,-4262,-14553,18020.658950216
1735574980917,138,73,994,1006.1853705952994,9626,-4300,-16186,19316.7407188687
1735574980947,244,80,880,916.6984236923286,9507,-4364,-17782,20630.73117948077
1735574980977,244,80,880,916.6984236923286,9395,-4457,16660,19638.90205688699
1735574981007,244,80,880,916.6984236923286,9322,-4568,15096,18320.90401699654
1735574981038,73,59,1106,1109.9756754091507,9445,-4665,13368,17019.802407783704
1735574981067,73,59,1106,1109.9756754091507,9722,-4693,11447,15734.527066295956
1735574981097,73,59,1106,1109.9756754091507,9953,-4665,9531,14548.69049089986
1735574981127,-68,63,931,935.6035485182813,10101,-4594,7665,13486.558567699916
1735574981157,-68,63,931,935.6035485182813,10250,-4466,5723,12560.270100598951
1735574981189,-68,63,931,935.6035485182813,10328,-4309,3806,11820.351136916364
1735574981218,-68,63,931,935.6035485182813,10374,-4129,1871,11321.181828766817
1735574981249,-13,72,1091,1093.4505018518214,10382,-3928,-81,11100.525618185835
1735574981278,-13,72,1091,1093.4505018518214,10317,-3736,-1998,11153.034968115182
1735574981307,-13,72,1091,1093.4505018518214,10211,-3563,-3907,11498.875553722633
1735574981338,57,79,1012,1016.677923434949,9988,-3458,-5734,12024.835300327402
1735574981367,57,79,1012,1016.677923434949,9770,-3413,-7543,12806.18280363044
1735574981397,57,79,1012,1016.677923434949,9583,-3419,-9356,13822.379896385426
1735574981427,-27,30,1036,1036.7858988238604,9383,-3469,-11184,15005.215959792115
1735574981457,-27,30,1036,1036.7858988238604,9226,-3558,-13131,16437.81010353873
1735574981487,-27,30,1036,1036.7858988238604,9126,-3681,-15083,18009.178937419663
1735574981517,52,99,823,830.5624600233266,9037,-3824,-16991,19621.020004067068
1735574981547,52,99,823,830.5624600233266,8817,-4013,17289,19818.001387627362
1735574981577,52,99,823,830.5624600233266,8679,-4238,15562,18315.608889687504
1735574981607,52,99,823,830.5624600233266,8620,-4480,13821,16893.633149799363
1735574981638,0,94,802,807.4899380178059,8721,-4711,12075,15622.259343641686
1735574981697,0,94,802,807.4899380178059,8885,-4909,10277,14445.007268949365
1735574981698,0,94,802,807.4899380178059,9082,-5068,8449,13399.736900402188
1735574981727,27,71,997,999.8894938942003,9352,-5191,6561,12548.031957243335
1735574981757,27,71,997,999.8894938942003,9712,-5261,4622,11973.468545079159
1735574981787,27,71,997,999.8894938942003,10029,-5263,2680,11638.831986071455
1735574981817,20,71,973,975.7919860298096,10302,-5201,729,11563.43573510918
1735574981847,20,71,973,975.7919860298096,10532,-5071,-1243,11755.131390163191
1735574981877,20,71,973,975.7919860298096,10667,-4899,-3177,12160.527085615984
1735574981907,20,71,973,975.7919860298096,10715,-4702,-5072,12753.243234565865
1735574981937,71,179,1027,1044.8976026386508,10597,-4514,-6933,13443.924055126166
1735574981967,71,179,1027,1044.8976026386508,10414,-4364,-8765,14294.09378029961
1735574981997,71,179,1027,1044.8976026386508,10226,-4253,-10592,15324.801760544899
1735574982027,-89,117,970,981.075939976106,10052,-4161,-12463,16543.367069614334
1735574982058,-89,117,970,981.075939976106,9961,-4068,-14440,18007.880080675794
1735574982087,-89,117,970,981.075939976106,9860,-3998,-16413,19559.91239755434
1735574982117,-52,86,1067,1071.7224454120571,9782,-3955,17601,20521.324275007206
1735574982147,-52,86,1067,1071.7224454120571,9747,-3929,15631,18835.31818154395
1735574982177,-52,86,1067,1071.7224454120571,9712,-3913,13663,17213.717843626924
1735574982207,-52,86,1067,1071.7224454120571,9679,-3906,11694,15674.486052180468
1735574982238,36,146,1132,1141.9439565933171,9608,-3918,9802,14273.877959405425
1735574982267,36,146,1132,1141.9439565933171,9523,-3958,7939,13014.646134259663
1735574982297,36,146,1132,1141.9439565933171,9465,-4015,6071,11939.995435510014
1735574982327,88,99,1006,1014.6827090278024,9398,-4083,4253,11094.201278145263
1735574982357,88,99,1006,1014.6827090278024,9347,-4167,2485,10531.16911838377
1735574982387,88,99,1006,1014.6827090278024,9327,-4258,711,10277.597676500087
1735574982417,13,38,883,883.9128916358218,9328,-4351,-1054,10346.675842994213
1735574982447,13,38,883,883.9128916358218,9448,-4423,-2884,10823.358489858867
1735574982477,13,38,883,883.9128916358218,9566,-4468,-4719,11564.615903695203
1735574982507,13,38,883,883.9128916358218,9675,-4488,-6557,12519.665251115943
1735574982538,94,62,1020,1026.1968622052982,9693,-4513,-8290,13529.431547555869
1735574982569,94,62,1020,1026.1968622052982,9688,-4543,-9994,14641.592433885053
1735574982599,94,62,1020,1026.1968622052982,9692,-4573,-11700,15866.228064666157
1735574982628,81,45,1041,1045.1157830594657,9751,-4585,-13463,17244.030706305297
1735574982658,81,45,1041,1045.1157830594657,9834,-4572,-15258,18719.436529981343
1735574982688,81,45,1041,1045.1157830594657,9898,-4544,-17050,20231.679119638095
1735574982718,-37,-16,965,965.8416019203149,9936,-4505,17176,20347.827820187587
1735574982748,-37,-16,965,965.8416019203149,10086,-4425,15298,18850.379969645175
1735574982778,-37,-16,965,965.8416019203149,10181,-4316,13437,17402.114411760427
1735574982809,-37,-16,965,965.8416019203149,10224,-4188,11591,16013.144631832936
1735574982838,-193,96,777,806.3460795464935,10210,-4015,9632,14599.30645613003
1735574982868,-193,96,777,806.3460795464935,10148,-3840,7632,13265.554191212668
1735574982898,-193,96,777,806.3460795464935,10046,-3684,5643,12097.000495990731
1735574982928,62,20,1024,1026.0701730388619,9916,-3585,3759,11194.166427206628
1735574982958,62,20,1024,1026.0701730388619,9750,-3557,2055,10580.064933638167
1735574982988,62,20,1024,1026.0701730388619,9609,-3566,349,10255.293169870863
1735574983018,10,123,1097,1103.9193811144,9491,-3588,-1400,10242.696178253067
1735574983048,10,123,1097,1103.9193811144,9339,-3614,-3287,10539.558150131343
1735574983078,10,123,1097,1103.9193811144,9223,-3674,-5178,11197.03929617111
1735574983108,10,123,1097,1103.9193811144,9146,-3759,-7074,12158.16075728562
1735574983138,28,78,1116,1119.0728305164057,9119,-3875,-8949,13351.269115705818
1735574983169,28,78,1116,1119.0728305164057,9138,-3989,-10825,14717.19368629767
1735574983199,28,78,1116,1119.0728305164057,9185,-4094,-12711,16207.855564509451
1735574983228,103,96,834,845.8019862828415,9180,-4194,-14511,17675.72224832694
1735574983258,103,96,834,845.8019862828415,9136,-4306,-16228,19114.290884047987
1735574983288,103,96,834,845.8019862828415,9127,-4423,-17954,20620.649213834175
1735574983318,-63,140,955,967.2610816113713,9196,-4545,16273,19236.267049508333
1735574983348,-63,140,955,967.2610816113713,9475,-4629,14212,17697.01132960026
1735574983378,-63,140,955,967.2610816113713,9728,-4648,12145,16240.040424826535
1735574983408,-63,140,955,967.2610816113713,9936,-4611,10084,14888.669282377119
1735574983438,-30,88,1052,1056.1003740175458,10029,-4527,8101,13663.849055079612
1735574983468,-30,88,1052,1056.1003740175458,10081,-4426,6148,12610.07299740965
1735574983498,-30,88,1052,1056.1003740175458,10090,-4317,4209,11754.159689233426
1735574983528,44,138,980,990.6462537152199,10014,-4231,2329,11117.814443495628
1735574983558,44,138,980,990.6462537152199,9865,-4192,515,10731.090997657227
1735574983588,44,138,980,990.6462537152199,9734,-4186,-1299,10675.240184651584
1735574983618,42,89,954,959.0625631313111,9631,-4208,-3116,10962.339212047764
1735574983648,42,89,954,959.0625631313111,9603,-4248,-4938,11603.747541204091
1735574983678,42,89,954,959.0625631313111,9591,-4293,-6763,12496.211385856115
1735574983708,42,89,954,959.0625631313111,9594,-4338,-8593,13590.538215979528
1735574983738,41,51,994,996.151594889051,9659,-4370,-10483,14909.274630242748
1735574983768,41,51,994,996.151594889051,9730,-4384,-12374,16340.386531535905
1735574983798,41,51,994,996.151594889051,9791,-4383,-14265,17848.377937504574
1735574983828,112,95,915,926.7113898080675,9800,-4378,-16112,19359.840598517334
1735574983858,112,95,915,926.7113898080675,9747,-4391,-17897,20846.76231456578
1735574983888,112,95,915,926.7113898080675,9707,-4413,16314,19489.664286487852
1735574983918,167,72,1019,1035.1009612593352,9692,-4445,14526,18019.36638730674
1735574983948,167,72,1019,1035.1009612593352,9683,-4491,12808,16672.56530951371
1735574983978,167,72,1019,1035.1009612593352,9689,-4538,11086,15406.802426201226
1735574984008,167,72,1019,1035.1009612593352,9705,-4583,9360,14240.804541878946
1735574984038,157,97,967,984.4526397953332,9705,-4633,7627,13184.189129407998
1735574984069,157,97,967,984.4526397953332,9714,-4682,5884,12284.314225873579
1735574984099,157,97,967,984.4526397953332,9735,-4729,4136,11586.205677442465
1735574984128,165,83,1049,1065.1361415330905,9783,-4764,2374,11137.264520518493
1735574984158,165,83,1049,1065.1361415330905,9841,-4785,610,10959.63530415132
1735574984188,165,83,1049,1065.1361415330905,9894,-4795,-1155,11055.192716547279
1735574984218,176,2,1151,1164.380092581456,9942,-4792,-2931,11419.167614147715
1735574984248,176,2,1151,1164.380092581456,10038,-4767,-4710,12069.375833074384
1735574984279,176,2,1151,1164.380092581456,10108,-4724,-6483,12904.15161876208
1735574984309,176,2,1151,1164.380092581456,10152,-4669,-8248,13888.562524609953
1735574984339,263,104,1075,1111.5799566382977,10069,-4649,-9866,14843.716448383135
1735574984368,263,104,1075,1111.5799566382977,9949,-4659,-11451,15868.657252584417
1735574984398,263,104,1075,1111.5799566382977,9853,-4688,-13039,17002.19027066807
1735574984428,102,-79,919,928.0118533725741,9835,-4719,-14655,18269.24221198022
1735574984458,102,-79,919,928.0118533725741,9986,-4707,-16384,19756.30281707587
1735574984488,102,-79,919,928.0118533725741,10105,-4668,17892,21071.898656741872
1735574984518,293,36,1221,1256.1791273540568,10219,-4614,16156,19665.535665218988
1735574984548,293,36,1221,1256.1791273540568,10108,-4616,14616,18360.462303547807
1735574984578,293,36,1221,1256.1791273540568,10017,-4636,13074,17110.296929042466
1735574984609,293,36,1221,1256.1791273540568,9946,-4671,11529,15926.675673221955
1735574984638,-2,63,1223,1224.6232073580836,10038,-4580,9595,14621.965291984521
1735574984668,-2,63,1223,1224.6232073580836,10142,-4441,7565,13409.394840931487
1735574984698,-2,63,1223,1224.6232073580836,10178,-4282,5561,12363.330012581562
1735574984728,199,90,1049,1071.495216974859,10015,-4178,3739,11477.63172435847
1735574984758,199,90,1049,1071.495216974859,9722,-4172,2107,10787.136645097253
1735574984788,199,90,1049,1071.495216974859,9481,-4222,470,10389.203289954432
1735574984818,67,-30,915,917.9400851907493,9283,-4311,-1159,10300.586925025194
1735574984848,67,-30,915,917.9400851907493,9319,-4393,-2928,10710.52725126079
1735574984878,67,-30,915,917.9400851907493,9369,-4466,-4704,11395.215355577971
1735574984908,67,-30,915,917.9400851907493,9431,-4527,-6487,12309.291571816795
1735574984938,208,153,782,823.5271701650165,9326,-4624,-8123,13203.741174379327
1735574984969,208,153,782,823.5271701650165,9179,-4758,-9709,14182.992843543283
1735574984998,208,153,782,823.5271701650165,9086,-4912,-11305,15312.94109568766
1735574985028,242,257,782,857.9842655899932,9081,-5062,-12949,16606.173731477098
1735574985058,242,257,782,857.9842655899932,9074,-5209,-14603,17964.374912587413
1735574985088,242,257,782,857.9842655899932,9107,-5353,-16277,19404.452762188375
1735574985118,436,106,867,976.2279446932463,9160,-5494,-17957,20893.623070209724
1735574985148,436,106,867,976.2279446932463,9095,-5653,16685,19825.858342074374
1735574985178,436,106,867,976.2279446932463,9070,-5817,15316,18726.511821479195
1735574985208,-72,103,948,956.2933650297904,9189,-5968,13840,17652.205103045908
1735574985238,-72,103,948,956.2933650297904,10227,-5929,11301,16354.117860649041
1735574985268,-72,103,948,956.2933650297904,10979,-5688,8885,15226.12918636907
1735574985298,-72,103,948,956.2933650297904,11405,-5307,6655,14231.20862752001
1735574985328,215,49,1000,1024.0244137714687,11211,-4953,4913,13204.404530307302
1735574985358,215,49,1000,1024.0244137714687,10915,-4670,3300,12322.180204817652
1735574985388,215,49,1000,1024.0244137714687,10615,-4433,1686,11626.362715828196
1735574985418,217,175,1083,1118.3036260336457,10300,-4259,80,11146.097119619944
1735574985448,217,175,1083,1118.3036260336457,9872,-4186,-1507,10828.205252949354
1735574985479,217,175,1083,1118.3036260336457,9507,-4191,-3104,10843.539366830371
1735574985508,98,14,1090,1094.486180817282,9186,-4251,-4693,11156.964013565697
1735574985538,98,14,1090,1094.486180817282,9109,-4313,-6396,11936.694098451213
1735574985568,98,14,1090,1094.486180817282,9062,-4387,-8105,12925.039187561482
1735574985598,98,14,1090,1094.486180817282,9041,-4468,-9820,14076.047207934478
1735574985628,-31,300,1218,1254.7848421143763,9045,-4508,-11726,15480.089308527906
1735574985658,-31,300,1218,1254.7848421143763,9021,-4555,-13690,17015.9503407832
1735574985688,-31,300,1218,1254.7848421143763,9016,-4605,-15660,18647.516751567753
1735574985718,336,345,1283,1370.4050496112454,8931,-4684,-17428,20135.48611283075
1735574985748,336,345,1283,1370.4050496112454,8658,-4820,17137,19795.709964535246
1735574985778,336,345,1283,1370.4050496112454,8452,-4992,15700,18516.111038768373
1735574985808,167,324,972,1038.0987428949136,8307,-5173,14235,17274.298914861927
1735574985838,167,324,972,1038.0987428949136,8425,-5336,12467,15964.949420527457
1735574985868,167,324,972,1038.0987428949136,8573,-5472,10670,14740.692419286144
1735574985898,167,324,972,1038.0987428949136,8739,-5576,8847,13628.327336837783
1735574985928,-8,201,1099,1117.2582512561721,9347,-5602,6693,12788.473794788806
1735574985958,-8,201,1099,1117.2582512561721,9927,-5488,4485,12197.487364207433
1735574985988,-8,201,1099,1117.2582512561721,10321,-5267,2360,11825.13974547447
1735574986018,19,125,1366,1371.8389118260204,10557,-4976,279,11674.273681904155
1735574986048,19,125,1366,1371.8389118260204,10659,-4642,-1725,11753.215304758098
1735574986078,19,125,1366,1371.8389118260204,10627,-4291,-3672,12034.508465242774
1735574986108,214,285,819,893.186430707498,10374,-3961,-5485,12385.258253262222
1735574986138,214,285,819,893.186430707498,9636,-3796,-6908,12449.199813642643
1735574986168,214,285,819,893.186430707498,9007,-3760,-8360,12851.196403448203
1735574986198,214,285,819,893.186430707498,8481,-3835,-9822,13531.676540621269
1735574986228,115,166,958,979.0531139830974,8323,-3994,-11472,14725.187570961532
1735574986258,115,166,958,979.0531139830974,8280,-4167,-13166,16101.734223368612
1735574986288,115,166,958,979.0531139830974,8287,-4339,-14870,17567.532268363706
1735574986318,128,267,917,963.6192194015227,8252,-4490,-16542,19023.49515730482
1735574986348,128,267,917,963.6192194015227,8174,-4647,17806,20136.099945123435
1735574986378,128,267,917,963.6192194015227,8146,-4808,16142,18709.311692309795
1735574986409,86,264,985,1023.3850692676731,8191,-4959,14453,17337.05196969773
1735574986439,86,264,985,1023.3850692676731,8361,-5073,12675,16009.287148402329
1735574986468,86,264,985,1023.3850692676731,8535,-5152,10880,14756.819745460063
1735574986498,86,264,985,1023.3850692676731,8702,-5197,9077,13606.08474176168
1735574986528,-7,295,1119,1157.2532134325659,8983,-5171,7067,12544.959904280284
1735574986558,-7,295,1119,1157.2532134325659,9218,-5088,5036,11671.356562113935
1735574986588,-7,295,1119,1157.2532134325659,9373,-4964,3035,11032.02837197222
1735574986618,50,312,978,1027.7781861861051,9396,-4828,1126,10623.665845648573
1735574986648,50,312,978,1027.7781861861051,9318,-4709,-699,10463.67077081461
1735574986678,50,312,978,1027.7781861861051,9224,-4609,-2515,10613.683714903134
1735574986709,27,159,1099,1110.7704533340811,9130,-4535,-4329,11075.349475298737
1735574986739,27,159,1099,1110.7704533340811,9193,-4463,-6172,11938.308171596174
1735574986769,27,159,1099,1110.7704533340811,9224,-4381,-8005,12975.18254206853
1735574986799,27,159,1099,1110.7704533340811,9225,-4296,-9830,14148.679832408394
1735574986829,50,269,956,994.382723100115,9009,-4221,-11531,15229.671138931399
1735574986858,50,269,956,994.382723100115,8784,-4199,-13228,16424.683893457433
1735574986888,50,269,956,994.382723100115,8596,-4220,-14930,17737.094350541185
1735574986918,93,296,928,978.4932294093812,8451,-4287,-16589,19104.781888312675
1735574986948,93,296,928,978.4932294093812,8322,-4384,17793,20126.251240606136
1735574986978,93,296,928,978.4932294093812,8236,-4500,16171,18697.137133796714
1735574987009,20,258,962,996.1967677120821,8190,-4624,14518,17298.260028106874
1735574987039,20,258,962,996.1967677120821,8275,-4742,12720,15898.446119039432
1735574987068,20,258,962,996.1967677120821,8378,-4837,10907,14579.098120254215
1735574987098,20,258,962,996.1967677120821,8490,-4908,9083,13366.72933069268
1735574987128,-64,310,993,1042.230780585567,8737,-4946,7051,12268.442688458874
1735574987158,-64,310,993,1042.230780585567,8960,-4930,4984,11376.588064969215
1735574987188,-64,310,993,1042.230780585567,9131,-4870,2931,10755.59491613551
1735574987218,-4,357,1069,1127.0430337835376,9263,-4784,953,10468.907965972383
1735574987248,-4,357,1069,1127.0430337835376,9305,-4687,-942,10461.278984904284
1735574987278,-4,357,1069,1127.0430337835376,9310,-4586,-2823,10755.316127385564
1735574987309,137,171,1032,1055.004265394221,9243,-4492,-4673,11289.288817281627
1735574987339,137,171,1032,1055.004265394221,9133,-4431,-6311,11952.998410440789
1735574987369,137,171,1032,1055.004265394221,9030,-4390,-7949,12806.232896523474
1735574987398,137,171,1032,1055.004265394221,8936,-4370,-9587,13815.193266834887
1735574987428,-74,155,889,905.440224421248,9114,-4316,-11637,15398.461643943527
1735574987458,-74,155,889,905.440224421248,9287,-4208,-13751,17118.575700098416
1735574987488,-74,155,889,905.440224421248,9386,-4066,-15841,18856.474564456636
1735574987518,-213,62,1540,1555.8962047643151,9561,-3898,-17999,20750.20785438064
1735574987548,-213,62,1540,1555.8962047643151,9772,-3654,15761,18901.13279673999
1735574987578,-213,62,1540,1555.8962047643151,9849,-3366,13561,17094.837758808942
1735574987608,-106,308,880,938.3496150156401,9695,-3082,11476,15335.916177392206
1735574987638,-106,308,880,938.3496150156401,9042,-2959,9663,13560.494607498651
1735574987668,-106,308,880,938.3496150156401,8490,-2997,7830,11931.932324648846
1735574987698,-106,308,880,938.3496150156401,8052,-3164,5994,10524.905510264689
1735574987728,68,239,764,803.3934279044109,7728,-3441,4414,9541.795480935441
1735574987758,68,239,764,803.3934279044109,7494,-3755,2904,8870.923119946425
1735574987788,68,239,764,803.3934279044109,7357,-4091,1397,8533.07324473428
1735574987818,41,171,916,932.7261119964423,7466,-4457,-200,8697.471184200613
1735574987848,41,171,916,932.7261119964423,7764,-4780,-1900,9313.328942972003
1735574987878,41,171,916,932.7261119964423,8109,-5027,-3650,10215.141212925057
1735574987908,194,301,914,981.6481039557913,8453,-5203,-5454,11325.65821486769
1735574987938,194,301,914,981.6481039557913,8488,-5348,-7088,12283.606636489138
1735574987968,194,301,914,981.6481039557913,8555,-5481,-8742,13403.43053102451
1735574987998,194,301,914,981.6481039557913,8648,-5598,-10416,14649.865664913108
1735574988028,9,199,1065,1083.4698888294035,9143,-5660,-12521,16504.711145609304
1735574988059,9,199,1065,1083.4698888294035,9656,-5607,-14712,18469.42687253722
1735574988088,9,199,1065,1083.4698888294035,10031,-5461,-16849,20355.153720863913
1735574988119,20,213,907,931.8894784254193,10168,-5296,17193,20664.82734019329
1735574988148,20,213,907,931.8894784254193,10173,-5139,15336,19107.38459339739
1735574988178,20,213,907,931.8894784254193,10127,-4983,13506,17601.0924092796
1735574988208,-6,131,1059,1067.0885623977047,10101,-4843,11649,16161.189652992753
1735574988238,-6,131,1059,1067.0885623977047,10223,-4693,9696,14850.804489993126
1735574988269,-6,131,1059,1067.0885623977047,10271,-4521,7771,13649.956886378799
1735574988299,-6,131,1059,1067.0885623977047,10256,-4343,5872,12590.77316926963
1735574988328,-18,60,1039,1040.8866412823252,10172,-4173,3989,11695.966569719665
1735574988358,-18,60,1039,1040.8866412823252,10077,-4019,2114,11052.931104462743
1735574988388,-18,60,1039,1040.8866412823252,9959,-3889,244,10694.182437194533
1735574988418,-55,120,942,951.2039739193692,9808,-3792,-1611,10638.207038782428
1735574988448,-55,120,942,951.2039739193692,9641,-3736,-3483,10910.447561855563
1735574988478,-55,120,942,951.2039739193692,9492,-3721,-5358,11517.467994311944
1735574988509,-19,97,956,961.0962490822654,9361,-3749,-7225,12404.99685610601
1735574988539,-19,97,956,961.0962490822654,9250,-3829,-9036,13486.031180447419
1735574988568,-19,97,956,961.0962490822654,9181,-3931,-10853,14748.936605735344
1735574988598,-19,97,956,961.0962490822654,9151,-4043,-12677,16149.086011288688
1735574988628,154,156,1009,1032.5371664012875,9063,-4163,-14409,17523.921336276308
1735574988659,154,156,1009,1032.5371664012875,8966,-4310,-16082,18910.208354219685
1735574988688,154,156,1009,1032.5371664012875,8921,-4469,-17764,20374.393193418055
1735574988718,-7,120,1025,1032.024224521886,8993,-4620,16446,19305.16420546585
1735574988748,-7,120,1025,1032.024224521886,9209,-4723,14492,17808.157512780483
1735574988778,-7,120,1025,1032.024224521886,9418,-4778,12527,16384.557882347635
1735574988809,-70,122,947,957.3886358214203,9604,-4785,10549,15047.074200654424
1735574988839,-70,122,947,957.3886358214203,9803,-4733,8483,13800.774869549898
1735574988868,-70,122,947,957.3886358214203,9941,-4640,6437,12719.593153870921
1735574988898,-70,122,947,957.3886358214203,10018,-4521,4414,11844.119258095978
1735574988928,-75,159,1029,1043.9094788342522,10064,-4400,2418,11246.813771019773
1735574988959,-75,159,1029,1043.9094788342522,10054,-4275,437,10933.869854722068
1735574988989,-75,159,1029,1043.9094788342522,10007,-4155,-1529,10942.664894805104
1735574989018,-22,207,985,1006.7561770359296,9867,-4066,-3418,11205.925619956613
1735574989048,-22,207,985,1006.7561770359296,9709,-4019,-5287,11763.052792536468
1735574989078,-22,207,985,1006.7561770359296,9568,-4007,-7159,12603.727781890562
1735574989108,-75,102,909,917.7744821033106,9446,-4025,-9034,13676.282279918034
1735574989139,-75,102,909,917.7744821033106,9459,-4045,-10973,15041.324243563131
1735574989168,-75,102,909,917.7744821033106,9476,-4060,-12913,16523.430182622495
1735574989198,-15,205,981,1002.3028484445208,9505,-4073,-14863,18106.438716655466
1735574989229,-15,205,981,1002.3028484445208,9431,-4108,-16765,19669.383569395355
1735574989259,-15,205,981,1002.3028484445208,9382,-4157,17327,20137.71342531222
1735574989288,-15,205,981,1002.3028484445208,9356,-4215,15414,18517.352861572843
1735574989318,64,193,1064,1083.2548176675698,9300,-4278,13537,16971.789917389386
1735574989349,64,193,1064,1083.2548176675698,9257,-4356,11684,15530.056052699874
1735574989379,64,193,1064,1083.2548176675698,9244,-4439,9822,14199.575380975306
1735574989409,2,135,1034,1042.777540993284,9249,-4521,7959,13012.652419856606
1735574989439,2,135,1034,1042.777540993284,9358,-4582,6028,12037.59411178164
1735574989469,2,135,1034,1042.777540993284,9465,-4618,4092,11298.522602535253
1735574989499,-69,90,1025,1031.2545757474243,9572,-4640,2156,10853.622436771973
1735574989528,-69,90,1025,1031.2545757474243,9781,-4633,140,10823.689297092744
1735574989558,-69,90,1025,1031.2545757474243,9945,-4582,-1865,11107.473790200902
1735574989588,-69,90,1025,1031.2545757474243,10058,-4498,-3856,11673.221663277023
1735574989618,1,120,971,978.387448815652,9993,-4415,-5729,12335.871067743858
1735574989648,1,120,971,978.387448815652,9895,-4356,-7570,13198.130966163353
1735574989678,1,120,971,978.387448815652,9800,-4319,-9410,14256.291979333195
1735574989709,2,125,896,904.6795012599766,9727,-4306,-11235,15471.954950813424
1735574989739,2,125,896,904.6795012599766,9669,-4310,-13054,16806.920509123614
1735574989768,2,125,896,904.6795012599766,9623,-4326,-14874,18236.016039694634
1735574989798,-27,163,784,801.2203192630601,9590,-4347,-16713,19753.199183929675
1735574989828,-27,163,784,801.2203192630601,9558,-4369,17377,20307.723998518395
1735574989858,-27,163,784,801.2203192630601,9539,-4396,15464,18693.652211379136
1735574989888,-27,163,784,801.2203192630601,9531,-4427,13548,17146.037268127002
1735574989918,22,156,1099,1110.2346598805136,9576,-4464,11640,15719.945038071857
1735574989948,22,156,1099,1110.2346598805136,9614,-4494,9748,14410.015128375126
1735574989978,22,156,1099,1110.2346598805136,9654,-4515,7854,13238.967369096428
1735574990008,-27,89,1002,1006.307110180585,9720,-4525,5951,12262.48041792524
1735574990039,-27,89,1002,1006.307110180585,9832,-4507,4017,11537.658427948021
1735574990068,-27,89,1002,1006.307110180585,9916,-4465,2091,11074.094184175969
1735574990098,-39,55,936,938.4252767269219,9947,-4406,189,10880.779659564841
1735574990128,-39,55,936,938.4252767269219,9949,-4336,-1685,10982.83761147364
1735574990158,-39,55,936,938.4252767269219,9930,-4268,-3553,11377.369335659276
1735574990188,-39,55,936,938.4252767269219,9895,-4205,-5415,12038.076050598784
1735574990234,-5,114,972,978.6751248499166,9862,-4173,-7283,12950.48501022259
1735574990247,-5,114,972,978.6751248499166,9804,-4156,-9138,14031.884976723548
1735574990278,-5,114,972,978.6751248499166,9754,-4152,-10993,15271.727767348395
1735574990308,17,62,1093,1094.8890354734583,9710,-4146,-12850,16631.173019363367
1735574990339,17,62,1093,1094.8890354734583,9684,-4143,-14693,18078.40020577042
1735574990369,17,62,1093,1094.8890354734583,9663,-4145,-16538,19597.449783071264
1735574990398,29,127,884,893.5468650272352,9638,-4147,17608,20497.080694576973
1735574990428,29,127,884,893.5468650272352,9545,-4156,15749,18878.83370338327
1735574990458,29,127,884,893.5468650272352,9472,-4185,13888,17323.67030972363
1735574990488,29,127,884,893.5468650272352,9422,-4229,12022,15848.88037054984
1735574990518,-47,146,1054,1065.101403623148,9508,-4274,10048,14478.654771766609
1735574990548,-47,146,1054,1065.101403623148,9603,-4292,8042,13240.567850360498
1735574990578,-47,146,1054,1065.101403623148,9685,-4288,6037,12191.453481845387
1735574990609,10,99,1102,1106.4831675176988,9695,-4276,4093,11359.130688569438
1735574990639,10,99,1102,1106.4831675176988,9674,-4274,2210,10804.51072469272
1735574990669,10,99,1102,1106.4831675176988,9656,-4276,328,10565.51446925326
1735574990699,-17,119,992,999.2567237702232,9626,-4283,-1534,10646.930120931573
1735574990728,-17,119,992,999.2567237702232,9579,-4299,-3391,11033.472844032382
1735574990758,-17,119,992,999.2567237702232,9545,-4324,-5251,11720.793573815725
1735574990788,-17,119,992,999.2567237702232,9525,-4355,-7114,12660.989139873709
1735574990818,-38,199,854,877.7021134758648,9477,-4408,-8984,13782.461645148882
1735574990848,-38,199,854,877.7021134758648,9437,-4472,-10868,15072.132463589882
1735574990878,-38,199,854,877.7021134758648,9425,-4542,-12761,16501.62143548324
1735574990909,51,199,1020,1040.4816192513927,9458,-4612,-14653,18039.809228481325
1735574990938,51,199,1020,1040.4816192513927,9481,-4681,-16495,19593.012708616305
1735574990968,51,199,1020,1040.4816192513927,9520,-4744,17653,20609.811862314513
1735574990998,-141,147,931,953.0220354220568,9573,-4787,15770,19059.134240568223
1735574991028,-141,147,931,953.0220354220568,9833,-4745,13598,17438.7074635708
1735574991059,-141,147,931,953.0220354220568,10021,-4647,11450,15909.66844406256
1735574991088,-141,147,931,953.0220354220568,10131,-4511,9330,14492.590589677195
1735574991118,-106,188,841,868.2516916194289,10121,-4403,7326,13247.313916413395
1735574991148,-106,188,841,868.2516916194289,10062,-4307,5346,12180.878827079761
1735574991178,-106,188,841,868.2516916194289,9986,-4226,3375,11356.491403598207
1735574991209,23,154,937,949.849461756967,9866,-4179,1488,10817.399918649582
1735574991238,23,154,937,949.849461756967,9713,-4181,-285,10578.485477609733
1735574991299,23,154,937,949.849461756967,9589,-4214,-2063,10675.330720872305
1735574991300,23,119,1000,1007.3182218147351,9517,-4265,-3862,11121.08618795844
1735574991329,23,119,1000,1007.3182218147351,9535,-4308,-5700,11914.910364748868
1735574991359,23,119,1000,1007.3182218147351,9562,-4347,-7541,12930.388006552626
1735574991387,23,119,1000,1007.3182218147351,9594,-4379,-9386,14117.98402747361
1735574991419,-55,57,990,993.1636320365341,9708,-4367,-11380,15582.694022536667
1735574991449,-55,57,990,993.1636320365341,9827,-4319,-13397,17166.92456440582
1735574991479,-55,57,990,993.1636320365341,9906,-4246,-15402,18798.376419254935
1735574991509,17,96,1150,1154.1252098451016,9925,-4180,-17327,20401.052766952984
1735574991539,17,96,1150,1154.1252098451016,9875,-4136,16826,19943.32963674822
1735574991568,17,96,1150,1154.1252098451016,9824,-4105,14982,18379.943552688077
1735574991599,46,120,956,964.5993987143056,9739,-4085,13162,16875.23599834977
1735574991629,46,120,956,964.5993987143056,9565,-4099,11419,15449.420280385928
1735574991659,46,120,956,964.5993987143056,9427,-4148,9672,14128.75850880041
1735574991688,46,120,956,964.5993987143056,9326,-4223,7920,12943.508218408177
1735574991719,26,221,933,959.1694323736552,9279,-4323,6083,11907.605090865249
1735574991749,26,221,933,959.1694323736552,9248,-4435,4228,11093.724036589336
1735574991778,26,221,933,959.1694323736552,9254,-4548,2361,10578.049962067678
1735574991808,-56,149,949,962.2567225018488,9333,-4648,455,10436.274143582086
1735574991839,-56,149,949,962.2567225018488,9507,-4706,-1523,10716.763224033644
1735574991868,-56,149,949,962.2567225018488,9665,-4726,-3507,11315.756713538869
1735574991899,0,118,993,999.9864999088737,9810,-4720,-5484,12189.698765761195
1735574991928,0,118,993,999.9864999088737,9923,-4709,-7378,13231.609652646197
1735574991958,0,118,993,999.9864999088737,10011,-4674,-9266,14419.610015530934
1735574991989,0,118,993,999.9864999088737,10070,-4623,-11146,15716.56276034935
1735574992018,-64,110,1067,1074.5627017536017,10141,-4537,-13116,17188.766855129543
1735574992048,-64,110,1067,1074.5627017536017,10186,-4430,-15094,18740.55314018239
1735574992078,-64,110,1067,1074.5627017536017,10187,-4316,-17057,20330.865057837553
1735574992108,-114,55,806,815.8780546135556,10142,-4201,16992,20229.597845730892
1735574992138,-114,55,806,815.8780546135556,10102,-4085,15024,18559.585259374737
1735574992199,-114,55,806,815.8780546135556,10036,-3981,13066,16949.631647914946
1735574992199,45,138,889,900.7718912133082,9952,-3899,11113,15418.925838073157
1735574992229,45,138,889,900.7718912133082,9701,-3893,9330,14011.200876441677
1735574992258,45,138,889,900.7718912133082,9496,-3941,7542,12750.970982635008
1735574992288,45,138,889,900.7718912133082,9341,-4030,5748,11684.805732231922
1735574992318,-44,123,1086,1093.8285971759926,9374,-4136,3782,10921.62515379465
1735574992348,-44,123,1086,1093.8285971759926,9456,-4222,1771,10506.077336475304
1735574992378,-44,123,1086,1093.8285971759926,9549,-4285,-248,10469.294627624155
1735574992408,-37,80,908,912.2680527125785,9602,-4331,-2197,10760.24042482323
1735574992438,-37,80,908,912.2680527125785,9653,-4366,-4108,11363.011440634917
1735574992469,-37,80,908,912.2680527125785,9705,-4390,-6021,12235.667779079326
1735574992498,-76,126,932,943.5443815740731,9769,-4400,-7949,13340.913087191597
1735574992528,-76,126,932,943.5443815740731,9840,-4385,-9946,14662.085151846582
1735574992558,-76,126,932,943.5443815740731,9892,-4356,-11939,16104.847748426559
1735574992588,-76,126,932,943.5443815740731,9924,-4316,-13925,17635.738062241682
1735574992618,-29,118,966,973.6123458543447,9918,-4302,-15865,19198.233069738475
1735574992648,-29,118,966,973.6123458543447,9901,-4294,-17787,20804.94186485509
1735574992678,-29,118,966,973.6123458543447,9886,-4289,16291,19532.670017178913
1735574992709,82,83,854,861.9332920823978,9827,-4294,14429,17977.886583244428
1735574992739,82,83,854,861.9332920823978,9735,-4327,12657,16543.663530185808
1735574992799,82,83,854,861.9332920823978,9669,-4377,10881,15200.126677103714
1735574992800,103,13,1234,1238.359398559239,9668,-4443,9059,13974.117288759244
1735574992829,103,13,1234,1238.359398559239,9797,-4500,7175,12950.360381085926
1735574992859,103,13,1234,1238.359398559239,9919,-4530,5288,12119.010066833016
1735574992889,-65,105,1131,1137.7218464985192,9989,-4536,3435,11495.853252368874
1735574992918,-65,105,1131,1137.7218464985192,10033,-4505,1457,11094.095862214279
1735574992948,-65,105,1131,1137.7218464985192,10059,-4466,-513,11017.794969956556
1735574992978,-65,105,1131,1137.7218464985192,10066,-4423,-2479,11270.879557514578
1735574993009,68,94,860,867.7902972492836,9951,-4439,-4256,11697.891177472971
1735574993038,68,94,860,867.7902972492836,9835,-4490,-5986,12357.973984436121
1735574993069,68,94,860,867.7902972492836,9753,-4562,-7722,13249.986301879711
1735574993100,53,90,1039,1044.236563236511,9747,-4645,-9511,14388.855235910882
1735574993129,53,90,1039,1044.236563236511,9860,-4707,-11414,15800.469771497303
1735574993158,53,90,1039,1044.236563236511,9971,-4745,-13323,17304.282562417895
1735574993188,63,91,1067,1072.7250346663864,10066,-4759,-15234,18869.21283466801
1735574993218,63,91,1067,1072.7250346663864,10127,-4758,-17129,20459.65136555362
1735574993248,63,91,1067,1072.7250346663864,10175,-4746,16976,20352.879820801772
1735574993278,63,91,1067,1072.7250346663864,10210,-4724,15086,18818.811652174
1735574993308,13,98,880,885.5354312504949,10175,-4695,13221,17331.142230101283
1735574993339,13,98,880,885.5354312504949,10148,-4669,11339,15917.10985072353
1735574993369,13,98,880,885.5354312504949,10119,-4649,9460,14611.603676530513
1735574993398,-18,77,936,939.3343387740065,10127,-4638,7557,13460.14197547708
1735574993428,-18,77,936,939.3343387740065,10238,-4612,5572,12535.324965871447
1735574993458,-18,77,936,939.3343387740065,10319,-4563,3595,11841.737836989974
1735574993489,-11,46,995,996.1234863208476,10358,-4498,1633,11409.94553010662
1735574993519,-11,46,995,996.1234863208476,10374,-4426,-302,11282.754805454208
1735574993549,-11,46,995,996.1234863208476,10364,-4351,-2228,11458.956366091983
1735574993578,-11,46,995,996.1234863208476,10334,-4280,-4147,11929.273448119127
1735574993609,20,62,1133,1134.8713583486015,10273,-4207,-6084,12658.927047739868
1735574993638,20,62,1133,1134.8713583486015,10193,-4153,-8005,13609.727513804235
1735574993668,20,62,1133,1134.8713583486015,10113,-4118,-9924,14755.218365039536
1735574993698,-39,91,866,871.6409811384501,10017,-4103,-11826,16032.12942812027
1735574993728,-39,91,866,871.6409811384501,9933,-4107,-13754,17455.78568841861
1735574993758,-39,91,866,871.6409811384501,9866,-4130,-15685,18984.574817466942
1735574993788,-20,126,794,804.1840585338657,9828,-4168,-17613,20595.620335401407
1735574993818,-20,126,794,804.1840585338657,9784,-4222,16487,19630.92226565018
1735574993848,-20,126,794,804.1840585338657,9763,-4284,14582,18063.874141501317
1735574993879,-20,126,794,804.1840585338657,9766,-4349,12670,16577.61915957777
1735574993909,55,-13,1121,1122.4237167843523,9897,-4413,10746,15261.117062653047
1735574993939,55,-13,1121,1122.4237167843523,10041,-4445,8846,14100.759624928012
1735574993968,55,-13,1121,1122.4237167843523,10166,-4447,6947,13091.3778495619
1735574993998,65,71,1160,1163.9871133307277,10184,-4426,5081,12211.465636851295
1735574994028,65,71,1160,1163.9871133307277,10120,-4417,3236,11506.3454232871
1735574994058,65,71,1160,1163.9871133307277,10066,-4422,1391,11082.117171371181
1735574994088,-62,37,842,845.0899360423126,10010,-4437,-447,10958.415852667757
1735574994118,-62,37,842,845.0899360423126,10065,-4428,-2416,11258.26207724798
1735574994148,-62,37,842,845.0899360423126,10106,-4406,-4382,11863.641768023848
1735574994178,-62,37,842,845.0899360423126,10132,-4377,-6343,12729.85475172439
1735574994208,-174,30,995,1010.5449025154696,10264,-4322,-8424,13963.99498710881
1735574994237,-174,30,995,1010.5449025154696,10372,-4225,-10529,15371.689887582303
1735574994269,-174,30,995,1010.5449025154696,10423,-4104,-12616,16871.431504172964
1735574994299,-76,82,879,886.0818246640656,10346,-3994,-14596,18331.25658540625
1735574994328,-76,82,879,886.0818246640656,10171,-3939,-16477,19759.971938239185
1735574994358,-76,82,879,886.0818246640656,10016,-3924,17639,20660.405441326653
1735574994388,-29,59,889,891.4275068674962,9902,-3942,15723,18994.780783151986
1735574994418,-29,59,889,891.4275068674962,9832,-3990,13793,17402.160009608004
1735574994449,-29,59,889,891.4275068674962,9789,-4051,11858,15901.17247249397
1735574994479,-29,59,889,891.4275068674962,9772,-4121,9916,14519.01102003852
1735574994509,68,176,933,951.8870731342032,9689,-4211,8081,13300.819636398352
1735574994539,68,176,933,951.8870731342032,9596,-4332,6273,12255.609695155928
1735574994569,68,176,933,951.8870731342032,9553,-4469,4454,11448.575719276176
1735574994599,0,25,974,974.320789062822,9644,-4598,2540,10981.800398841713
1735574994629,0,25,974,974.320789062822,9884,-4671,528,10944.883781932085
1735574994659,0,25,974,974.320789062822,10101,-4691,-1487,11235.96239758749
1735574994689,118,101,1022,1033.735459389877,10276,-4666,-3482,11810.675509893581
1735574994719,118,101,1022,1033.735459389877,10245,-4654,-5295,12436.10734916678
1735574994748,118,101,1022,1033.735459389877,10218,-4649,-7108,13287.000752615317
1735574994778,118,101,1022,1033.735459389877,10194,-4648,-8921,14321.51461962037
1735574994809,-116,-22,1027,1033.7644799469558,10325,-4597,-10907,15706.708216555116
1735574994839,-116,-22,1027,1033.7644799469558,10492,-4480,-12965,17269.733321623702
1735574994868,-116,-22,1027,1033.7644799469558,10582,-4329,-14994,18855.741857588102
1735574994898,97,61,1005,1011.5112456122275,10551,-4211,-16926,20384.935565264856
1735574994928,97,61,1005,1011.5112456122275,10375,-4174,17298,20598.148096370216
1735574994958,97,61,1005,1011.5112456122275,10223,-4174,15521,19048.187472827958
1735574994988,30,94,862,867.6289529516636,10103,-4196,13738,17561.59642515452
1735574995018,30,94,862,867.6289529516636,10031,-4210,11872,16102.467047008666
1735574995048,30,94,862,867.6289529516636,9977,-4240,10003,14750.530092169569
1735574995078,30,94,862,867.6289529516636,9943,-4280,8130,13538.040810988863
1735574995109,-41,58,914,916.7556926466287,9987,-4315,6158,12501.214261022807
1735574995138,-41,58,914,916.7556926466287,10058,-4328,4157,11712.198640733515
1735574995168,-41,58,914,916.7556926466287,10119,-4325,2157,11213.939316761081
1735574995198,99,114,871,883.9898189458971,10079,-4357,283,10984.069327894831
1735574995228,99,114,871,883.9898189458971,9948,-4449,-1454,10994.108467720336
1735574995258,99,114,871,883.9898189458971,9865,-4564,-3201,11331.139483741254
1735574995288,0,-35,1011,1011.6056543930545,9849,-4681,-5005,11998.524367604543
1735574995318,0,-35,1011,1011.6056543930545,10106,-4723,-7029,13185.022032594408
1735574995348,0,-35,1011,1011.6056543930545,10326,-4709,-9052,14516.875042515176
1735574995378,0,-35,1011,1011.6056543930545,10496,-4649,-11062,15941.990496798071
1735574995409,-22,93,1021,1025.4628223392597,10528,-4546,-13036,17362.090772715135
1735574995438,-22,93,1021,1025.4628223392597,10493,-4443,-15004,18840.47011090753
1735574995499,-22,93,1021,1025.4628223392597,10433,-4349,-16960,20381.434934763547
1735574995499,157,140,1262,1279.411192697641,10334,-4307,17173,20500.091072968433
1735574995529,157,140,1262,1279.411192697641,10159,-4339,15446,18989.763505636398
1735574995558,157,140,1262,1279.411192697641,10024,-4404,13714,17548.49247086484
1735574995588,167,65,895,912.7644822187156,9888,-4490,11981,16170.250616487056
1735574995618,167,65,895,912.7644822187156,9774,-4592,10263,14897.875989549651
1735574995648,167,65,895,912.7644822187156,9707,-4714,8535,13758.410882075008
1735574995678,167,65,895,912.7644822187156,9684,-4846,6793,12783.130328679279
1735574995709,-94,50,977,982.784310009068,9915,-4926,4827,12077.7742154753
1735574995739,-94,50,977,982.784310009068,10202,-4926,2746,11657.049197803019
1735574995768,-94,50,977,982.784310009068,10430,-4866,679,11529.262639041579
1735574995798,73,150,659,679.7867312620922,10441,-4801,-1217,11556.174583312593
1735574995828,73,150,659,679.7867312620922,10265,-4798,-2936,11705.175137519302
1735574995858,73,150,659,679.7867312620922,10121,-4826,-4659,12142.124937588149
1735574995888,-80,32,726,731.0950690573695,10085,-4868,-6467,12931.617764224242
1735574995919,-80,32,726,731.0950690573695,10418,-4814,-8618,14351.977006670544
1735574995948,-80,32,726,731.0950690573695,10657,-4688,-10737,15837.681711664747
1735574995978,-80,32,726,731.0950690573695,10796,-4512,-12817,17354.747160359322
1735574996009,160,25,1509,1517.6646533407834,10907,-4348,-14772,18870.075172081324
1735574996038,160,25,1509,1517.6646533407834,10900,-4195,-16619,20312.53765534971
1735574996068,160,25,1509,1517.6646533407834,10850,-4045,17548,21024.196274768747
1735574996098,72,236,646,691.5171725994952,10424,-3904,15816,19340.29079409097
1735574996129,72,236,646,691.5171725994952,9837,-3873,14067,17596.79479337075
1735574996158,72,236,646,691.5171725994952,9354,-3966,12306,15958.198770537983
1735574996188,-121,103,996,1008.5960539284298,9114,-4171,10495,14512.314150403443
1735574996218,-121,103,996,1008.5960539284298,9479,-4368,8346,13363.62903555767
1735574996248,-121,103,996,1008.5960539284298,9846,-4467,6167,12447.07572082696
1735574996278,-121,103,996,1008.5960539284298,10173,-4473,3984,11805.503547074983
1735574996309,-43,73,862,866.153566060892,10210,-4457,2042,11326.019291878325
1735574996338,-43,73,862,866.153566060892,10225,-4440,133,11148.179851437633
1735574996368,-43,73,862,866.153566060892,10232,-4421,-1773,11286.389768211977
1735574996399,32,88,966,970.5276915163214,10291,-4407,-3691,11787.697442673018
1735574996428,32,88,966,970.5276915163214,10332,-4394,-5571,12533.694626884764
1735574996458,32,88,966,970.5276915163214,10360,-4372,-7447,13487.097278510302
1735574996488,74,62,942,946.9339998120249,10359,-4345,-9307,14587.945537326357
1735574996518,74,62,942,946.9339998120249,10309,-4334,-11092,15750.920639759443
1735574996548,74,62,942,946.9339998120249,10265,-4332,-12877,17028.023314524795
1735574996578,74,62,942,946.9339998120249,10229,-4339,-14663,18397.362066339836
1735574996609,159,36,1062,1074.4398540635023,10170,-4364,-16421,19802.08668297359
1735574996638,159,36,1062,1074.4398540635023,10117,-4407,17849,20984.80733769076
1735574996668,159,36,1062,1074.4398540635023,10085,-4461,16115,19526.92937970535
1735574996698,98,117,969,980.945462296452,10027,-4515,14390,18110.716551257712
1735574996728,98,117,969,980.945462296452,9963,-4577,12630,16725.04702534495
1735574996758,98,117,969,980.945462296452,9927,-4650,10863,15432.841540040512
1735574996788,45,52,960,962.4598692932605,9933,-4726,9071,14257.720925870306
1735574996818,45,52,960,962.4598692932605,10082,-4771,7173,13261.26291120118
1735574996848,45,52,960,962.4598692932605,10217,-4784,5272,12452.619363009535
1735574996879,94,14,1061,1065.2478584817713,10354,-4773,3359,11885.694174090127
1735574996909,94,14,1061,1065.2478584817713,10494,-4745,1481,11611.736390393988
1735574996939,94,14,1061,1065.2478584817713,10597,-4690,-386,11594.891331961675
1735574996969,94,14,1061,1065.2478584817713,10663,-4614,-2242,11832.798865864323
1735574996998,120,64,917,927.0302044701672,10594,-4528,-4052,12212.87533711861
1735574997028,120,64,917,927.0302044701672,10498,-4462,-5847,12818.145614713541
1735574997058,120,64,917,927.0302044701672,10401,-4416,-7640,13640.068071677648
1735574997088,134,29,1096,1104.5419865265421,10324,-4384,-9442,14661.37087724064
1735574997118,134,29,1096,1104.5419865265421,10294,-4357,-11250,15859.142000751492
1735574997148,134,29,1096,1104.5419865265421,10261,-4336,-13056,17162.405221879595
1735574997178,205,107,989,1015.6746526324264,10216,-4324,-14848,18534.47425744793
1735574997209,205,107,989,1015.6746526324264,10041,-4358,-16534,19828.943516990512
1735574997239,205,107,989,1015.6746526324264,9907,-4425,17774,20824.129033407375
1735574997268,205,107,989,1015.6746526324264,9813,-4516,16076,19368.195605166733
1735574997298,151,109,891,910.2543600554737,9764,-4610,14350,17958.571658124707
1735574997328,151,109,891,910.2543600554737,9763,-4707,12592,16614.165100901097
1735574997358,151,109,891,910.2543600554737,9788,-4802,10823,15362.339567917381
1735574997388,180,64,912,931.7939686432833,9845,-4895,9058,14245.434847697701
1735574997418,180,64,912,931.7939686432833,9927,-4977,7307,13293.160158517612
1735574997448,180,64,912,931.7939686432833,10018,-5044,5545,12511.965672906876
1735574997478,149,79,1063,1076.295033901021,10120,-5090,3768,11938.187634645386
1735574997509,149,79,1063,1076.295033901021,10246,-5100,1932,11607.029766482035
1735574997539,149,79,1063,1076.295033901021,10351,-5087,100,11533.896566208663
1735574997568,149,79,1063,1076.295033901021,10431,-5056,-1726,11719.55515367371
1735574997598,265,169,990,1038.6943727584164,10317,-5048,-3394,11976.728643498607
1735574997628,265,169,990,1038.6943727584164,10167,-5077,-5016,12421.91909489029
1735574997658,265,169,990,1038.6943727584164,10050,-5131,-6643,13094.23957318637
1735574997688,206,91,969,994.8256128588567,10026,-5197,-8319,14026.23420594423
1735574997718,206,91,969,994.8256128588567,10110,-5246,-10064,15199.233928063612
1735574997748,206,91,969,994.8256128588567,10193,-5280,-11815,16473.30792524683
1735574997778,201,123,967,995.2984477029993,10264,-5301,-13560,17813.587426456244
1735574997809,201,123,967,995.2984477029993,10294,-5314,-15295,19187.02835250941
1735574997839,201,123,967,995.2984477029993,10323,-5322,-17031,20614.144998034724
1735574997869,201,123,967,995.2984477029993,10349,-5325,17232,20794.211935055388
1735574997898,181,107,948,971.0375893857045,10460,-5301,15413,19366.79555321427
1735574997928,181,107,948,971.0375893857045,10550,-5254,13594,17991.771786013738
1735574997958,181,107,948,971.0375893857045,10608,-5192,11788,16686.62554263144
1735574997988,160,66,1093,1106.6187238611137,10636,-5118,10000,15469.919844653365
1735574998018,160,66,1093,1106.6187238611137,10660,-5031,8216,14368.340787996365
1735574998048,160,66,1093,1106.6187238611137,10654,-4940,6447,13396.832648055286
1735574998078,306,125,902,960.6586282337759,10602,-4850,4700,12570.397925284626
1735574998109,306,125,902,960.6586282337759,10331,-4833,3159,11834.97912968164
1735574998138,306,125,902,960.6586282337759,10104,-4859,1613,11327.06784653469
1735574998168,306,125,902,960.6586282337759,9922,-4920,62,11075.031738103507
1735574998198,322,100,1124,1173.4819981576197,9886,-4995,-1553,11184.580009995905
1735574998228,322,100,1124,1173.4819981576197,9876,-5074,-3171,11547.124880246165
1735574998258,322,100,1124,1173.4819981576197,9889,-5155,-4798,12140.31095153662
1735574998289,240,95,1034,1065.7302660617272,9933,-5218,-6482,12957.944937373364
1735574998319,240,95,1034,1065.7302660617272,10033,-5252,-8255,14013.908020249028
1735574998349,240,95,1034,1065.7302660617272,10126,-5269,-10030,15195.36564219499
1735574998378,233,91,928,961.1212202422752,10173,-5275,-11768,16425.63173823156
1735574998409,233,91,928,961.1212202422752,10166,-5286,-13441,17662.101602017807
1735574998438,233,91,928,961.1212202422752,10164,-5297,-15117,18970.73519924834
1735574998499,233,91,928,961.1212202422752,10165,-5309,-16794,20335.956874462536
1735574998500,332,98,1127,1178.964376052135,10172,-5345,17556,20982.176841309865
1735574998529,332,98,1127,1178.964376052135,10155,-5391,15948,19660.254576174746
1735574998559,332,98,1127,1178.964376052135,10153,-5439,14333,18387.52346021617
1735574998589,306,102,1057,1105.119450557269,10133,-5482,12740,17176.658959180622
1735574998619,306,102,1057,1105.119450557269,10125,-5523,11137,16032.838893970089
1735574998648,306,102,1057,1105.119450557269,10130,-5564,9528,14978.57736902941
1735574998678,237,86,1013,1043.9032522221587,10153,-5603,7907,14035.585737688329
1735574998709,237,86,1013,1043.9032522221587,10291,-5614,6168,13246.354253152072
1735574998739,237,86,1013,1043.9032522221587,10407,-5604,4431,12623.162282090807
1735574998769,237,86,1013,1043.9032522221587,10498,-5576,2700,12189.740768367472
1735574998799,269,132,933,979.9357121770795,10512,-5544,980,11924.700415524074
1735574998829,269,132,933,979.9357121770795,10493,-5517,-718,11876.694068637114
1735574998858,269,132,933,979.9357121770795,10470,-5492,-2413,12066.711772475548
1735574998889,245,119,975,1012.3294918157823,10507,-5453,-4171,12551.075611277305
1735574998919,245,119,975,1012.3294918157823,10568,-5391,-5968,13280.155458427434
1735574998948,245,119,975,1012.3294918157823,10597,-5318,-7750,14164.746132564465
1735574998978,290,72,994,1037.9402680308729,10586,-5241,-9511,15165.440910174686
1735574999009,290,72,994,1037.9402680308729,10525,-5181,-11185,16208.720214748602
1735574999039,290,72,994,1037.9402680308729,10460,-5130,-12854,17348.020521085396
1735574999068,290,72,994,1037.9402680308729,10394,-5089,-14519,18567.027710433355
1735574999099,270,118,1045,1085.7481291717706,10338,-5036,-16246,19903.970860107285
1735574999129,270,118,1045,1085.7481291717706,10271,-4992,-17976,21296.715263157366
1735574999159,270,118,1045,1085.7481291717706,10206,-4960,16296,19857.584243809717
1735574999189,269,105,963,1005.3631184800843,10086,-4953,14635,18451.092921558873
1735574999219,269,105,963,1005.3631184800843,9967,-4974,13003,17121.90918092956
1735574999249,269,105,963,1005.3631184800843,9874,-5014,11366,15868.901285218206
1735574999279,302,65,1062,1106.0167268174564,9821,-5069,9707,14709.610837816206
1735574999309,302,65,1062,1106.0167268174564,9815,-5133,8053,13694.258760517125
1735574999339,302,65,1062,1106.0167268174564,9828,-5196,6391,12823.138500382815
1735574999369,302,65,1062,1106.0167268174564,9855,-5258,4721,12126.641332207364
1735574999399,256,125,1018,1057.111630812943,9829,-5315,3089,11593.118087900251
1735574999428,256,125,1018,1057.111630812943,9823,-5373,1427,11287.018516862636
1735574999458,256,125,1018,1057.111630812943,9834,-5432,-243,11237.136156512477
1735574999489,310,148,871,936.2932233013331,9833,-5497,-1895,11423.481211959865
1735574999518,310,148,871,936.2932233013331,9799,-5576,-3504,11806.36239491233
1735574999548,310,148,871,936.2932233013331,9792,-5660,-5125,12417.104694734599
1735574999579,219,117,1067,1095.5085577027685,9854,-5743,-6786,13271.51690651826
1735574999609,219,117,1067,1095.5085577027685,10150,-5779,-8654,14536.542126654467
1735574999638,219,117,1067,1095.5085577027685,10404,-5768,-10522,15881.60961615667
1735574999668,219,117,1067,1095.5085577027685,10605,-5718,-12375,17271.426518964785
1735574999698,234,100,996,1027.9941634075556,10619,-5641,-14131,18554.492798241616
1735574999728,234,100,996,1027.9941634075556,10606,-5563,-15863,19876.342067895694
1735574999758,234,100,996,1027.9941634075556,10571,-5487,-17582,21236.288140821598
1735574999789,212,159,928,965.0953320786501,10496,-5404,16723,20470.17247118353
1735574999818,212,159,928,965.0953320786501,10389,-5327,15028,19030.213713986504
1735574999848,212,159,928,965.0953320786501,10282,-5267,13340,17646.99444664728
1735574999878,196,116,1000,1025.6081122924097,10224,-5225,11625,16339.260264773311
1735574999909,196,116,1000,1025.6081122924097,10298,-5178,9835,15152.152091369728
1735574999939,196,116,1000,1025.6081122924097,10344,-5118,8055,14073.922161217179
1735574999969,196,116,1000,1025.6081122924097,10362,-5050,6286,13129.635943163084
1735574999999,225,145,1084,1116.5598953929878,10269,-4987,4604,12309.319477534085
1735575000029,225,145,1084,1116.5598953929878,10162,-4944,2937,11676.27290705386
1735575000058,225,145,1084,1116.5598953929878,10064,-4920,1272,11274.239663941866
1735575000089,308,126,1019,1071.9612866144,9889,-4916,-310,11047.872057550268
1735575000119,308,126,1019,1071.9612866144,9675,-4955,-1800,11018.060174095983
1735575000148,308,126,1019,1071.9612866144,9504,-5026,-3294,11244.426530508348
1735575000178,295,149,1015,1067.450701437776,9385,-5119,-4801,11718.873111353327
1735575000209,295,149,1015,1067.450701437776,9316,-5223,-6346,12423.336951077194
1735575000239,295,149,1015,1067.450701437776,9282,-5335,-7901,13305.77130421232
1735575000269,295,149,1015,1067.450701437776,9280,-5450,-9470,14335.33396890355
1735575000299,180,149,946,974.4316292075089,9498,-5535,-11262,15737.88019397784
1735575000329,180,149,946,974.4316292075089,9747,-5571,-13126,17272.287804457173
1735575000358,180,149,946,974.4316292075089,9962,-5566,-14989,18838.575344223882
1735575000388,192,156,971,1002.0184629037531,10122,-5523,-16834,20404.45953707179
1735575000418,192,156,971,1002.0184629037531,10222,-5455,17351,20863.92844121164
1735575000448,192,156,971,1002.0184629037531,10280,-5372,15554,19402.672496334108
1735575000479,153,164,978,1003.3887581590697,10299,-5277,13779,17993.8036834906
1735575000509,153,164,978,1003.3887581590697,10317,-5161,11976,16628.31879655908
1735575000539,153,164,978,1003.3887581590697,10295,-5043,10191,15338.688177285567
1735575000568,153,164,978,1003.3887581590697,10243,-4928,8425,14148.66983147179
1735575000598,155,169,1075,1099.186517384561,10162,-4821,6677,13080.161084635005
1735575000629,155,169,1075,1099.186517384561,10067,-4729,4937,12168.890623224452
1735575000657,155,169,1075,1099.186517384561,9966,-4656,3203,11456.818973868794
1735575000689,205,149,1041,1071.4042187708615,9802,-4606,1556,10941.46132836012
1735575000719,205,149,1041,1071.4042187708615,9649,-4588,-71,10684.474062863366
1735575000749,205,149,1041,1071.4042187708615,9521,-4598,-1702,10709.241289652597
1735575000779,134,198,1021,1048.6186151313545,9431,-4623,-3347,11023.533870769392
1735575000809,134,198,1021,1048.6186151313545,9406,-4639,-5103,11663.351405149378
1735575000839,134,198,1021,1048.6186151313545,9391,-4660,-6861,12529.158072272854
1735575000869,93,147,954,969.728828075148,9378,-4684,-8613,13567.258713535317
1735575000899,93,147,954,969.728828075148,9438,-4700,-10402,14811.058301147828
1735575000928,93,147,954,969.728828075148,9492,-4704,-12190,16149.977708962944
1735575000959,93,147,954,969.728828075148,9537,-4697,-13977,17560.544040547262
1735575000989,163,141,1000,1022.961387345583,9587,-4686,-15757,19030.297265150642
1735575001019,163,141,1000,1022.961387345583,9610,-4672,-17505,20508.64961424813
1735575001049,163,141,1000,1022.961387345583,9623,-4654,16747,19867.658493139043
1735575001078,44,117,939,947.2834844965894,9602,-4628,15025,18421.927505014235
1735575001109,44,117,939,947.2834844965894,9678,-4578,13173,16974.972665662823
1735575001139,44,117,939,947.2834844965894,9724,-4515,11331,15599.133373364048
1735575001169,135,177,981,1005.9398590373085,9754,-4442,9490,14315.445504768617
1735575001198,135,177,981,1005.9398590373085,9665,-4390,7746,13140.960429131503
1735575001228,135,177,981,1005.9398590373085,9579,-4355,6004,12114.919809887311
1735575001259,135,177,981,1005.9398590373085,9501,-4338,4262,11280.597900820683
1735575001289,102,134,996,1010.136624422657,9433,-4331,2519,10681.030427819218
1735575001319,102,134,996,1010.136624422657,9394,-4332,763,10372.831291407376
1735575001349,102,134,996,1010.136624422657,9362,-4341,-993,10367.129496635025
1735575001379,45,168,987,1002.2065655342715,9337,-4357,-2738,10661.128551893557
1735575001409,45,168,987,1002.2065655342715,9327,-4374,-4510,11245.661607926853
1735575001439,45,168,987,1002.2065655342715,9323,-4393,-6284,12070.85059140407
1735575001469,16,151,984,995.6470258078411,9339,-4414,-8071,13108.827483798847
1735575001499,16,151,984,995.6470258078411,9420,-4424,-9918,14376.192124481364
1735575001529,16,151,984,995.6470258078411,9489,-4417,-11764,15746.19655662916
1735575001558,16,151,984,995.6470258078411,9542,-4397,-13607,17191.097172664693
1735575001588,89,147,1045,1059.034938045011,9534,-4362,-15361,18597.970883943228
1735575001619,89,147,1045,1059.034938045011,9503,-4335,-17084,20024.042798595892
1735575001649,89,147,1045,1059.034938045011,9471,-4314,17193,20097.50447194875
1735575001679,182,131,982,1007.2780152470319,9405,-4313,15527,18658.60988927096
1735575001709,182,131,982,1007.2780152470319,9308,-4338,13940,17314.17650366312
1735575001739,182,131,982,1007.2780152470319,9234,-4380,12351,16031.16829803742
1735575001769,226,129,949,984.0315035607346,9184,-4427,10744,14811.40509877439
1735575001799,226,129,949,984.0315035607346,9122,-4475,9159,13679.319793030647
1735575001829,226,129,949,984.0315035607346,9081,-4533,7571,12662.25457807574
1735575001859,226,129,949,984.0315035607346,9060,-4596,5978,11787.421261667032
1735575001888,116,150,936,955.014136021033,9115,-4653,4261,11085.565163761386
1735575001918,116,150,936,955.014136021033,9200,-4692,2492,10623.79066058815
1735575001948,116,150,936,955.014136021033,9280,-4714,722,10433.670495084652
1735575001979,71,148,949,963.0918959268632,9371,-4727,-1047,10547.813944130794
1735575002009,71,148,949,963.0918959268632,9477,-4720,-2844,10962.675996306742
1735575002039,71,148,949,963.0918959268632,9561,-4693,-4636,11615.914341970674
1735575002069,67,131,958,969.2337179442325,9621,-4648,-6415,12462.73525354687
1735575002098,67,131,958,969.2337179442325,9673,-4582,-8178,13470.0162212226
1735575002129,67,131,958,969.2337179442325,9698,-4509,-9933,14596.12188219871
1735575002159,67,131,958,969.2337179442325,9697,-4432,-11679,15813.711582041706
1735575002189,240,141,1029,1065.9840524135434,9592,-4380,-13245,16929.88154122763
1735575002219,240,141,1029,1065.9840524135434,9453,-4362,-14745,18049.966149552747
1735575002248,240,141,1029,1065.9840524135434,9335,-4368,-16246,19239.39097268934
1735575002278,172,98,1045,1063.5849754486005,9238,-4371,-17804,20528.728674713395
1735575002309,172,98,1045,1063.5849754486005,9201,-4372,16568,19449.200729078817
1735575002339,172,98,1045,1063.5849754486005,9170,-4379,14940,18068.4294004764
1735575002399,179,102,986,1007.2938995149331,9141,-4398,13317,16740.453219671206
1735575002399,179,102,986,1007.2938995149331,9105,-4437,11712,15484.151187585325
1735575002429,179,102,986,1007.2938995149331,9084,-4481,10103,14306.258280906297
1735575002458,179,102,986,1007.2938995149331,9076,-4527,8491,13227.417964213575
1735575002488,111,138,906,923.1473338530529,9060,-4559,6848,12237.776963157974
1735575002519,111,138,906,923.1473338530529,9062,-4592,5175,11401.181210734263
1735575002548,111,138,906,923.1473338530529,9072,-4623,3498,10766.118938596212
1735575002578,50,135,906,917.3663390380094,9102,-4640,1793,10372.601072055168
1735575002609,50,135,906,917.3663390380094,9162,-4639,36,10269.559922411476
1735575002639,50,135,906,917.3663390380094,9210,-4627,-1718,10449.150826741856
1735575002669,83,162,954,971.2100699642689,9262,-4610,-3472,10912.906487274598
1735575002697,83,162,954,971.2100699642689,9282,-4596,-5186,11583.321458027485
1735575002729,83,162,954,971.2100699642689,9295,-4579,-6897,12447.20350118853
1735575002759,83,162,954,971.2100699642689,9300,-4560,-8607,13467.147025261142
1735575002789,138,128,978,995.9477897962322,9322,-4536,-10325,14631.49360113314
1735575002819,138,128,978,995.9477897962322,9329,-4512,-12017,15868.102407030276
1735575002849,138,128,978,995.9477897962322,9328,-4487,-13707,17176.338434020214
1735575002879,124,96,1036,1047.801507920274,9326,-4461,-15401,18549.00531025855
1735575002909,124,96,1036,1047.801507920274,9338,-4433,-17104,19984.90803081165
1735575002939,124,96,1036,1047.801507920274,9340,-4402,17196,20057.806958887602
1735575002969,188,105,980,1003.3787918827067,9319,-4372,15519,18622.49999328769
1735575002998,188,105,980,1003.3787918827067,9211,-4360,13960,17283.9150946769
1735575003029,188,105,980,1003.3787918827067,9119,-4366,12399,15998.54112098975
1735575003059,188,105,980,1003.3787918827067,9045,-4388,10836,14781.253837208804
1735575003088,187,83,956,977.647175621144,8976,-4416,9247,13622.651760945811
1735575003118,187,83,956,977.647175621144,8930,-4453,7655,12576.690105111122
1735575003148,187,83,956,977.647175621144,8902,-4498,6060,11670.527323133261
1735575003179,130,121,936,952.6998478009746,8932,-4543,4392,10941.167076687934
1735575003209,130,121,936,952.6998478009746,8998,-4577,2651,10437.467796357505
1735575003239,130,121,936,952.6998478009746,9060,-4597,908,10200.023186248156
1735575003299,85,128,958,970.2437837986905,9115,-4604,-839,10246.168161805661
1735575003299,85,128,958,970.2437837986905,9191,-4593,-2648,10610.468132933627
1735575003329,85,128,958,970.2437837986905,9250,-4568,-4455,11237.266082103779
1735575003358,85,128,958,970.2437837986905,9290,-4532,-6256,12082.245652195621
1735575003389,91,127,987,999.2892474153817,9292,-4491,-8012,13065.316261001875
1735575003419,91,127,987,999.2892474153817,9281,-4451,-9762,14186.084942647143
1735575003449,91,127,987,999.2892474153817,9263,-4414,-11509,15418.937901165566
1735575003479,150,103,1016,1032.1651999558985,9232,-4379,-13221,16709.28801595089
1735575003509,150,103,1016,1032.1651999558985,9182,-4353,-14881,18019.486507667192
1735575003539,150,103,1016,1032.1651999558985,9136,-4337,-16540,19386.790992838396
1735575003569,145,97,1019,1033.825420465177,9095,-4330,17798,20450.8368777417
1735575003599,145,97,1019,1033.825420465177,9068,-4328,16126,19000.212735651145
1735575003629,145,97,1019,1033.825420465177,9046,-4332,14454,17593.022935243393
1735575003659,145,97,1019,1033.825420465177,9029,-4340,12781,16239.224180976134
1735575003689,138,120,933,950.7539113777024,8983,-4340,11109,14931.16773732048
1735575003719,138,120,933,950.7539113777024,8941,-4350,9432,13704.98467711657
1735575003749,138,120,933,950.7539113777024,8909,-4367,7754,12592.278824740182
1735575003779,156,138,938,960.8454610393911,8890,-4390,6068,11624.320367230077
1735575003809,156,138,938,960.8454610393911,8868,-4419,4386,10835.404053379827
1735575003839,156,138,938,960.8454610393911,8856,-4451,2702,10273.31207547011
1735575003869,145,135,977,996.8846472887423,8859,-4481,1018,9979.858015022057
1735575003899,145,135,977,996.8846472887423,8886,-4499,-673,9982.73138975501
1735575003929,145,135,977,996.8846472887423,8913,-4512,-2367,10266.567196487831
1735575003959,145,135,977,996.8846472887423,8938,-4520,-4061,10807.865885548359
1735575003988,144,115,945,962.801121727639,8957,-4526,-5739,11560.65076022972
1735575004018,144,115,945,962.801121727639,8978,-4526,-7417,12494.04053939317
1735575004049,144,115,945,962.801121727639,8995,-4523,-9096,13568.521290103798
