Timestamp,Acc_X,Acc_Y,Acc_Z,Acc_Betrag,Ori_X,Ori_Y,Ori_Z,Ori_Betrag
1735573458574,310,-33,1088,1131.7831064298496,9762,-5175,-5776,12467.535642619996
1735573458574,310,-33,1088,1131.7831064298496,9957,-5273,-7475,13521.168699487482
1735573458575,264,140,879,928.4056225594501,9935,-5277,-9143,14496.392758200227
1735573458605,264,140,879,928.4056225594501,9890,-5289,-10835,15594.320953475339
1735573458635,264,140,879,928.4056225594501,9856,-5307,-12530,16801.960748674544
1735573458665,-46,-14,967,968.1947118219558,10033,-5289,-14396,18327.013559224535
1735573458695,-46,-14,967,968.1947118219558,10451,-5143,-16526,20218.371002630258
1735573458725,-46,-14,967,968.1947118219558,10715,-4916,17411,21026.67833967125
1735573458755,93,-22,850,855.3554816566034,10831,-4654,15436,19422.676772268027
1735573458785,93,-22,850,855.3554816566034,10745,-4457,13699,17971.713190455717
1735573458815,93,-22,850,855.3554816566034,10625,-4276,11974,16569.594955821944
1735573458845,93,-22,850,855.3554816566034,10482,-4117,10256,15231.79401777742
1735573458875,62,167,693,715.5291748070096,10119,-4021,8569,13856.058710903328
1735573458905,62,167,693,715.5291748070096,9762,-4007,6861,12586.739609605023
1735573458935,62,167,693,715.5291748070096,9468,-4064,5146,11516.962967727213
1735573458965,155,229,1143,1175.974064339856,9405,-4183,3342,10822.221490987884
1735573458995,155,229,1143,1175.974064339856,9406,-4318,1539,10463.578785482527
1735573459025,155,229,1143,1175.974064339856,9444,-4448,-275,10442.675184070411
1735573459055,-207,-141,924,957.3431986492618,9418,-4544,-2068,10659.422310800901
1735573459085,-207,-141,924,957.3431986492618,9827,-4497,-4228,11604.693964081947
1735573459115,-207,-141,924,957.3431986492618,10128,-4356,-6357,12726.451547858893
1735573459145,-207,-141,924,957.3431986492618,10312,-4150,-8444,13959.261441781224
1735573459175,28,-208,1001,1022.765368987433,10321,-3995,-10409,15193.101954505539
1735573459205,28,-208,1001,1022.765368987433,10258,-3865,-12278,16459.46757948142
1735573459235,28,-208,1001,1022.765368987433,10171,-3751,-14141,17818.16834020826
1735573459265,193,463,1133,1239.0750582591838,9937,-3671,-15910,19114.08669018742
1735573459295,193,463,1133,1239.0750582591838,9360,-3732,-17553,20239.69448880096
1735573459326,193,463,1133,1239.0750582591838,8896,-3907,16799,19406.438776859603
1735573459356,90,80,990,997.2963451251588,8537,-4160,15157,17886.324888025487
1735573459386,90,80,990,997.2963451251588,8673,-4406,13388,16549.087860060445
1735573459416,90,80,990,997.2963451251588,8854,-4613,11592,15298.612649518256
1735573459446,90,80,990,997.2963451251588,9065,-4775,9769,14156.56070519955
1735573459476,21,213,1061,1082.3728562745835,9103,-4878,7917,13013.008184120996
1735573459505,21,213,1061,1082.3728562745835,9152,-4972,6021,12030.475011403332
1735573459535,21,213,1061,1082.3728562745835,9222,-5054,4111,11291.081480531437
1735573459565,64,85,995,1000.6727736877825,9454,-5148,2169,10981.10108322476
1735573459595,64,85,995,1000.6727736877825,9776,-5199,232,11074.908622647863
1735573459625,64,85,995,1000.6727736877825,10054,-5189,-1703,11441.540368324539
1735573459655,128,88,1044,1055.4923021983627,10271,-5123,-3608,12031.468488925198
1735573459689,128,88,1044,1055.4923021983627,10360,-5034,-5378,12711.948709776956
1735573459716,128,88,1044,1055.4923021983627,10405,-4929,-7131,13542.90319687769
1735573459746,128,88,1044,1055.4923021983627,10411,-4817,-8868,14499.442541008259
1735573459775,59,38,952,954.5831550996487,10417,-4679,-10652,15616.40272277838
1735573459805,59,38,952,954.5831550996487,10411,-4529,-12446,16846.47375565581
1735573459835,59,38,952,954.5831550996487,10364,-4382,-14225,18137.393555855815
1735573459865,160,110,964,983.3595476731793,10265,-4255,-15995,19476.01794515501
1735573459896,160,110,964,983.3595476731793,10084,-4177,-17706,20799.92358159039
1735573459925,160,110,964,983.3595476731793,9918,-4135,16579,19756.725184098705
1735573459955,98,55,1102,1107.715216109267,9777,-4112,14811,18217.134626499304
1735573459985,98,55,1102,1107.715216109267,9743,-4068,12870,16646.668525563906
1735573460015,98,55,1102,1107.715216109267,9703,-4033,10931,15162.455572894518
1735573460045,98,55,1102,1107.715216109267,9661,-4008,8994,13794.601154074735
1735573460075,83,152,1076,1089.848154560992,9573,-4054,7399,12760.189888869209
1735573460105,83,152,1076,1089.848154560992,9489,-4119,5797,11858.013788151877
1735573460135,83,152,1076,1089.848154560992,9435,-4199,4190,11144.81610435991
1735573460165,-49,98,1338,1342.4786776705246,9412,-4274,2477,10629.59778166606
1735573460196,-49,98,1338,1342.4786776705246,9480,-4328,630,10440.25306206703
1735573460225,-49,98,1338,1342.4786776705246,9551,-4367,-1219,10572.523397940531
1735573460256,-304,19,818,872.8694060396435,9556,-4377,-3059,10946.814422470128
1735573460285,-304,19,818,872.8694060396435,9696,-4312,-5168,11803.134498937136
1735573460315,-304,19,818,872.8694060396435,9783,-4218,-7261,12892.662021475628
1735573460345,-304,19,818,872.8694060396435,9820,-4106,-9338,14159.4449043739
1735573460375,206,173,1364,1390.2737140577751,9777,-4150,-11066,15338.467491897618
1735573460405,206,173,1364,1390.2737140577751,9605,-4255,-12607,16410.286377757093
1735573460435,206,173,1364,1390.2737140577751,9484,-4389,-14152,17592.29038527957
1735573460465,93,-8,1215,1218.5803215217288,9359,-4470,-15784,18886.673529237487
1735573460495,93,-8,1215,1218.5803215217288,9360,-4514,-17529,20377.724038763503
1735573460525,93,-8,1215,1218.5803215217288,9373,-4556,16720,19701.99647243903
1735573460555,150,167,597,637.8071808940379,9340,-4605,15051,18302.30111215527
1735573460585,150,167,597,637.8071808940379,9036,-4712,13618,17008.884854686978
1735573460615,150,167,597,637.8071808940379,8799,-4863,12183,15795.463241070203
1735573460645,150,167,597,637.8071808940379,8626,-5044,10743,14671.804967351494
1735573460674,104,66,982,989.6949024825782,9035,-5257,8783,13653.144802572044
1735573460704,104,66,982,989.6949024825782,9493,-5373,6755,12830.284603234646
1735573460734,104,66,982,989.6949024825782,9909,-5397,4709,12226.633674073988
1735573460764,66,67,1143,1146.8626770455128,10340,-5322,2596,11915.473133703084
1735573460794,66,67,1143,1146.8626770455128,10695,-5141,472,11875.844812054425
1735573460824,66,67,1143,1146.8626770455128,10896,-4893,-1578,12048.001867529736
1735573460854,21,-20,1029,1029.4085680622636,10923,-4612,-3533,12371.92636576859
1735573460884,21,-20,1029,1029.4085680622636,10887,-4317,-5436,12911.752553391038
1735573460915,21,-20,1029,1029.4085680622636,10770,-4030,-7311,13626.61076717171
1735573460944,21,-20,1029,1029.4085680622636,10598,-3770,-9173,14514.628241880671
1735573460974,121,52,934,943.2396302106904,10206,-3610,-10865,15337.625663706884
1735573461004,121,52,934,943.2396302106904,9820,-3548,-12537,16315.54697213673
1735573461034,121,52,934,943.2396302106904,9493,-3568,-14218,17464.226206734726
1735573461065,110,57,1117,1123.8496340703234,9336,-3670,-15935,18829.604908228957
1735573461095,110,57,1117,1123.8496340703234,9284,-3803,-17678,20326.513449187492
1735573461125,110,57,1117,1123.8496340703234,9274,-3943,16571,19394.6478699666
1735573461154,130,24,930,939.3487105436404,9250,-4071,14820,17937.89120827752
1735573461215,130,24,930,939.3487105436404,9177,-4190,13097,16531.93388566504
1735573461215,130,24,930,939.3487105436404,9146,-4320,11365,15214.300542581641
1735573461244,130,24,930,939.3487105436404,9155,-4451,9622,14007.437667182388
1735573461274,164,85,1042,1058.2461906380765,9269,-4591,7905,13018.47406572675
1735573461304,164,85,1042,1058.2461906380765,9377,-4712,6186,12181.858191589656
1735573461334,164,85,1042,1058.2461906380765,9499,-4809,4455,11541.425691828545
1735573461364,132,81,1076,1087.088312879869,9785,-4841,2503,11200.290844437925
1735573461395,132,81,1076,1087.088312879869,10044,-4809,530,11148.511873788359
1735573461424,132,81,1076,1087.088312879869,10239,-4725,-1425,11366.326187471483
1735573461454,1,-22,1139,1139.2128861630736,10346,-4590,-3359,11806.383739316625
1735573461484,1,-22,1139,1139.2128861630736,10521,-4359,-5414,12609.667640346433
1735573461514,1,-22,1139,1139.2128861630736,10578,-4094,-7425,13556.752745403302
1735573461544,63,22,871,873.5525170245919,10496,-3837,-9352,14572.182026038516
1735573461574,63,22,871,873.5525170245919,10218,-3669,-11104,15529.58148180433
1735573461604,63,22,871,873.5525170245919,9954,-3563,-12864,16651.11350630942
1735573461634,63,22,871,873.5525170245919,9716,-3517,-14629,17910.264822162735
1735573461664,208,-32,925,948.637443916273,9514,-3586,-16189,19116.990165818468
1735573461695,208,-32,925,948.637443916273,9348,-3699,-17698,20354.03913231966
1735573461724,208,-32,925,948.637443916273,9233,-3840,16792,19543.928801548576
1735573461754,6,51,817,818.6122403189437,9119,-3980,15298,18248.98257437932
1735573461784,6,51,817,818.6122403189437,9034,-4095,13605,16836.81104009901
1735573461814,6,51,817,818.6122403189437,8993,-4223,11906,15506.79251167049
1735573461844,152,66,932,946.6171348544246,9021,-4363,10175,14280.92556524261
1735573461874,152,66,932,946.6171348544246,9013,-4522,8558,13225.80874653796
1735573461904,152,66,932,946.6171348544246,9044,-4677,6929,12315.815279550112
1735573461934,152,66,932,946.6171348544246,9108,-4823,5286,11582.69351230533
1735573461964,87,56,1107,1111.8246264586876,9381,-4931,3433,11140.171048956116
1735573461994,87,56,1107,1111.8246264586876,9659,-4978,1538,10974.61657644585
1735573462024,87,56,1107,1111.8246264586876,9900,-4970,-355,11083.182079168419
1735573462054,48,42,1009,1011.0138475807341,10072,-4910,-2260,11430.699191213107
1735573462084,48,42,1009,1011.0138475807341,10201,-4808,-4183,12028.081891972635
1735573462114,48,42,1009,1011.0138475807341,10270,-4682,-6082,12821.261560392566
1735573462144,84,145,853,869.3043195567361,10311,-4547,-7973,13804.371010661804
1735573462174,84,145,853,869.3043195567361,10240,-4428,-9832,14870.541617573988
1735573462204,84,145,853,869.3043195567361,10150,-4325,-11681,16067.790327235416
1735573462234,84,145,853,869.3043195567361,10049,-4242,-13525,17375.344313135207
1735573462264,-15,74,951,953.9926624455767,10042,-4151,-15474,18908.126321769694
1735573462294,-15,74,951,953.9926624455767,10044,-4048,-17448,20535.358384990508
1735573462324,-15,74,951,953.9926624455767,10015,-3947,16587,19773.912182469103
1735573462355,54,76,1018,1022.2602408388972,9886,-3879,14748,18173.693653190043
1735573462384,54,76,1018,1022.2602408388972,9710,-3864,13003,16682.104333686442
1735573462415,54,76,1018,1022.2602408388972,9564,-3886,11256,15273.134190466604
1735573462445,49,61,980,983.1185076072976,9465,-3938,9486,13967.042099170461
1735573462475,49,61,980,983.1185076072976,9440,-4003,7672,12806.138879459335
1735573462505,49,61,980,983.1185076072976,9437,-4070,5853,11827.065485571642
1735573462535,49,61,980,983.1185076072976,9453,-4137,4028,11076.947323157225
1735573462565,108,48,962,969.2326862007905,9461,-4206,2279,10601.641288027056
1735573462595,108,48,962,969.2326862007905,9476,-4275,548,10410.115513288025
1735573462625,108,48,962,969.2326862007905,9506,-4340,-1188,10517.175476333938
1735573462656,119,47,1141,1148.1511224573183,9534,-4402,-2932,10902.815416212456
1735573462685,119,47,1141,1148.1511224573183,9564,-4462,-4677,11543.563964391586
1735573462715,119,47,1141,1148.1511224573183,9605,-4514,-6428,12407.715543161037
1735573462745,166,38,940,955.3009996854395,9632,-4554,-8188,13437.175447243368
1735573462775,166,38,940,955.3009996854395,9595,-4597,-9907,14537.712440408222
1735573462805,166,38,940,955.3009996854395,9576,-4646,-11630,15765.214619534998
1735573462835,166,38,940,955.3009996854395,9573,-4697,-13358,17092.112274379666
1735573462865,128,14,1065,1072.7557970013493,9740,-4740,-15152,18625.74304558076
1735573462895,128,14,1065,1072.7557970013493,9905,-4745,-16962,20207.263397105507
1735573462925,128,14,1065,1072.7557970013493,10040,-4720,17231,20493.593169573753
1735573462956,121,73,1000,1009.9356415138541,10100,-4666,15424,19017.92133751741
1735573462986,121,73,1000,1009.9356415138541,10095,-4605,13615,17563.691952434147
1735573463015,121,73,1000,1009.9356415138541,10073,-4547,11813,16176.758235196568
1735573463046,127,60,942,952.4143006066215,10050,-4482,10000,14869.123175224557
1735573463076,127,60,942,952.4143006066215,10033,-4401,8171,13667.301525904812
1735573463106,127,60,942,952.4143006066215,9997,-4325,6350,12608.256580511043
1735573463135,127,60,942,952.4143006066215,9947,-4257,4534,11731.240940326816
1735573463165,-30,-43,1126,1127.2200317595496,10010,-4187,2596,11156.625161759268
1735573463195,-30,-43,1126,1127.2200317595496,10094,-4081,614,10905.062723340934
1735573463224,-30,-43,1126,1127.2200317595496,10128,-3959,-1353,10958.13277889988
1735573463255,-20,110,942,948.611617048832,10023,-3849,-3237,11213.98675761658
1735573463285,-20,110,942,948.611617048832,9808,-3793,-5081,11679.052786934393
1735573463315,-20,110,942,948.611617048832,9620,-3786,-6928,12444.893731968948
1735573463345,73,-3,1221,1223.1839599994762,9518,-3821,-8834,13536.318591108884
1735573463376,73,-3,1221,1223.1839599994762,9571,-3868,-10752,14905.400665530598
1735573463405,73,-3,1221,1223.1839599994762,9628,-3900,-12672,16385.602460697013
1735573463435,73,-3,1221,1223.1839599994762,9682,-3918,-14593,17945.68184828874
1735573463465,98,-18,1211,1215.0921775733725,9566,-3949,-16260,19274.090302787314
1735573463495,98,-18,1211,1215.0921775733725,9476,-4004,-17921,20663.708113501798
1735573463525,98,-18,1211,1215.0921775733725,9415,-4076,16413,19355.68572797151
1735573463555,141,152,906,929.4197114328919,9292,-4172,14791,17958.856561596564
1735573463585,141,152,906,929.4197114328919,9089,-4316,13214,16608.65957866558
1735573463616,141,152,906,929.4197114328919,8951,-4492,11631,15348.57081294542
1735573463645,118,105,962,974.8810183812176,8911,-4686,9999,14189.59188983249
1735573463675,118,105,962,974.8810183812176,9054,-4866,8237,13171.979388079833
1735573463705,118,105,962,974.8810183812176,9226,-5013,6451,12323.337453790673
1735573463735,118,105,962,974.8810183812176,9413,-5125,4643,11680.224441336733
1735573463765,117,82,1005,1015.1049206855417,9724,-5187,2740,11356.440683594486
1735573463795,117,82,1005,1015.1049206855417,10003,-5189,834,11299.614418200295
1735573463825,117,82,1005,1015.1049206855417,10229,-5141,-1061,11497.305901818912
1735573463855,111,23,1116,1121.7423946700062,10354,-5044,-2913,11879.933543585166
1735573463885,111,23,1116,1121.7423946700062,10429,-4919,-4735,12465.184595504392
1735573463915,111,23,1116,1121.7423946700062,10450,-4781,-6535,13219.935173819878
1735573463945,9,90,1028,1031.9714143327808,10450,-4634,-8357,14160.363872443391
1735573463975,9,90,1028,1031.9714143327808,10464,-4450,-10356,15380.004291286788
1735573464005,9,90,1028,1031.9714143327808,10417,-4267,-12330,16695.810192979556
1735573464035,9,90,1028,1031.9714143327808,10322,-4097,-14287,18095.509442952967
1735573464065,-2,20,1072,1072.1884162776614,10232,-3963,-16183,19552.204018984663
1735573464095,-2,20,1072,1072.1884162776614,10140,-3846,17922,20947.777925116545
1735573464125,-2,20,1072,1072.1884162776614,10035,-3752,16031,19281.381952546864
1735573464155,55,27,1067,1068.7576900308134,9866,-3699,14234,17709.52605238209
1735573464185,55,27,1067,1068.7576900308134,9671,-3702,12511,16240.633177311776
1735573464215,55,27,1067,1068.7576900308134,9514,-3745,10784,14860.54766823888
1735573464245,53,-16,988,989.5498976807587,9394,-3820,9045,13588.6592789723
1735573464275,53,-16,988,989.5498976807587,9349,-3913,7283,12480.28280929563
1735573464305,53,-16,988,989.5498976807587,9335,-4012,5515,11560.864760042823
1735573464335,53,-16,988,989.5498976807587,9349,-4110,3741,10876.165776596088
1735573464365,25,135,982,991.5513098170967,9420,-4194,1854,10476.800656689045
1735573464395,25,135,982,991.5513098170967,9471,-4267,-49,10387.951241703053
1735573464425,25,135,982,991.5513098170967,9534,-4327,-1960,10651.83951249736
1735573464455,1,43,874,875.0577123824462,9603,-4376,-3833,11227.594310447808
1735573464485,1,43,874,875.0577123824462,9718,-4401,-5702,12096.327087178157
1735573464515,1,43,874,875.0577123824462,9819,-4402,-7571,13157.142774934078
1735573464545,181,39,829,849.4250996997911,9872,-4379,-9428,14335.941161988632
1735573464575,181,39,829,849.4250996997911,9730,-4387,-11060,15370.174657433141
1735573464605,181,39,829,849.4250996997911,9615,-4420,-12696,16527.947271213085
1735573464635,181,39,829,849.4250996997911,9529,-4474,-14335,17785.126988582342
1735573464665,289,83,909,957.4398153408913,9507,-4610,-15925,19111.27347928442
1735573464695,289,83,909,957.4398153408913,9481,-4758,-17479,20446.10882295211
1735573464725,289,83,909,957.4398153408913,9492,-4908,16954,20040.57494185234
1735573464755,22,28,934,934.6785543704317,9693,-4996,15151,18667.272591356243
1735573464785,22,28,934,934.6785543704317,10084,-4964,13060,17230.55286402616
1735573464815,22,28,934,934.6785543704317,10380,-4851,10999,15882.525051137178
1735573464845,108,-7,1063,1068.495203545622,10569,-4692,9004,14655.737477179373
1735573464876,108,-7,1063,1068.495203545622,10633,-4549,7194,13620.122099305865
1735573464906,108,-7,1063,1068.495203545622,10643,-4392,5404,12718.739285007772
1735573464936,108,-7,1063,1068.495203545622,10607,-4234,3629,11983.523939142442
1735573464965,111,33,1010,1016.6169386745432,10393,-4095,1915,11333.60926624877
1735573464995,111,33,1010,1016.6169386745432,10177,-4001,200,10937.062219810217
1735573465025,111,33,1010,1016.6169386745432,9980,-3952,-1518,10840.803844734024
1735573465055,142,52,979,990.6104178737472,9756,-3936,-3213,10999.772770380305
1735573465085,142,52,979,990.6104178737472,9529,-3970,-4883,11419.563476770905
1735573465115,142,52,979,990.6104178737472,9351,-4048,-6558,12117.543851787786
1735573465145,209,146,869,905.6257505172873,9258,-4161,-8282,13100.229349137366
1735573465175,209,146,869,905.6257505172873,9150,-4305,-10022,14237.13485923344
1735573465205,209,146,869,905.6257505172873,9099,-4466,-11774,15535.894985484421
1735573465236,-54,108,976,983.4408980716635,9123,-4624,-13551,16977.63546551757
1735573465266,-54,108,976,983.4408980716635,9485,-4702,-15691,18928.32559948185
1735573465295,-54,108,976,983.4408980716635,9803,-4694,-17832,20883.31077679016
1735573465325,-54,108,976,983.4408980716635,10049,-4616,16042,19484.24032391307
1735573465355,231,8,1146,1169.0769863443554,10004,-4581,14271,18020.18362836517
1735573465386,231,8,1146,1169.0769863443554,9915,-4579,12613,16684.19117008673
1735573465446,231,8,1146,1169.0769863443554,9842,-4593,10953,15424.941555805
1735573465446,167,39,877,893.6100939447808,9749,-4618,9333,14264.424769334373
1735573465476,167,39,877,893.6100939447808,9640,-4653,7712,13192.988781925042
1735573465505,167,39,877,893.6100939447808,9557,-4705,6087,12268.856629694554
1735573465535,62,62,1013,1016.7875884372311,9537,-4773,4437,11550.88165466169
1735573465565,62,62,1013,1016.7875884372311,9673,-4821,2611,11118.736034280155
1735573465595,62,62,1013,1016.7875884372311,9799,-4841,781,10957.4469197893
1735573465625,62,62,1013,1016.7875884372311,9906,-4837,-1047,11073.464408214802
1735573465655,88,79,997,1003.9890437649208,9968,-4821,-2841,11431.288028914327
1735573465685,88,79,997,1003.9890437649208,10002,-4796,-4621,12016.457922366308
1735573465715,88,79,997,1003.9890437649208,10023,-4766,-6397,12810.03099137547
1735573465745,72,72,1174,1178.4073998409888,10082,-4712,-8250,13853.236733702344
1735573465775,72,72,1174,1178.4073998409888,10143,-4631,-10143,15073.38910132688
1735573465805,72,72,1174,1178.4073998409888,10167,-4540,-12022,16386.212893771397
1735573465835,75,142,1011,1023.6747530343805,10155,-4444,-13876,17759.970073172983
1735573465865,75,142,1011,1023.6747530343805,10056,-4359,-15694,19142.247856508387
1735573465895,75,142,1011,1023.6747530343805,9953,-4295,-17508,20592.214499659818
1735573465925,75,142,1011,1023.6747530343805,9853,-4254,16678,19832.64503287446
1735573465955,7,54,1055,1056.4042786736525,9819,-4219,14845,18291.712522341913
1735573465985,7,54,1055,1056.4042786736525,9817,-4180,12989,16809.521409011024
1735573466015,7,54,1055,1056.4042786736525,9805,-4142,11137,15405.419760590752
1735573466045,170,61,1000,1016.1796101083705,9692,-4127,9369,14097.700308915635
1735573466075,170,61,1000,1016.1796101083705,9500,-4169,7728,12936.481167612776
1735573466105,170,61,1000,1016.1796101083705,9351,-4245,6084,11936.34290727273
1735573466135,186,86,907,929.8607422619798,9253,-4347,4444,11147.35636821574
1735573466166,186,86,907,929.8607422619798,9175,-4468,2835,10591.547290174369
1735573466195,186,86,907,929.8607422619798,9137,-4599,1219,10301.530517355175
1735573466225,186,86,907,929.8607422619798,9137,-4733,-407,10298.140948734388
1735573466255,110,72,974,982.8326408906046,9309,-4848,-2215,10726.919874782323
1735573466285,110,72,974,982.8326408906046,9510,-4920,-4070,11454.754471397455
1735573466315,110,72,974,982.8326408906046,9696,-4953,-5932,12398.921283724645
1735573466345,89,38,1176,1179.974999735164,9862,-4955,-7785,13506.194652825052
1735573466375,89,38,1176,1179.974999735164,10021,-4923,-9640,14750.795571764935
1735573466405,89,38,1176,1179.974999735164,10139,-4862,-11484,16072.355801188574
1735573466435,106,139,846,863.8709394348209,10171,-4775,-13269,17387.243225997616
1735573466465,106,139,846,863.8709394348209,9997,-4695,-14934,18574.374552054236
1735573466495,106,139,846,863.8709394348209,9837,-4646,-16600,19847.213532382826
1735573466525,106,139,846,863.8709394348209,9695,-4626,17733,20732.87703142041
1735573466555,355,219,1333,1396.7372694963071,9666,-4678,16227,19458.436961893934
1735573466585,355,219,1333,1396.7372694963071,9565,-4758,14822,18270.727215959414
1735573466615,355,219,1333,1396.7372694963071,9496,-4853,13413,17135.757759725715
1735573466645,-62,-94,537,548.6793234668133,9451,-4867,11747,15843.014201849344
1735573466675,-62,-94,537,548.6793234668133,9704,-4770,9697,14524.197912449417
1735573466705,-62,-94,537,548.6793234668133,9868,-4624,7679,13331.385561898658
1735573466735,202,145,1560,1579.6926916334075,10093,-4468,5686,12416.209928959803
1735573466766,202,145,1560,1579.6926916334075,10110,-4379,4009,11724.326078713437
1735573466796,202,145,1560,1579.6926916334075,10101,-4287,2340,11219.811495742699
1735573466826,202,145,1560,1579.6926916334075,10072,-4198,677,10932.827493379744
1735573466856,-77,197,753,782.1425701238874,9863,-4104,-1123,10741.634605589597
1735573466885,-77,197,753,782.1425701238874,9713,-4033,-3027,10943.956642823472
1735573466945,-77,197,753,782.1425701238874,9573,-3998,-4932,11486.990772173538
1735573466946,1,65,1143,1144.8471513699983,9521,-3974,-6915,12420.11843743851
1735573466975,1,65,1143,1144.8471513699983,9528,-3946,-8891,13616.298358952039
1735573467005,1,65,1143,1144.8471513699983,9525,-3917,-10864,14969.803271920444
1735573467035,328,267,1213,1284.6174527850694,9531,-3900,-12813,16438.458869370937
1735573467065,328,267,1213,1284.6174527850694,9189,-3978,-14355,17502.23500013641
1735573467095,328,267,1213,1284.6174527850694,8921,-4117,-15898,18689.04315367697
1735573467125,328,267,1213,1284.6174527850694,8725,-4299,-17443,19971.611727649823
1735573467155,111,130,1103,1116.1675501464822,8726,-4450,16845,19485.88209448061
1735573467186,111,130,1103,1116.1675501464822,8857,-4575,15031,18036.29770767826
1735573467246,111,130,1103,1116.1675501464822,9000,-4669,13204,16647.677826051295
1735573467246,34,76,943,946.6683685430712,9103,-4741,11437,15367.064098258978
1735573467276,34,76,943,946.6683685430712,9241,-4787,9649,14192.062957864864
1735573467305,34,76,943,946.6683685430712,9367,-4807,7860,13138.779928136402
1735573467335,68,159,711,731.7280915750058,9489,-4810,6103,12264.739296047022
1735573467365,68,159,711,731.7280915750058,9519,-4820,4455,11562.473178347269
1735573467395,68,159,711,731.7280915750058,9547,-4825,2806,11058.909078204775
1735573467425,68,159,711,731.7280915750058,9571,-4826,1158,10781.246727535736
1735573467455,94,86,692,703.6305848952276,9590,-4832,-520,10751.12663863653
1735573467485,94,86,692,703.6305848952276,9618,-4833,-2189,10984.331295076638
1735573467515,94,86,692,703.6305848952276,9641,-4829,-3857,11451.83701420868
1735573467545,60,38,824,827.0550163078633,9750,-4815,-5598,12230.467243731942
1735573467575,60,38,824,827.0550163078633,9908,-4766,-7390,13247.46466309686
1735573467605,60,38,824,827.0550163078633,10020,-4688,-9170,14368.947212652707
1735573467635,70,-2,901,903.7173230607013,10171,-4569,-11033,15686.047653886559
1735573467665,70,-2,901,903.7173230607013,10414,-4357,-13042,17249.017624201097
1735573467695,70,-2,901,903.7173230607013,10533,-4096,-15005,18784.86970942306
1735573467725,70,-2,901,903.7173230607013,10545,-3811,-16934,20309.630769661962
1735573467755,64,-30,1317,1318.895371134496,10446,-3517,17203,20431.13834322503
1735573467785,64,-30,1317,1318.895371134496,10295,-3248,15345,18761.811053307192
1735573467816,64,-30,1317,1318.895371134496,10104,-3020,13483,17117.315940298584
1735573467845,23,119,1130,1136.4814120785259,9718,-2916,11731,15509.962636963379
1735573467875,23,119,1130,1136.4814120785259,9257,-2959,10009,13950.907174804082
1735573467905,23,119,1130,1136.4814120785259,8890,-3106,8285,12542.749339758011
1735573467935,-75,-13,1018,1020.84180948862,8619,-3331,6523,11310.713991609902
1735573467965,-75,-13,1018,1020.84180948862,8610,-3587,4567,10385.381938089711
1735573467995,-75,-13,1018,1020.84180948862,8677,-3829,2594,9832.619488213708
1735573468025,-75,-13,1018,1020.84180948862,8805,-4040,598,9706.04085093402
1735573468056,40,141,789,802.4973520205534,8641,-4212,-1096,9675.17653585711
1735573468086,40,141,789,802.4973520205534,8479,-4420,-2755,9950.872625051534
1735573468116,40,141,789,802.4973520205534,8393,-4648,-4426,10565.785772956027
1735573468145,28,26,1071,1071.6813892197624,8595,-4910,-6188,11673.622788149358
1735573468175,28,26,1071,1071.6813892197624,8999,-5116,-8042,13108.364543298298
1735573468205,28,26,1071,1071.6813892197624,9405,-5239,-9935,14649.415380826636
1735573468235,-126,-116,947,962.3621979275786,9805,-5275,-11925,16314.695063040559
1735573468265,-126,-116,947,962.3621979275786,10435,-5143,-14255,18399.5842072586
1735573468295,-126,-116,947,962.3621979275786,10852,-4878,-16491,20335.040422875976
1735573468325,-126,-116,947,962.3621979275786,11059,-4528,17373,21086.14222659043
1735573468356,-33,-13,1105,1105.569084227666,11031,-4203,15415,19415.725456443804
1735573468385,-33,-13,1105,1105.569084227666,10871,-3905,13517,17780.240577674984
1735573468415,-33,-13,1105,1105.569084227666,10661,-3646,11627,16190.656750113629
1735573468445,18,-5,1126,1126.1549626938559,10394,-3441,9777,14678.74129481135
1735573468475,18,-5,1126,1126.1549626938559,10100,-3313,7965,13282.589883000981
1735573468505,18,-5,1126,1126.1549626938559,9833,-3256,6145,12043.689218839882
1735573468535,129,60,891,902.2870940005737,9588,-3271,4355,11027.021810080907
1735573468565,129,60,891,902.2870940005737,9256,-3383,2747,10230.553943946536
1735573468595,129,60,891,902.2870940005737,9005,-3561,1142,9750.636389487612
1735573468625,129,60,891,902.2870940005737,8834,-3782,-461,9620.5821549426
1735573468655,77,31,898,901.8281432734287,8789,-4045,-2126,9905.979103551552
1735573468686,77,31,898,901.8281432734287,8834,-4301,-3824,10543.298013430143
1735573468716,77,31,898,901.8281432734287,8936,-4539,-5545,11454.328526805926
1735573468745,122,-54,1089,1097.1421968003965,9134,-4751,-7308,12625.720613097694
1735573468776,122,-54,1089,1097.1421968003965,9397,-4914,-9081,13961.216494274415
1735573468805,122,-54,1089,1097.1421968003965,9665,-5025,-10877,15393.89421166717
1735573468835,132,63,1029,1039.3430617462168,9912,-5085,-12672,16872.597695672117
1735573468865,132,63,1029,1039.3430617462168,10017,-5116,-14426,18292.709504061993
1735573468895,132,63,1029,1039.3430617462168,10113,-5129,-16183,19760.2859038021
1735573468925,146,1,1024,1034.3563215836214,10190,-5128,-17955,21272.38841785285
1735573468956,146,1,1024,1034.3563215836214,10283,-5118,16263,19910.278300415594
1735573468986,146,1,1024,1034.3563215836214,10355,-5092,14486,18520.223675755107
1735573469016,146,1,1024,1034.3563215836214,10405,-5054,12717,17190.957797633033
1735573469045,173,0,898,914.5124384063893,10391,-5008,10960,15911.459549645344
1735573469076,173,0,898,914.5124384063893,10360,-4968,9219,14730.939718836677
1735573469106,173,0,898,914.5124384063893,10324,-4934,7483,13672.037924172095
1735573469135,282,30,998,1037.5104818747616,10323,-4909,5730,12786.536278445386
1735573469165,282,30,998,1037.5104818747616,10268,-4923,4076,12094.690115914504
1735573469195,282,30,998,1037.5104818747616,10225,-4945,2420,11612.925987880919
1735573469224,241,7,1020,1048.1078188812446,10195,-4979,756,11371.015873702754
1735573469255,241,7,1020,1048.1078188812446,10235,-5011,-974,11437.39577001688
1735573469286,241,7,1020,1048.1078188812446,10276,-5036,-2708,11759.708159644098
1735573469316,241,7,1020,1048.1078188812446,10317,-5054,-4445,12318.337144273979
1735573469345,228,16,928,955.732180058828,10304,-5055,-6177,13033.831746650714
1735573469376,228,16,928,955.732180058828,10296,-5057,-7915,13936.573825729192
1735573469405,228,16,928,955.732180058828,10289,-5060,-9654,14988.89045259855
1735573469435,331,53,979,1034.7999806725936,10272,-5084,-11321,16109.813189481745
1735573469465,331,53,979,1034.7999806725936,10198,-5140,-12888,17219.73716408006
1735573469495,331,53,979,1034.7999806725936,10150,-5208,-14461,18419.18252800596
1735573469525,309,19,1098,1140.8093618129192,10155,-5280,-16065,19725.27946570086
1735573469556,309,19,1098,1140.8093618129192,10278,-5329,-17753,21194.44582903738
1735573469616,309,19,1098,1140.8093618129192,10394,-5359,16554,20267.931147504918
1735573469617,309,19,1098,1140.8093618129192,10499,-5371,14859,18970.148207117414
1735573469646,221,18,982,1006.7219079765772,10621,-5317,13026,17628.182152451227
1735573469675,221,18,982,1006.7219079765772,10726,-5230,11171,16345.984736319804
1735573469706,221,18,982,1006.7219079765772,10781,-5125,9338,15155.653400629086
1735573469735,272,21,1047,1081.9584095518644,10839,-5013,7500,14101.917954661345
1735573469765,272,21,1047,1081.9584095518644,10848,-4903,5700,13198.807256718314
1735573469795,272,21,1047,1081.9584095518644,10823,-4790,3917,12466.928972285035
1735573469825,263,-18,1073,1104.9081409782443,10762,-4694,2173,11940.528003400854
1735573469855,263,-18,1073,1104.9081409782443,10714,-4628,474,11680.447594163505
1735573469885,263,-18,1073,1104.9081409782443,10658,-4570,-1218,11660.24819632927
1735573469916,263,-18,1073,1104.9081409782443,10597,-4522,-2908,11882.817721399248
1735573469945,539,39,1112,1236.3599799411172,10212,-4606,-4251,11982.119219904298
1735573469975,539,39,1112,1236.3599799411172,9808,-4780,-5471,12205.617763964265
1735573470005,539,39,1112,1236.3599799411172,9483,-5007,-6680,12634.07052378607
1735573470036,147,8,1070,1080.080089622987,9454,-5234,-8146,13532.56028990819
1735573470066,147,8,1070,1080.080089622987,9811,-5382,-10066,15051.44514656317
1735573470096,147,8,1070,1080.080089622987,10160,-5461,-12015,16655.580025925246
1735573470125,178,-42,990,1006.7512105778667,10475,-5476,-13994,18317.86660613075
1735573470156,178,-42,990,1006.7512105778667,10746,-5440,-15962,19996.388673958107
1735573470186,178,-42,990,1006.7512105778667,10947,-5355,-17906,21659.586099461827
1735573470246,178,-42,990,1006.7512105778667,11075,-5235,16180,20294.167881438254
1735573470246,272,20,1220,1250.1135948384851,11104,-5131,14378,18877.310745972267
1735573470276,272,20,1220,1250.1135948384851,11056,-5038,12630,17525.224106983624
1735573470305,272,20,1220,1250.1135948384851,10990,-4953,10894,16247.816622549628
1735573470335,249,70,1233,1259.8372910816697,10862,-4875,9163,15023.622665655577
1735573470365,249,70,1233,1259.8372910816697,10703,-4818,7419,13885.564230523727
1735573470395,249,70,1233,1259.8372910816697,10559,-4789,5676,12909.065729168784
1735573470425,52,64,1062,1065.1966954511265,10345,-4787,4015,12085.305912553476
1735573470455,52,64,1062,1065.1966954511265,10173,-4779,2271,11466.743696446694
1735573470485,52,64,1062,1065.1966954511265,10030,-4802,524,11132.595384724984
1735573470515,52,64,1062,1065.1966954511265,9920,-4850,-1228,11110.21529944402
1735573470545,265,53,985,1021.4005091050229,9920,-4973,-2977,11489.110409426832
1735573470575,265,53,985,1021.4005091050229,9897,-5116,-4650,12072.554203647212
1735573470605,265,53,985,1021.4005091050229,9917,-5261,-6342,12893.640835698814
1735573470635,244,7,1054,1081.8969451847065,10055,-5366,-8132,14000.943003955126
1735573470665,244,7,1054,1081.8969451847065,10264,-5419,-9990,15313.894246729014
1735573470695,244,7,1054,1081.8969451847065,10453,-5435,-11853,16712.212390943336
1735573470725,204,48,984,1006.0695800987127,10599,-5419,-13705,18152.999394039543
1735573470756,204,48,984,1006.0695800987127,10697,-5370,-15589,19653.997812150075
1735573470785,204,48,984,1006.0695800987127,10759,-5304,-17458,21181.837998625142
1735573470815,204,48,984,1006.0695800987127,10785,-5227,16689,20546.544113305285
1735573470845,155,41,1062,1074.0344500992508,10784,-5153,14850,19062.281211859194
1735573470875,155,41,1062,1074.0344500992508,10774,-5070,13004,17632.01610707068
1735573470905,155,41,1062,1074.0344500992508,10740,-4990,11171,16280.016615470637
1735573470935,115,48,950,958.1382989944615,10671,-4932,9362,15028.03743008381
1735573470965,115,48,950,958.1382989944615,10604,-4889,7540,13899.594850210562
1735573470995,115,48,950,958.1382989944615,10537,-4859,5721,12937.08201257146
1735573471025,157,49,962,975.9579908991985,10483,-4838,3906,12188.370235597538
1735573471055,157,49,962,975.9579908991985,10414,-4834,2147,11680.263738460702
1735573471085,157,49,962,975.9579908991985,10358,-4843,386,11440.795820221598
1735573471115,157,49,962,975.9579908991985,10314,-4861,-1376,11484.828818924556
1735573471145,197,41,950,971.0767219947145,10282,-4894,-3105,11803.04134534824
1735573471176,197,41,950,971.0767219947145,10258,-4937,-4823,12363.731718215176
1735573471206,197,41,950,971.0767219947145,10249,-4984,-6546,13142.768848305901
1735573471236,125,36,943,951.9296192471375,10307,-5009,-8351,14179.68726735537
1735573471265,125,36,943,951.9296192471375,10417,-4998,-10239,15437.973118256166
1735573471295,125,36,943,951.9296192471375,10501,-4965,-12120,16787.3948544734
1735573471325,136,48,1018,1028.1653563508157,10566,-4919,-14004,18219.465771531282
1735573471356,136,48,1018,1028.1653563508157,10599,-4869,-15888,19709.756619501928
1735573471385,136,48,1018,1028.1653563508157,10611,-4813,-17762,21242.57361997364
1735573471415,136,48,1018,1028.1653563508157,10602,-4755,16371,20075.40958486277
1735573471445,108,38,989,995.6048412899568,10603,-4695,14456,18532.20359266539
1735573471475,108,38,989,995.6048412899568,10593,-4630,12540,17055.79517348869
1735573471505,108,38,989,995.6048412899568,10565,-4567,10632,15668.9545918035
1735573471535,49,23,1002,1003.4610107024587,10533,-4519,8735,14410.609806666753
1735573471565,49,23,1002,1003.4610107024587,10523,-4468,6814,13308.912389823596
1735573471595,49,23,1002,1003.4610107024587,10499,-4420,4898,12399.830845620436
1735573471625,33,40,1025,1026.3108690840218,10457,-4391,3014,11735.157689609458
1735573471656,33,40,1025,1026.3108690840218,10401,-4398,1163,11352.34662966208
1735573471686,33,40,1025,1026.3108690840218,10358,-4416,-690,11281.193199302988
1735573471716,33,40,1025,1026.3108690840218,10329,-4443,-2546,11528.686221768723
1735573471746,58,19,962,963.9341263800136,10307,-4496,-4414,12080.217754659889
1735573471776,58,19,962,963.9341263800136,10305,-4554,-6279,12897.975887711995
1735573471805,58,19,962,963.9341263800136,10321,-4612,-8152,13937.31283282398
1735573471835,96,16,989,993.7771379942286,10352,-4673,-10019,15145.335717639276
1735573471865,96,16,989,993.7771379942286,10385,-4738,-11866,16465.078955170546
1735573471895,96,16,989,993.7771379942286,10431,-4796,-13721,17890.590208263115
1735573471925,66,41,955,958.1555197357055,10474,-4846,-15572,19382.35217923769
1735573471956,66,41,955,958.1555197357055,10509,-4885,-17444,20942.670364592956
1735573472016,66,41,955,958.1555197357055,10549,-4918,16678,20337.74345889927
1735573472017,66,41,955,958.1555197357055,10593,-4943,14796,18856.47140904151
1735573472046,-14,56,945,946.7613215589239,10755,-4926,12788,17420.34571987594
1735573472076,-14,56,945,946.7613215589239,10893,-4865,10760,16065.59286176517
1735573472106,-14,56,945,946.7613215589239,10980,-4776,8751,14830.730831621211
1735573472135,36,2,993,993.6543664675359,11017,-4681,6764,13749.099825079458
1735573472165,36,2,993,993.6543664675359,11019,-4591,4823,12874.663917943644
1735573472196,36,2,993,993.6543664675359,10992,-4500,2895,12225.182575323774
1735573472225,116,54,982,990.3009643537665,10938,-4419,986,11838.057315286153
1735573472256,116,54,982,990.3009643537665,10773,-4393,-812,11662.56069651944
1735573472287,116,54,982,990.3009643537665,10632,-4401,-2615,11800.273301919748
1735573472316,116,54,982,990.3009643537665,10520,-4437,-4422,12243.833264137502
1735573472345,66,12,940,942.3905772024676,10539,-4474,-6346,13090.413018694253
1735573472375,66,12,940,942.3905772024676,10585,-4497,-8291,14177.655483189032
1735573472405,66,12,940,942.3905772024676,10630,-4510,-10239,15432.890882786673
1735573472435,83,34,1010,1013.9748517591548,10683,-4522,-12174,16816.100885758267
1735573472465,83,34,1010,1013.9748517591548,10721,-4532,-14094,18278.94146278717
1735573472496,83,34,1010,1013.9748517591548,10755,-4534,-16015,19816.846520069736
1735573472526,52,-12,1020,1021.3951243275053,10775,-4531,-17936,21408.65904254631
1735573472556,52,-12,1020,1021.3951243275053,10833,-4510,16107,19928.106733957444
1735573472585,52,-12,1020,1021.3951243275053,10873,-4478,14156,18402.9059933479
1735573472616,52,-12,1020,1021.3951243275053,10894,-4437,12211,16955.07965183296
1735573472645,40,0,953,953.8390849613995,10856,-4422,10296,15601.744646032379
1735573472675,40,0,953,953.8390849613995,10821,-4414,8378,14379.44091402722
1735573472705,40,0,953,953.8390849613995,10790,-4414,6459,13327.647091666255
1735573472735,104,8,998,1003.4360966200089,10778,-4438,4530,12505.280004861947
1735573472765,104,8,998,1003.4360966200089,10758,-4485,2625,11947.401976999015
1735573472795,104,8,998,1003.4360966200089,10757,-4535,714,11695.685956796207
1735573472826,185,-13,1003,1020.0014705871752,10770,-4588,-1203,11768.17118332326
1735573472856,185,-13,1003,1020.0014705871752,10751,-4672,-3036,12109.041291530886
1735573472885,185,-13,1003,1020.0014705871752,10761,-4758,-4880,12737.821046003119
1735573472916,159,6,989,1001.7175250538447,10798,-4839,-6741,13618.142531197123
1735573472945,159,6,989,1001.7175250538447,10861,-4896,-8648,14721.414368191665
1735573472975,159,6,989,1001.7175250538447,10931,-4940,-10564,15984.0062875363
1735573473005,159,6,989,1001.7175250538447,11002,-4971,-12486,17368.21928120439
1735573473035,188,32,967,985.6251823081632,11012,-5001,-14348,18765.373670673333
1735573473065,188,32,967,985.6251823081632,11016,-5035,-16204,20230.499178220987
1735573473095,188,32,967,985.6251823081632,11031,-5069,17933,21655.720052678924
1735573473125,243,34,1068,1095.823434682796,11053,-5099,16069,20158.903020749913
1735573473156,243,34,1068,1095.823434682796,11030,-5148,14273,18758.500286536768
1735573473185,243,34,1068,1095.823434682796,11027,-5201,12468,17438.35296121741
1735573473215,215,30,1060,1082.0004621071103,11046,-5246,10635,16206.105546984445
1735573473245,215,30,1060,1082.0004621071103,11111,-5256,8723,15072.179205410212
1735573473275,215,30,1060,1082.0004621071103,11167,-5254,6810,14095.478175642003
1735573473305,215,30,1060,1082.0004621071103,11211,-5242,4901,13311.081323468803
1735573473335,188,20,1031,1048.191299334239,11210,-5206,3010,12721.10985724123
1735573473365,188,20,1031,1048.191299334239,11206,-5165,1117,12389.48546147095
1735573473395,188,20,1031,1048.191299334239,11189,-5124,-768,12330.40635988936
1735573473425,231,55,917,947.2460081731672,11056,-5081,-2627,12448.00490038464
1735573473456,231,55,917,947.2460081731672,10857,-5076,-4450,12784.472026642321
1735573473486,231,55,917,947.2460081731672,10695,-5106,-6280,13412.406980106143
1735573473515,315,162,1229,1279.0269739141547,10661,-5155,-8144,14372.045157179266
1735573473545,315,162,1229,1279.0269739141547,10644,-5214,-9956,15479.097777325396
1735573473576,315,162,1229,1279.0269739141547,10650,-5277,-11780,16734.32487434136
1735573473605,315,162,1229,1279.0269739141547,10675,-5338,-13615,18105.747540491113
1735573473636,426,33,1127,1205.277561394055,10657,-5389,-15321,19425.396031998935
1735573473666,426,33,1127,1205.277561394055,10653,-5454,-16983,20776.304146791845
1735573473695,426,33,1127,1205.277561394055,10669,-5519,17343,21096.60093474776
1735573473725,260,123,1162,1197.0685026346655,10847,-5538,15568,19765.86646216148
1735573473756,260,123,1162,1197.0685026346655,11106,-5464,13639,18417.94920722717
1735573473786,260,123,1162,1197.0685026346655,11283,-5345,11743,17139.812221841872
1735573473816,287,14,990,1030.856440053609,11315,-5208,9921,15924.15555060927
1735573473846,287,14,990,1030.856440053609,11248,-5107,8225,14840.807862107777
1735573473876,287,14,990,1030.856440053609,11165,-5014,6540,13876.924046776361
1735573473905,287,14,990,1030.856440053609,11072,-4934,4863,13060.716251415923
1735573473935,233,32,1083,1108.242753190834,10981,-4868,3198,12430.084030287164
1735573473965,233,32,1083,1108.242753190834,10898,-4810,1516,12008.36208647957
1735573473995,233,32,1083,1108.242753190834,10816,-4765,-161,11820.194668447724
1735573474025,107,63,894,902.5818522438838,10606,-4729,-1819,11754.124297454064
1735573474056,107,63,894,902.5818522438838,10402,-4714,-3545,11957.860385537206
1735573474085,107,63,894,902.5818522438838,10231,-4735,-5276,12447.07845239195
1735573474115,41,128,1113,1121.0860805486793,10155,-4803,-7052,13263.617078308616
1735573474145,41,128,1113,1121.0860805486793,10228,-4893,-9003,14477.82587269235
1735573474175,41,128,1113,1121.0860805486793,10318,-4967,-10968,15856.520330766141
1735573474205,41,128,1113,1121.0860805486793,10416,-5022,-12945,17357.6082741834
1735573474235,232,62,1058,1084.9110562622172,10498,-5150,-14743,18817.18770167317
1735573474265,232,62,1058,1084.9110562622172,10568,-5287,-16480,20278.693079190285
1735573474295,232,62,1058,1084.9110562622172,10669,-5412,17759,21412.598768015057
1735573474325,187,39,894,914.1805073397704,10817,-5480,15920,20012.10356259431
1735573474356,187,39,894,914.1805073397704,10999,-5491,14017,18644.17793843429
1735573474386,187,39,894,914.1805073397704,11150,-5471,12118,17352.240921563993
1735573474416,144,24,987,997.7379415457748,11284,-5431,10220,16163.935690295231
1735573474445,144,24,987,997.7379415457748,11466,-5354,8261,15112.20013763714
1735573474475,144,24,987,997.7379415457748,11581,-5244,6332,14202.581490700906
1735573474505,144,24,987,997.7379415457748,11631,-5111,4434,13455.959200294865
1735573474535,339,49,870,934.9983957205488,11443,-5056,2712,12800.79407693132
1735573474565,339,49,870,934.9983957205488,11223,-5067,1066,12359.877588390591
1735573474595,339,49,870,934.9983957205488,11045,-5114,-586,12185.58234143941
1735573474625,304,95,1043,1090.5457349419144,10952,-5151,-2294,12318.341649751399
1735573474656,304,95,1043,1090.5457349419144,10901,-5177,-4055,12730.913360792305
1735573474685,304,95,1043,1090.5457349419144,10866,-5211,-5822,13383.578034292623
1735573474716,287,72,1025,1066.8542543384265,10838,-5248,-7592,14235.245414112114
1735573474745,287,72,1025,1066.8542543384265,10839,-5274,-9384,15276.074528490622
1735573474776,287,72,1025,1066.8542543384265,10848,-5301,-11182,16456.51326982724
1735573474805,287,72,1025,1066.8542543384265,10864,-5326,-12984,17747.592174714857
1735573474835,280,86,1004,1045.854674417053,10823,-5355,-14712,19033.03176059978
1735573474865,280,86,1004,1045.854674417053,10796,-5391,-16449,20400.639646834607
1735573474895,280,86,1004,1045.854674417053,10785,-5431,17806,21514.312027113487
1735573474925,230,52,974,1002.1377150871032,10808,-5442,15995,20056.626161944587
1735573474955,230,52,974,1002.1377150871032,10872,-5420,14122,18628.141828964046
1735573474985,230,52,974,1002.1377150871032,10916,-5387,12256,17273.921413506545
1735573475015,265,149,1004,1049.0195422393235,10929,-5348,10420,16019.380293881533
1735573475045,265,149,1004,1049.0195422393235,10798,-5336,8678,14845.11313530483
1735573475076,265,149,1004,1049.0195422393235,10688,-5346,6934,13816.418349196003
1735573475106,265,149,1004,1049.0195422393235,10601,-5374,5185,12967.085331715836
1735573475136,237,100,957,990.9682134155464,10627,-5411,3355,12388.223238221048
1735573475165,237,100,957,990.9682134155464,10681,-5436,1506,12078.985594825419
1735573475195,237,100,957,990.9682134155464,10733,-5452,-345,12043.281031346898
1735573475226,99,74,833,842.119943950979,10780,-5429,-2224,12273.085064481545
1735573475256,99,74,833,842.119943950979,10879,-5350,-4194,12828.28036020417
1735573475286,99,74,833,842.119943950979,10927,-5254,-6141,13591.016371118092
1735573475316,24,151,910,922.7551137761308,10984,-5138,-8064,14562.808657673148
1735573475345,24,151,910,922.7551137761308,11076,-4958,-10045,15753.144606712654
1735573475375,24,151,910,922.7551137761308,11086,-4759,-11986,17006.224536915888
1735573475405,24,151,910,922.7551137761308,11028,-4558,-13895,18315.653769385357
1735573475435,4,46,986,987.0805438260851,11061,-4349,-15797,19768.781727764614
1735573475465,4,46,986,987.0805438260851,11051,-4122,-17678,21251.521569054767
1735573475495,4,46,986,987.0805438260851,10977,-3897,16460,20164.640785295433
1735573475525,90,55,994,999.5804119729438,10805,-3699,14667,18589.015977183946
1735573475556,90,55,994,999.5804119729438,10571,-3562,12942,17085.937170667577
1735573475585,90,55,994,999.5804119729438,10350,-3476,11211,15649.012652560545
1735573475615,20,27,1065,1065.5299151126635,10128,-3437,9470,14285.315992304826
1735573475645,20,27,1065,1065.5299151126635,9956,-3425,7642,13009.716561093866
1735573475676,20,27,1065,1065.5299151126635,9815,-3453,5811,11917.430721426494
1735573475705,20,27,1065,1065.5299151126635,9707,-3513,3977,11062.709749423962
1735573475735,21,51,992,993.5320830250023,9511,-3613,2118,10392.247783805004
1735573475765,21,51,992,993.5320830250023,9371,-3757,254,10099.267597207236
1735573475795,21,51,992,993.5320830250023,9297,-3927,-1619,10221.384397428756
1735573475825,-13,95,944,948.8572073815955,9263,-4119,-3518,10730.594298546563
1735573475856,-13,95,944,948.8572073815955,9278,-4319,-5463,11600.836780163749
1735573475885,-13,95,944,948.8572073815955,9352,-4507,-7432,12767.442069576819
1735573475915,10,107,980,985.8747384936892,9492,-4666,-9415,14160.220513819691
1735573475946,10,107,980,985.8747384936892,9660,-4784,-11367,15665.597498978454
1735573475976,10,107,980,985.8747384936892,9835,-4864,-13335,17268.698445453265
1735573476005,10,107,980,985.8747384936892,10005,-4906,-15313,18938.237246375385
1735573476035,-53,21,1057,1058.536253512368,10267,-4876,-17356,20746.503343937264
1735573476065,-53,21,1057,1058.536253512368,10500,-4778,16596,20211.54373124428
1735573476095,-53,21,1057,1058.536253512368,10647,-4633,14580,18638.661378972472
1735573476125,-128,117,995,1009.9990099005048,10699,-4451,12582,17105.16664636741
1735573476156,-128,117,995,1009.9990099005048,10661,-4250,10562,15597.283898166374
1735573476186,-128,117,995,1009.9990099005048,10566,-4061,8563,14193.556495818799
1735573476216,-86,86,959,966.6814366687714,10450,-3904,6551,12936.742905383873
1735573476246,-86,86,959,966.6814366687714,10341,-3797,4537,11913.767624055792
1735573476276,-86,86,959,966.6814366687714,10223,-3720,2527,11168.431313304478
1735573476305,-86,86,959,966.6814366687714,10106,-3673,519,10765.2926574246
1735573476335,-165,102,980,999.0140139157209,10056,-3627,-1526,10798.469382278212
1735573476366,-165,102,980,999.0140139157209,10010,-3588,-3597,11225.517939052968
1735573476395,-165,102,980,999.0140139157209,9963,-3563,-5667,12002.96742476626
1735573476426,-248,50,943,976.3467621700806,9912,-3541,-7779,13088.134550041881
1735573476456,-248,50,943,976.3467621700806,9902,-3511,-9955,14473.38073844532
1735573476487,-248,50,943,976.3467621700806,9885,-3486,-12128,16029.778694666998
1735573476516,-144,51,1014,1025.442831171002,9850,-3474,-14282,17693.690965991238
1735573476545,-144,51,1014,1025.442831171002,9746,-3514,-16293,19307.888569183324
1735573476575,-144,51,1014,1025.442831171002,9675,-3579,17691,20478.924459062786
1735573476605,-281,52,888,932.8499343409957,9605,-3650,15656,18726.6884686001
1735573476635,-281,52,888,932.8499343409957,9586,-3699,13444,16920.849062620942
1735573476665,-281,52,888,932.8499343409957,9588,-3751,11226,15232.295329332346
1735573476696,-281,52,888,932.8499343409957,9608,-3799,9002,13703.359770508836
1735573476726,-227,132,1061,1093.01143635371,9789,-3862,6712,12481.606827648433
1735573476756,-227,132,1061,1093.01143635371,9926,-3884,4440,11546.624268590365
1735573476786,-227,132,1061,1093.01143635371,10040,-3868,2170,10975.970298793633
1735573476816,-152,-87,1182,1194.9045987023399,10115,-3827,-82,10815.07642136661
1735573476845,-152,-87,1182,1194.9045987023399,10278,-3769,-2226,11171.29003293711
1735573476875,-152,-87,1182,1194.9045987023399,10386,-3669,-4356,11845.053524573032
1735573476905,-200,23,1102,1120.2379211578227,10419,-3539,-6423,12741.075739512735
1735573476935,-200,23,1102,1120.2379211578227,10307,-3398,-8433,13743.94928686802
1735573476965,-200,23,1102,1120.2379211578227,10176,-3289,-10441,14946.002074133403
1735573476995,-200,23,1102,1120.2379211578227,10041,-3217,-12449,16314.054401037161
1735573477025,-361,56,885,957.4351152950261,9788,-3196,-14503,17786.409671431724
1735573477056,-361,56,885,957.4351152950261,9596,-3231,-16618,19459.714823193066
1735573477086,-361,56,885,957.4351152950261,9456,-3316,17261,19958.805400123525
1735573477115,-224,25,877,905.4998619547106,9351,-3464,15156,18142.349158805206
1735573477145,-224,25,877,905.4998619547106,9281,-3658,13125,16485.859091961207
1735573477176,-224,25,877,905.4998619547106,9284,-3859,11078,14960.167813229904
1735573477205,-207,143,1000,1031.1634206080043,9409,-4050,8974,13618.533584788049
1735573477235,-207,143,1000,1031.1634206080043,9577,-4208,6789,12470.634065676051
1735573477266,-207,143,1000,1031.1634206080043,9769,-4316,4584,11622.145800152397
1735573477296,-207,143,1000,1031.1634206080043,9960,-4371,2366,11131.271131366804
1735573477326,-185,102,1099,1119.1201901493869,10214,-4350,204,11103.599056161926
1735573477356,-185,102,1099,1119.1201901493869,10411,-4269,-1933,11417.08242065371
1735573477386,-185,102,1099,1119.1201901493869,10535,-4143,-4047,12022.016594565157
1735573477416,-155,28,1125,1135.972710939836,10567,-4009,-6088,12837.340612447735
1735573477445,-155,28,1125,1135.972710939836,10561,-3879,-8072,13846.96883798039
1735573477475,-155,28,1125,1135.972710939836,10516,-3754,-10045,15019.347422574658
1735573477505,-53,44,873,875.7134234439941,10347,-3655,-11965,16235.167353618503
1735573477535,-53,44,873,875.7134234439941,9945,-3676,-13694,17318.82319905137
1735573477565,-53,44,873,875.7134234439941,9623,-3783,-15428,18572.463541490666
1735573477595,-53,44,873,875.7134234439941,9383,-3955,-17167,19959.674421192347
1735573477626,-276,30,968,1007.0253224224305,9463,-4092,16684,19612.46259397325
1735573477656,-276,30,968,1007.0253224224305,9623,-4181,14436,17846.03558216782
1735573477685,-276,30,968,1007.0253224224305,9781,-4224,12179,16181.414585875982
1735573477716,-130,43,1148,1156.1371025964006,9966,-4219,9964,14710.622454539442
1735573477745,-130,43,1148,1156.1371025964006,10076,-4187,7860,13447.540481441207
1735573477775,-130,43,1148,1156.1371025964006,10152,-4130,5765,12383.667833077565
1735573477805,-317,245,945,1026.4204791409804,10200,-4032,3688,11571.446236318086
1735573477835,-317,245,945,1026.4204791409804,10163,-3851,1440,10963.13686861566
1735573477865,-317,245,945,1026.4204791409804,10071,-3689,-790,10754.434527207835
1735573477896,-317,245,945,1026.4204791409804,9944,-3559,-3011,10982.519656253751
1735573477926,-93,88,812,822.0322378106591,9818,-3540,-5017,11579.94011210766
1735573477956,-93,88,812,822.0322378106591,9715,-3561,-6947,12462.855009988682
1735573477986,-93,88,812,822.0322378106591,9637,-3607,-8881,13592.438302232606
1735573478016,-183,134,1011,1036.1303006861638,9596,-3658,-10869,14953.238478670766
1735573478046,-183,134,1011,1036.1303006861638,9587,-3705,-12933,16519.687739179575
1735573478076,-183,134,1011,1036.1303006861638,9595,-3752,-15001,18198.11885882714
1735573478106,-216,105,1050,1077.1169852898988,9584,-3795,-17049,19922.93858847133
1735573478136,-216,105,1050,1077.1169852898988,9573,-3833,16911,19806.97197958335
1735573478165,-216,105,1050,1077.1169852898988,9577,-3873,14869,18105.41960298076
1735573478195,-216,105,1050,1077.1169852898988,9592,-3910,12822,16483.271762608296
1735573478226,-225,127,960,994.1599468898353,9664,-3947,10699,14947.919788385272
1735573478255,-225,127,960,994.1599468898353,9730,-3965,8571,13559.357138153711
1735573478285,-225,127,960,994.1599468898353,9788,-3965,6443,12370.8697349863
1735573478316,-420,-1,950,1038.701593336604,9959,-3919,4214,11502.08841906547
1735573478346,-420,-1,950,1038.701593336604,10229,-3760,1850,11054.07350256004
1735573478376,-420,-1,950,1038.701593336604,10373,-3533,-474,10968.404350679273
1735573478405,-213,119,893,925.7316025717173,10362,-3277,-2744,11208.894191667616
1735573478436,-213,119,893,925.7316025717173,10017,-3130,-4756,11522.01045824903
1735573478465,-213,119,893,925.7316025717173,9703,-3079,-6779,12230.424808648308
1735573478495,-213,119,893,925.7316025717173,9440,-3112,-8809,13281.439116300613
1735573478526,-399,29,1005,1081.6963529567806,9340,-3144,-10995,14765.17392379785
1735573478556,-399,29,1005,1081.6963529567806,9320,-3181,-13250,16508.89641980953
1735573478585,-399,29,1005,1081.6963529567806,9317,-3221,-15507,18375.210991985914
1735573478616,-400,49,1048,1122.8112040766248,9436,-3279,-17804,20415.00313494955
1735573478646,-400,49,1048,1122.8112040766248,9591,-3301,15877,18840.46206970519
1735573478675,-400,49,1048,1122.8112040766248,9720,-3276,13562,17004.070689102653
1735573478705,-129,236,1046,1080.024536758309,9740,-3223,11336,15289.219241020779
1735573478735,-129,236,1046,1080.024536758309,9333,-3282,9550,13750.596823410975
1735573478765,-129,236,1046,1080.024536758309,9017,-3433,7760,12381.81642571073
1735573478795,-129,236,1046,1080.024536758309,8794,-3648,5969,11237.050369202765
1735573478825,-79,42,895,899.4609496804184,8743,-3899,4141,10430.250764003711
1735573478856,-79,42,895,899.4609496804184,8806,-4138,2313,10000.932406530903
1735573478885,-79,42,895,899.4609496804184,8925,-4351,462,9939.83249355843
1735573478916,-323,-12,1027,1076.662435492202,9239,-4534,-1559,10408.97487747953
1735573478946,-323,-12,1027,1076.662435492202,9742,-4594,-3831,11431.883528098071
1735573478976,-323,-12,1027,1076.662435492202,10160,-4529,-6092,12682.661589745268
1735573479005,-97,70,938,945.5966370498576,10455,-4377,-8304,14050.678631297493
1735573479035,-97,70,938,945.5966370498576,10412,-4273,-10211,15196.473077658513
1735573479065,-97,70,938,945.5966370498576,10348,-4179,-12108,16466.596764359052
1735573479095,-97,70,938,945.5966370498576,10269,-4100,-14000,17839.90922062105
1735573479125,-248,41,1026,1056.3432207384112,10400,-3928,-16228,19670.718543052768
1735573479156,-248,41,1026,1056.3432207384112,10469,-3707,17523,20746.01983513946
1735573479185,-248,41,1026,1056.3432207384112,10444,-3476,15303,18850.50452905704
1735573479216,-77,63,1021,1025.835756834397,10220,-3321,13292,17092.533603886815
1735573479245,-77,63,1021,1025.835756834397,9899,-3288,11455,15492.519807958937
1735573479276,-77,63,1021,1025.835756834397,9632,-3333,9612,14009.812882404962
1735573479305,-78,82,926,932.8901328666736,9451,-3433,7718,12675.741161762495
1735573479335,-78,82,926,932.8901328666736,9360,-3559,5722,11533.315438329084
1735573479365,-78,82,926,932.8901328666736,9323,-3702,3717,10697.626933109977
1735573479396,-78,82,926,932.8901328666736,9337,-3847,1700,10240.55555133607
1735573479426,-150,91,919,935.5971355236184,9431,-3983,-338,10243.158399634363
1735573479456,-150,91,919,935.5971355236184,9563,-4084,-2418,10675.989368672113
1735573479486,-150,91,919,935.5971355236184,9701,-4149,-4507,11473.301660812374
1735573479516,-186,14,973,990.7174168247977,9880,-4167,-6633,12608.527987041152
1735573479545,-186,14,973,990.7174168247977,10086,-4120,-8790,13998.78194701239
1735573479576,-186,14,973,990.7174168247977,10231,-4023,-10930,15502.347886691228
1735573479605,-129,53,1003,1012.6494951363971,10292,-3890,-13058,17075.38368529387
1735573479635,-129,53,1003,1012.6494951363971,10196,-3767,-15130,18629.69685743705
1735573479665,-129,53,1003,1012.6494951363971,10083,-3671,-17195,20268.476879134258
1735573479696,-129,53,1003,1012.6494951363971,9964,-3608,16740,19812.283058749184
1735573479727,-48,25,1089,1090.343982420227,9781,-3614,14899,18185.41058101246
1735573479756,-48,25,1089,1090.343982420227,9628,-3666,13082,16651.62646710525
1735573479786,-48,25,1089,1090.343982420227,9517,-3751,11260,15212.852789664403
1735573479816,-17,116,891,898.6801433213043,9421,-3866,9429,13878.300976704606
1735573479845,-17,116,891,898.6801433213043,9316,-4015,7604,12677.890084710469
1735573479875,-17,116,891,898.6801433213043,9270,-4180,5769,11691.307069784798
1735573479905,9,94,979,983.543593339919,9314,-4347,3885,10988.185928532517
1735573479935,9,94,979,983.543593339919,9460,-4489,1948,10650.700681175864
1735573479965,9,94,979,983.543593339919,9624,-4594,-6,10664.250934782058
1735573479995,9,94,979,983.543593339919,9791,-4660,-1973,11021.434117209974
1735573480025,9,58,992,993.7348740987205,9953,-4686,-3936,11683.873544334516
1735573480056,9,58,992,993.7348740987205,10100,-4676,-5897,12595.617690292129
1735573480085,9,58,992,993.7348740987205,10213,-4635,-7850,13689.817164593544
1735573480115,-38,68,1032,1034.9357467978386,10274,-4557,-9813,14920.331564680459
1735573480145,-38,68,1032,1034.9357467978386,10301,-4454,-11800,16284.615961084253
1735573480175,-38,68,1032,1034.9357467978386,10289,-4348,-13771,17731.583854805525
1735573480205,5,135,928,937.7814244268224,10250,-4245,-15726,19245.508592915907
1735573480235,5,135,928,937.7814244268224,10111,-4174,-17620,20739.31042730206
1735573480266,5,135,928,937.7814244268224,9981,-4134,16486,19710.36562319431
1735573480295,5,135,928,937.7814244268224,9864,-4124,14593,18090.370946998297
1735573480326,145,237,996,1034.0261118559822,9740,-4177,12802,16619.450442177684
1735573480356,145,237,996,1034.0261118559822,9597,-4274,11057,15252.105887384863
1735573480386,145,237,996,1034.0261118559822,9505,-4397,9304,14008.677667788634
1735573480416,-197,90,1005,1028.0729546097398,9712,-4475,7216,12900.35755318433
1735573480446,-197,90,1005,1028.0729546097398,10016,-4457,4994,12046.789655339717
1735573480476,-197,90,1005,1028.0729546097398,10246,-4367,2790,11481.955626111781
1735573480505,-137,57,1129,1138.7093571232301,10387,-4226,628,11231.35027501146
1735573480536,-137,57,1129,1138.7093571232301,10429,-4077,-1419,11287.140071780805
1735573480566,-137,57,1129,1138.7093571232301,10413,-3921,-3448,11648.755899236621
1735573480596,-339,-100,1009,1069.1127162278074,10335,-3758,-5477,12285.451477255527
1735573480626,-339,-100,1009,1069.1127162278074,10414,-3503,-7725,13431.233375978543
1735573480656,-339,-100,1009,1069.1127162278074,10385,-3236,-9945,14738.485200318248
1735573480685,-339,-100,1009,1069.1127162278074,10274,-2989,-12152,16191.365013487899
1735573480716,-82,85,987,994.0412466291326,9955,-2922,-14053,17467.88247040837
1735573480746,-82,85,987,994.0412466291326,9606,-2974,-15878,18794.435240251303
1735573480776,-82,85,987,994.0412466291326,9337,-3109,-17706,20257.045342300047
1735573480805,21,262,880,918.4143944864976,9185,-3303,16422,19103.824695594336
1735573480836,21,262,880,918.4143944864976,8976,-3560,14567,17476.83223584869
1735573480865,21,262,880,918.4143944864976,8873,-3852,12704,15967.455933867486
1735573480895,-194,-45,1064,1082.4772514930742,8860,-4138,10778,14552.935374006167
1735573480926,-194,-45,1064,1082.4772514930742,9326,-4311,8479,13321.127504832315
1735573480956,-194,-45,1064,1082.4772514930742,9762,-4351,6161,12336.359511622544
1735573480985,-194,-45,1064,1082.4772514930742,10117,-4276,3856,11640.730260597915
1735573481015,-51,97,938,944.3802200385181,10095,-4204,1852,11091.102064267554
1735573481045,-51,97,938,944.3802200385181,9993,-4164,-94,10826.254246044658
1735573481076,-51,97,938,944.3802200385181,9900,-4148,-2041,10926.188036090172
1735573481105,-55,75,974,978.4303756527595,9868,-4152,-3971,11418.641293954373
1735573481135,-55,75,974,978.4303756527595,9875,-4159,-5895,12229.633314208566
1735573481165,-55,75,974,978.4303756527595,9883,-4163,-7819,13271.812950761474
1735573481195,-63,56,1002,1005.5391588595643,9888,-4165,-9764,14507.083269906463
1735573481226,-63,56,1002,1005.5391588595643,9910,-4162,-11760,15931.97865928774
1735573481255,-63,56,1002,1005.5391588595643,9927,-4154,-13755,17464.279830557
1735573481285,-63,56,1002,1005.5391588595643,9937,-4142,-15749,19076.979163379092
1735573481316,-15,65,1005,1007.211497154396,9936,-4158,-17616,20647.917957992762
1735573481345,-15,65,1005,1007.211497154396,9927,-4178,16532,19730.890425928577
1735573481376,-15,65,1005,1007.211497154396,9926,-4200,14679,18210.944978226693
1735573481405,-7,89,867,871.5841898520189,9973,-4183,12726,16700.57765468009
1735573481435,-7,89,867,871.5841898520189,10009,-4138,10735,15249.372118221787
1735573481466,-7,89,867,871.5841898520189,10023,-4086,8749,13917.64800532044
1735573481496,38,80,1119,1122.4994432069889,10000,-4035,6817,12757.45719177611
1735573481525,38,80,1119,1122.4994432069889,9912,-4011,5031,11817.225816578102
1735573481555,38,80,1119,1122.4994432069889,9836,-4006,3244,11104.884871082635
1735573481585,38,80,1119,1122.4994432069889,9772,-4017,1455,10665.144068412767
1735573481616,20,137,827,838.5093917184231,9621,-4061,-311,10447.58742485556
1735573481645,20,137,827,838.5093917184231,9498,-4137,-2090,10568.57951666164
1735573481675,20,137,827,838.5093917184231,9418,-4237,-3876,11030.606012363962
1735573481705,-45,132,885,895.920755424273,9482,-4354,-5811,11942.920957621716
1735573481735,-45,132,885,895.920755424273,9645,-4440,-7867,13214.738514249913
1735573481765,-45,132,885,895.920755424273,9804,-4485,-9932,14658.726581801026
1735573481795,0,137,934,943.9941737108338,9979,-4491,-12024,16258.108684591822
1735573481825,0,137,934,943.9941737108338,10142,-4460,-14108,17938.434379844857
1735573481856,0,137,934,943.9941737108338,10259,-4393,-16179,19654.657743140684
1735573481886,0,137,934,943.9941737108338,10328,-4301,17764,20993.472342611643
1735573481917,206,-4,1197,1214.6032273956791,10219,-4254,16024,19475.44744030288
1735573481946,206,-4,1197,1214.6032273956791,10111,-4242,14360,18067.55337614919
1735573481976,206,-4,1197,1214.6032273956791,10021,-4250,12695,16722.6183954547
1735573482006,298,68,1075,1117.6103972315218,9797,-4287,11156,15453.669920119299
1735573482036,298,68,1075,1117.6103972315218,9487,-4389,9734,14283.460575084737
1735573482066,298,68,1075,1117.6103972315218,9244,-4538,8311,13233.204487198103
1735573482095,-142,-46,1081,1091.2566151002247,9094,-4700,6855,12319.97812498058
1735573482125,-142,-46,1081,1091.2566151002247,9528,-4748,4770,11665.298453104404
1735573482156,-142,-46,1081,1091.2566151002247,9890,-4700,2692,11276.03494141447
1735573482185,-142,-46,1081,1091.2566151002247,10158,-4574,643,11158.848014020085
1735573482216,12,-4,1030,1030.0776669746801,10269,-4534,-1141,11283.235262990842
1735573482246,12,-4,1030,1030.0776669746801,10302,-4493,-2860,11597.320940631073
1735573482276,12,-4,1030,1030.0776669746801,10318,-4446,-4574,12130.520021829238
1735573482306,100,44,811,818.3257297677985,10212,-4361,-6297,12765.401442962928
1735573482335,100,44,811,818.3257297677985,10008,-4302,-7977,13501.844207366637
1735573482365,100,44,811,818.3257297677985,9828,-4282,-9660,14430.547737352175
1735573482395,-279,145,613,688.9375878844179,9759,-4275,-11422,15619.724389373841
1735573482426,-279,145,613,688.9375878844179,10019,-4135,-13751,17509.100119652066
1735573482456,-279,145,613,688.9375878844179,10164,-3934,-16040,19392.391600831495
1735573482486,-279,145,613,688.9375878844179,10201,-3705,17707,20768.371987230967
1735573482546,-314,34,1183,1224.4349717318596,10369,-3468,15339,18836.881535965553
1735573482546,-314,34,1183,1224.4349717318596,10437,-3180,12997,16969.54265736116
1735573482576,-314,34,1183,1224.4349717318596,10386,-2886,10681,15175.03716634658
1735573482606,-15,116,1190,1195.7345023039186,10029,-2684,8616,13491.484462430366
1735573482635,-15,116,1190,1195.7345023039186,9515,-2671,6798,11995.09358029357
1735573482665,-15,116,1190,1195.7345023039186,9097,-2786,4975,10736.285670565961
1735573482695,-20,122,810,819.3802536063461,8765,-2984,3173,9787.615133422441
1735573482726,-20,122,810,819.3802536063461,8498,-3230,1408,9199.530857603555
1735573482756,-20,122,810,819.3802536063461,8336,-3522,-355,9056.456536637274
1735573482786,-20,122,810,819.3802536063461,8273,-3833,-2125,9362.160167397265
1735573482816,-12,145,992,1002.613085891063,8363,-4144,-3913,10120.477953140355
1735573482845,-12,145,992,1002.613085891063,8515,-4419,-5728,11173.306135607312
1735573482876,-12,145,992,1002.613085891063,8722,-4649,-7578,12454.419657294353
1735573482905,-144,140,1087,1105.3981183266055,9031,-4815,-9565,14008.297933724854
1735573482935,-144,140,1087,1105.3981183266055,9431,-4886,-11714,15812.48092488968
1735573482965,-144,140,1087,1105.3981183266055,9775,-4865,-13862,17645.78969612865
1735573482996,-8,175,1034,1048.7349522162403,10021,-4777,-15959,19440.417973901694
1735573483027,-8,175,1034,1048.7349522162403,10020,-4697,-17812,20969.729445083452
1735573483056,-8,175,1034,1048.7349522162403,9997,-4619,16344,19707.904657776282
1735573483085,-8,175,1034,1048.7349522162403,9955,-4547,14509,18173.836001240903
1735573483116,-87,31,1014,1018.1974268284123,10074,-4427,12445,16612.098904112027
1735573483146,-87,31,1014,1018.1974268284123,10176,-4265,10377,15146.72670909461
1735573483176,-87,31,1014,1018.1974268284123,10202,-4084,8337,13793.673513607606
1735573483205,-91,152,961,977.1929185171166,10105,-3928,6387,12583.083008547626
1735573483236,-91,152,961,977.1929185171166,9913,-3825,4473,11528.483117912781
1735573483264,-91,152,961,977.1929185171166,9731,-3768,2558,10744.000604988814
1735573483295,-109,20,745,753.1971853372794,9560,-3761,642,10293.24462936736
1735573483325,-109,20,745,753.1971853372794,9517,-3785,-1290,10322.96536853631
1735573483356,-109,20,745,753.1971853372794,9490,-3818,-3225,10725.569868310029
1735573483385,-109,20,745,753.1971853372794,9477,-3857,-5164,11461.102652013898
1735573483416,-86,157,1010,1025.7411954289444,9504,-3901,-7177,12532.084662976069
1735573483446,-86,157,1010,1025.7411954289444,9502,-3949,-9186,13793.665248946707
1735573483475,-86,157,1010,1025.7411954289444,9515,-3995,-11200,15229.42054051959
1735573483505,102,138,919,934.8844848429136,9442,-4041,-13067,16620.094283727754
1735573483535,102,138,919,934.8844848429136,9297,-4125,-14757,17922.58025508604
1735573483565,102,138,919,934.8844848429136,9197,-4234,-16453,19318.71564053884
1735573483596,22,201,849,872.746240324185,9163,-4359,17830,20515.124908223203
1735573483626,22,201,849,872.746240324185,9217,-4477,15986,18988.12297200542
1735573483656,22,201,849,872.746240324185,9296,-4580,14128,17521.198589137675
1735573483686,22,201,849,872.746240324185,9391,-4663,12259,16131.259436262253
1735573483716,-141,0,1199,1207.2621919036478,9826,-4666,10094,14839.49689174131
1735573483746,-141,0,1199,1207.2621919036478,10253,-4537,7892,13711.018999330428
1735573483776,-141,0,1199,1207.2621919036478,10533,-4312,5745,12749.214014989317
1735573483805,58,90,1150,1154.9735927717136,10546,-4083,3774,11921.915995342359
1735573483835,58,90,1150,1154.9735927717136,10347,-3932,1985,11245.499455337678
1735573483865,58,90,1150,1154.9735927717136,10149,-3824,194,10847.249098273718
1735573483895,1,78,1026,1028.9611265737885,9928,-3751,-1602,10733.20031491074
1735573483926,1,78,1026,1028.9611265737885,9708,-3705,-3471,10955.369916164402
1735573483956,1,78,1026,1028.9611265737885,9518,-3710,-5343,11528.402881579044
1735573483986,1,78,1026,1028.9611265737885,9368,-3758,-7220,12410.092183380428
1735573484015,61,105,893,901.2186194259415,9267,-3821,-8961,13445.328222100046
1735573484046,61,105,893,901.2186194259415,9181,-3908,-10685,14619.59130755713
1735573484076,61,105,893,901.2186194259415,9133,-4010,-12413,15924.018274292453
1735573484106,143,148,871,894.9826813966849,9048,-4144,-14074,17237.068080157947
1735573484135,143,148,871,894.9826813966849,8930,-4315,-15656,18533.06399384624
1735573484165,143,148,871,894.9826813966849,8869,-4501,-17246,19908.3569889632
1735573484195,-109,122,911,925.5733358302841,8884,-4683,17108,19837.83276973571
1735573484226,-109,122,911,925.5733358302841,9229,-4800,15040,18287.045715478485
1735573484256,-109,122,911,925.5733358302841,9549,-4836,12958,16807.14315402829
1735573484286,-23,100,968,973.4233405872288,9807,-4816,10917,15445.128487649432
1735573484316,-23,100,968,973.4233405872288,9940,-4792,9065,14280.794410676179
1735573484346,-23,100,968,973.4233405872288,10039,-4742,7220,13243.733801311471
1735573484376,-23,100,968,973.4233405872288,10103,-4675,5387,12367.133984881057
1735573484406,90,130,1049,1060.8491881507002,10110,-4571,3461,11622.592740004271
1735573484436,90,130,1049,1060.8491881507002,10052,-4484,1591,11121.161854770391
1735573484465,90,130,1049,1060.8491881507002,9980,-4410,-272,10914.324715711917
1735573484496,-100,18,1118,1122.6076785769817,9873,-4347,-2124,10994.722097442937
1735573484526,-100,18,1118,1122.6076785769817,9936,-4241,-4176,11582.277539413395
1735573484556,-100,18,1118,1122.6076785769817,9951,-4123,-6211,12433.746458730771
1735573484616,239,163,900,945.3517863737287,9908,-4028,-8128,13433.451976316437
1735573484617,239,163,900,945.3517863737287,9482,-4077,-9461,14001.456138559304
1735573484646,239,163,900,945.3517863737287,9132,-4191,-10793,14746.075884790502
1735573484676,239,163,900,945.3517863737287,8854,-4357,-12120,15629.176721759852
1735573484706,187,137,938,966.2204717351004,8774,-4571,-13625,16837.985093234878
1735573484736,187,137,938,966.2204717351004,8772,-4788,-15162,18159.272342249842
1735573484767,187,137,938,966.2204717351004,8819,-4999,-16717,19550.520479005158
1735573484796,314,101,1135,1181.956852004336,8956,-5198,17698,20504.83708786783
1735573484827,314,101,1135,1181.956852004336,9092,-5376,16177,19319.968141795678
1735573484856,314,101,1135,1181.956852004336,9252,-5531,14632,18173.79676897483
1735573484886,-52,15,799,800.8308185877963,9508,-5644,12984,17054.062741763326
1735573484945,-52,15,799,800.8308185877963,10385,-5557,10619,15858.487790454676
1735573484946,-52,15,799,800.8308185877963,11004,-5295,8368,14803.663904587946
1735573484976,-52,15,799,800.8308185877963,11351,-4913,6260,13862.552795210557
1735573485005,111,91,803,815.727282858677,11131,-4615,4446,12843.842960734142
1735573485036,111,91,803,815.727282858677,10827,-4387,2700,11989.983236018306
1735573485065,111,91,803,815.727282858677,10527,-4217,953,11380.203293439006
1735573485095,189,160,773,811.6957558100203,10231,-4120,-748,11054.73948132655
1735573485126,189,160,773,811.6957558100203,9913,-4105,-2389,10992.084197275783
1735573485156,189,160,773,811.6957558100203,9650,-4151,-4036,11253.5593036159
1735573485186,-83,88,795,804.1504834295631,9468,-4243,-5745,11859.64156288039
1735573485215,-83,88,795,804.1504834295631,9640,-4292,-7888,13174.650204085116
1735573485245,-83,88,795,804.1504834295631,9793,-4297,-10032,14663.153889937867
1735573485276,-83,88,795,804.1504834295631,9915,-4265,-12170,16266.725238965586
1735573485306,-139,179,974,1000.0189998195034,9851,-4251,-14137,17747.337011506825
1735573485336,-139,179,974,1000.0189998195034,9785,-4253,-16125,19335.197413008227
1735573485366,-139,179,974,1000.0189998195034,9732,-4269,17884,20803.212275992377
1735573485396,193,134,1129,1153.1894900665718,9574,-4328,16118,19240.13991633117
1735573485426,193,134,1129,1153.1894900665718,9298,-4466,14657,17922.767894496654
1735573485456,193,134,1129,1153.1894900665718,9092,-4647,13194,16683.546055919887
1735573485486,65,116,919,928.569868130557,9014,-4847,11650,15507.034049101718
1735573485516,65,116,919,928.569868130557,9245,-5005,9762,14346.31290610936
1735573485546,65,116,919,928.569868130557,9487,-5113,7848,13331.805654149028
1735573485576,65,116,919,928.569868130557,9721,-5172,5919,12501.279374528032
1735573485606,98,197,697,730.9049185769651,9878,-5195,4014,11860.653649778329
1735573485636,98,197,697,730.9049185769651,9983,-5197,2123,11453.219067144399
1735573485666,98,197,697,730.9049185769651,10068,-5180,236,11324.871743203099
1735573485695,-96,-18,1279,1282.72405450276,10458,-5099,-1930,11793.831650485774
1735573485726,-96,-18,1279,1282.72405450276,11011,-4831,-4283,12764.198799768044
1735573485756,-96,-18,1279,1282.72405450276,11306,-4441,-6511,13781.917065488386
1735573485786,-51,22,858,859.79590601491,11270,-4021,-8542,14701.942218632204
1735573485845,-51,22,858,859.79590601491,10878,-3722,-10316,15446.812745676694
1735573485846,-51,22,858,859.79590601491,10493,-3508,-12105,16399.39444003955
1735573485876,-51,22,858,859.79590601491,10133,-3382,-13908,17537.04869697293
1735573485906,-159,124,1068,1086.8675172255357,9929,-3319,-15814,18965.320930582748
1735573485935,-159,124,1068,1086.8675172255357,9741,-3306,-17760,20523.993690312807
1735573485966,-159,124,1068,1086.8675172255357,9586,-3341,16289,19193.363384253422
1735573485995,-69,139,783,798.2299167533124,9422,-3437,14332,17492.66351931575
1735573486025,-69,139,783,798.2299167533124,9266,-3594,12412,15900.733819544304
1735573486056,-69,139,783,798.2299167533124,9183,-3782,10484,14441.096530388542
1735573486085,-139,22,1070,1079.214992482962,9210,-3967,8504,13148.3536992279
1735573486115,-139,22,1070,1079.214992482962,9497,-4073,6354,12130.773017413194
1735573486145,-139,22,1070,1079.214992482962,9762,-4101,4196,11389.524177945275
1735573486176,-139,22,1070,1079.214992482962,9981,-4062,2045,10968.237324201187
1735573486206,-208,72,1044,1066.950795491526,10120,-3997,-32,10880.782738387896
1735573486235,-208,72,1044,1066.950795491526,10207,-3896,-2121,11129.254512320222
1735573486265,-208,72,1044,1066.950795491526,10243,-3777,-4195,11695.418034426986
1735573486296,-24,-3,1216,1216.240518976407,10192,-3680,-6148,12458.618221937777
1735573486326,-24,-3,1216,1216.240518976407,10088,-3634,-7948,13347.074735686469
1735573486356,-24,-3,1216,1216.240518976407,9993,-3611,-9750,14420.883121362574
1735573486386,-76,12,988,990.9914227681287,9874,-3615,-11532,15606.124599015606
1735573486416,-76,12,988,990.9914227681287,9730,-3653,-13330,16902.846180451386
1735573486446,-76,12,988,990.9914227681287,9623,-3723,-15132,18315.028856106124
1735573486476,-76,12,988,990.9914227681287,9554,-3814,-16939,19818.053209132322
1735573486506,-31,-16,938,938.6484965097425,9448,-3900,17218,20023.34207868407
1735573486536,-31,-16,938,938.6484965097425,9384,-4008,15386,18462.19152755165
1735573486565,-31,-16,938,938.6484965097425,9361,-4126,13545,16974.074996888638
1735573486596,50,-56,1288,1290.186033097553,9465,-4270,11778,15701.605300095911
1735573486626,50,-56,1288,1290.186033097553,9619,-4401,10087,14616.481484953894
1735573486656,50,-56,1288,1290.186033097553,9781,-4500,8384,13645.857136874913
1735573486685,-172,94,230,302.1919919521363,9790,-4561,6745,12733.493079277187
1735573486715,-172,94,230,302.1919919521363,9590,-4600,4973,11741.329950222846
1735573486745,-172,94,230,302.1919919521363,9438,-4676,3193,11006.183216719592
1735573486776,-172,94,230,302.1919919521363,9333,-4779,1403,10578.853387773175
1735573486805,-62,0,702,704.7325733922053,9810,-4872,-832,10984.748881972679
1735573486836,-62,0,702,704.7325733922053,10221,-4859,-3026,11714.751299110025
1735573486865,-62,0,702,704.7325733922053,10536,-4755,-5193,12672.196731427428
1735573486895,-33,175,1348,1359.7124696052472,10809,-4582,-7369,13861.145912225295
1735573486925,-33,175,1348,1359.7124696052472,10909,-4366,-9506,15113.976081759558
1735573486956,-33,175,1348,1359.7124696052472,10910,-4130,-11602,16452.702027326697
1735573486986,-218,248,995,1048.3572864248142,10734,-3879,-13641,17786.01354997797
1735573487046,-218,248,995,1048.3572864248142,10379,-3611,-15805,19249.960701258588
1735573487047,-218,248,995,1048.3572864248142,10021,-3447,-17975,20866.30956829693
1735573487088,-218,248,995,1048.3572864248142,9691,-3387,15846,18880.756499674477
1735573487106,-158,72,1063,1077.0872759437834,9443,-3489,13854,17125.32294586003
1735573487136,-158,72,1063,1077.0872759437834,9307,-3637,11875,15519.782311617648
1735573487167,-158,72,1063,1077.0872759437834,9240,-3811,9886,14058.247294737705
1735573487196,228,48,1092,1116.5804941874992,9194,-4011,8082,12881.633475611701
1735573487227,228,48,1092,1116.5804941874992,9064,-4250,6588,11984.170392647127
1735573487256,228,48,1092,1116.5804941874992,9002,-4505,5088,11279.129975312811
1735573487287,166,136,861,887.3404081861706,9023,-4737,3506,10777.0930217754
1735573487316,166,136,861,887.3404081861706,9117,-4901,1681,10486.431757275685
1735573487346,166,136,861,887.3404081861706,9245,-5042,-166,10531.825340367168
1735573487376,166,136,861,887.3404081861706,9395,-5153,-2037,10907.282108756517
1735573487405,-5,93,1037,1041.1738567597633,9911,-5194,-4180,11944.78785914593
1735573487436,-5,93,1037,1041.1738567597633,10394,-5103,-6378,13219.482932399436
1735573487466,-5,93,1037,1041.1738567597633,10728,-4913,-8518,14552.796191797644
1735573487526,-23,107,1129,1134.2922903731649,10848,-4672,-10542,15831.628216958608
1735573487527,-23,107,1129,1134.2922903731649,10834,-4418,-12505,17125.107444918413
1735573487556,-23,107,1129,1134.2922903731649,10743,-4168,-14439,18473.467297721887
1735573487586,14,12,982,982.1731008330456,10566,-3953,-16314,19834.64547200176
1735573487616,14,12,982,982.1731008330456,10370,-3808,17935,21064.234830631754
1735573487646,14,12,982,982.1731008330456,10176,-3706,16184,19473.244927335556
1735573487676,14,12,982,982.1731008330456,9995,-3647,14429,17927.539569054086
1735573487705,-26,71,1077,1079.6508694943936,9846,-3620,12629,16417.66600342448
1735573487735,-26,71,1077,1079.6508694943936,9713,-3627,10813,14980.603025245679
1735573487766,-26,71,1077,1079.6508694943936,9606,-3665,8993,13659.48425087858
1735573487796,9,84,898,901.9650769292567,9457,-3732,7192,12453.414672289686
1735573487826,9,84,898,901.9650769292567,9303,-3842,5415,11429.30435328415
1735573487855,9,84,898,901.9650769292567,9206,-3981,3632,10667.249926761817
1735573487886,-87,90,994,1001.8507872931976,9199,-4134,1827,10249.365151071554
1735573487916,-87,90,994,1001.8507872931976,9369,-4258,-129,10292.004955303899
1735573487945,-87,90,994,1001.8507872931976,9546,-4339,-2099,10693.869178178682
1735573487976,10,112,960,966.5629829452398,9679,-4383,-4052,11371.56251356866
1735573488006,10,112,960,966.5629829452398,9645,-4440,-5849,12122.311083287708
1735573488035,10,112,960,966.5629829452398,9633,-4502,-7651,13099.637170547892
1735573488066,10,112,960,966.5629829452398,9640,-4565,-9461,14257.60660139001
1735573488096,-29,98,924,929.6348745609752,9827,-4590,-11414,15745.393770877881
1735573488126,-29,98,924,929.6348745609752,9998,-4570,-13380,17316.73479614445
1735573488155,-29,98,924,929.6348745609752,10127,-4514,-15337,18925.007106999987
1735573488185,28,-1,1023,1023.3836035426795,10222,-4429,-17293,20570.68725152371
1735573488216,28,-1,1023,1023.3836035426795,10326,-4320,16803,20189.836180613253
1735573488245,28,-1,1023,1023.3836035426795,10375,-4190,14917,18647.080575789874
1735573488276,-42,75,1064,1067.466627112998,10372,-4052,13059,17162.009468590793
1735573488306,-42,75,1064,1067.466627112998,10308,-3908,11159,15686.000414382246
1735573488336,-42,75,1064,1067.466627112998,10216,-3781,9268,14302.392841759032
1735573488366,-42,75,1064,1067.466627112998,10107,-3677,7380,13043.625952931952
1735573488396,6,57,975,976.6831625455617,9986,-3621,5549,11984.29130153302
1735573488426,6,57,975,976.6831625455617,9871,-3597,3733,11149.454650340527
1735573488456,6,57,975,976.6831625455617,9772,-3599,1916,10588.476802637857
1735573488486,-57,60,1006,1009.3983356435655,9672,-3622,101,10328.43981441534
1735573488516,-57,60,1006,1009.3983356435655,9593,-3656,-1772,10417.86777608547
1735573488546,-57,60,1006,1009.3983356435655,9538,-3706,-3650,10864.178754052236
1735573488576,62,101,889,896.86453826651,9484,-3773,-5507,11597.794359273663
1735573488606,62,101,889,896.86453826651,9309,-3892,-7187,12387.821196643097
1735573488636,62,101,889,896.86453826651,9192,-4043,-8872,13399.66779438953
1735573488666,62,101,889,896.86453826651,9131,-4213,-10565,14585.738068400928
1735573488696,-26,37,920,921.1107425277376,9284,-4371,-12419,16109.930415740473
1735573488726,-26,37,920,921.1107425277376,9493,-4480,-14326,17760.116131377068
1735573488756,-26,37,920,921.1107425277376,9697,-4542,-16243,19454.989642762597
1735573488786,83,91,1011,1018.4748401408843,9866,-4563,17847,20896.75414986739
1735573488816,83,91,1011,1018.4748401408843,9942,-4571,16011,19393.02776773137
1735573488846,83,91,1011,1018.4748401408843,10006,-4564,14176,17941.825659614464
1735573488876,4,17,1052,1052.1449519909318,10071,-4536,12314,16541.914429714598
1735573488906,4,17,1052,1052.1449519909318,10254,-4443,10312,15205.989247661593
1735573488935,4,17,1052,1052.1449519909318,10369,-4313,8334,13984.766211846374
1735573488966,4,17,1052,1052.1449519909318,10417,-4159,6377,12902.608224696276
1735573488996,-37,30,996,997.1384056388562,10366,-4024,4532,12007.729010932917
1735573489026,-37,30,996,997.1384056388562,10292,-3898,2680,11327.050277984998
1735573489056,-37,30,996,997.1384056388562,10198,-3789,833,10910.985931619562
1735573489086,-82,52,944,948.9805055953468,10089,-3697,-1029,10794.191539897743
1735573489116,-82,52,944,948.9805055953468,9977,-3625,-2924,11010.491814628445
1735573489146,-82,52,944,948.9805055953468,9868,-3581,-4819,11550.91970364265
1735573489176,-43,68,971,974.3274603540639,9752,-3553,-6710,12359.183346807346
1735573489205,-43,68,971,974.3274603540639,9585,-3546,-8557,13329.238162775846
1735573489236,-43,68,971,974.3274603540639,9449,-3578,-10407,14504.872767453013
1735573489265,-43,68,971,974.3274603540639,9347,-3640,-12260,15840.568455708904
1735573489296,34,75,1013,1016.3414780476097,9245,-3727,-14064,17238.23221795089
1735573489355,34,75,1013,1016.3414780476097,9168,-3839,-15845,18704.38905711705
1735573489356,34,75,1013,1016.3414780476097,9134,-3963,-17633,20249.889234264963
1735573489386,-2,92,971,975.3507061565086,9151,-4075,16534,19331.828211527227
1735573489416,-2,92,971,975.3507061565086,9206,-4169,14655,17801.68593139425
1735573489446,-2,92,971,975.3507061565086,9278,-4248,12768,16344.681459116908
1735573489476,-29,108,962,968.4776713998109,9352,-4302,10892,14986.753217425046
1735573489506,-29,108,962,968.4776713998109,9419,-4324,9020,13739.539184412264
1735573489535,-29,108,962,968.4776713998109,9479,-4332,7147,12637.138679305534
1735573489566,-29,108,962,968.4776713998109,9530,-4328,5276,11721.29088453998
1735573489596,30,118,1025,1032.2058903145244,9539,-4308,3438,11016.861122842567
1735573489626,30,118,1025,1032.2058903145244,9525,-4293,1625,10573.367438995016
1735573489656,30,118,1025,1032.2058903145244,9511,-4282,-186,10432.125430610964
1735573489689,-59,121,891,901.1120906968233,9531,-4273,-2051,10644.48641316245
1735573489716,-59,121,891,901.1120906968233,9590,-4249,-3991,11222.752870842342
1735573489746,-59,121,891,901.1120906968233,9630,-4212,-5926,12066.28857602867
1735573489776,-12,118,1010,1016.9405095677918,9668,-4167,-7859,13137.655574721084
1735573489806,-12,118,1010,1016.9405095677918,9685,-4120,-9740,14340.196128365887
1735573489836,-12,118,1010,1016.9405095677918,9685,-4070,-11616,15661.91498508404
1735573489866,-12,118,1010,1016.9405095677918,9672,-4022,-13487,17076.979738817987
1735573489896,-84,134,883,897.0512805854523,9621,-3953,-15417,18597.681011351928
1735573489926,-84,134,883,897.0512805854523,9571,-3894,-17369,20210.132062903496
1735573489956,-84,134,883,897.0512805854523,9513,-3848,16681,19584.68876444045
1735573489986,49,187,1097,1113.902598973537,9438,-3824,14802,17966.580754278206
1735573490016,49,187,1097,1113.902598973537,9305,-3839,13027,16462.796694365148
1735573490046,49,187,1097,1113.902598973537,9201,-3882,11249,15042.218121008616
1735573490076,-11,111,995,1001.2327401758295,9118,-3935,9445,13705.114884596918
1735573490106,-11,111,995,1001.2327401758295,9147,-3967,7528,12493.017329692615
1735573490135,-11,111,995,1001.2327401758295,9179,-3992,5609,11473.926355001588
1735573490166,-11,111,995,1001.2327401758295,9212,-4008,3689,10702.04321613401
1735573490196,-28,159,1147,1158.3065224714915,9196,-4012,1795,10192.378770434309
1735573490226,-28,159,1147,1158.3065224714915,9176,-4021,-104,10018.893801213784
1735573490256,-28,159,1147,1158.3065224714915,9163,-4035,-2006,10211.064097340688
1735573490286,-18,156,1015,1027.0759465589679,9181,-4050,-3967,10790.289616131719
1735573490316,-18,156,1015,1027.0759465589679,9208,-4059,-5952,11691.409196499795
1735573490345,-18,156,1015,1027.0759465589679,9232,-4062,-7937,12834.548570167943
1735573490376,15,132,1114,1121.89348870559,9240,-4064,-9901,14139.430575521774
1735573490406,15,132,1114,1121.89348870559,9224,-4079,-11787,15513.01988653402
1735573490436,15,132,1114,1121.89348870559,9215,-4097,-13674,16990.58297999218
1735573490466,15,132,1114,1121.89348870559,9213,-4116,-15562,18547.14719303214
1735573490496,73,138,1053,1064.510216014858,9138,-4148,-17347,20040.642629416852
1735573490528,73,138,1053,1064.510216014858,9071,-4197,16885,19621.444263866
1735573490556,73,138,1053,1064.510216014858,9029,-4258,15114,18113.15546778087
1735573490586,-59,185,780,803.8071908113288,9026,-4312,13291,16634.683675982542
1735573490616,-59,185,780,803.8071908113288,9074,-4350,11362,15177.451037641335
1735573490646,-59,185,780,803.8071908113288,9123,-4376,9430,13831.247413013767
1735573490676,149,150,1076,1096.5751228256092,9208,-4405,7479,12654.119092216573
1735573490706,149,150,1076,1096.5751228256092,9225,-4462,5738,11744.560996478327
1735573490736,149,150,1076,1096.5751228256092,9254,-4514,3993,11043.403506166023
1735573490766,149,150,1076,1096.5751228256092,9291,-4559,2242,10589.321319140336
1735573490796,-179,64,793,815.4667375190726,9471,-4491,184,10483.4525801379
1735573490826,-179,64,793,815.4667375190726,9684,-4351,-1976,10798.871839224688
1735573490856,-179,64,793,815.4667375190726,9799,-4167,-4102,11410.990053452855
1735573490886,-224,79,859,891.2339760130333,9911,-3979,-6194,12346.09241825121
1735573490916,-224,79,859,891.2339760130333,9984,-3768,-8279,13506.291904146008
1735573490946,-224,79,859,891.2339760130333,9973,-3546,-10342,14798.371836117647
1735573490976,96,175,1164,1180.9898390756798,9904,-3355,-12426,16240.403843500937
1735573491006,96,175,1164,1180.9898390756798,9582,-3311,-14259,17495.61447906303
1735573491036,96,175,1164,1180.9898390756798,9313,-3344,-16099,18896.880853728217
1735573491066,96,175,1164,1180.9898390756798,9103,-3438,-17943,20411.65603276716
1735573491096,35,85,909,913.63614201716,8876,-3553,16245,18849.594425345073
1735573491127,35,85,909,913.63614201716,8753,-3705,14407,17259.8865291751
1735573491156,35,85,909,913.63614201716,8693,-3876,12562,15760.56689970256
1735573491186,-3,115,883,890.4622395138381,8686,-4048,10720,14378.849049906603
1735573491216,-3,115,883,890.4622395138381,8727,-4211,8850,13123.09224230326
1735573491246,-3,115,883,890.4622395138381,8808,-4356,6964,12043.790765369515
1735573491276,-104,113,925,937.6619860056181,8931,-4481,5060,11200.255443515563
1735573491306,-104,113,925,937.6619860056181,9180,-4566,3014,10686.671698896715
1735573491336,-104,113,925,937.6619860056181,9409,-4591,962,10513.420280764962
1735573491366,-104,113,925,937.6619860056181,9600,-4564,-1084,10684.80940400904
1735573491396,60,85,982,987.496329107101,9683,-4509,-2996,11093.58310015299
1735573491456,60,85,982,987.496329107101,9702,-4453,-4835,11719.01181840858
1735573491457,60,85,982,987.496329107101,9700,-4394,-6666,12563.152152226765
1735573491487,9,157,1009,1021.1811788316509,9711,-4328,-8534,13633.204355543125
1735573491516,9,157,1009,1021.1811788316509,9703,-4255,-10446,14878.580241407444
1735573491546,9,157,1009,1021.1811788316509,9675,-4187,-12350,16237.582763453433
1735573491576,30,144,968,979.1118424368076,9630,-4129,-14254,17690.733647873396
1735573491605,30,144,968,979.1118424368076,9570,-4089,-16140,19204.28131953914
1735573491636,30,144,968,979.1118424368076,9510,-4064,17973,20736.07785961463
1735573491666,30,144,968,979.1118424368076,9455,-4052,16088,19095.535420615994
1735573491696,31,133,1100,1108.4448565445193,9428,-4050,14149,17478.097293469906
1735573491727,31,133,1100,1108.4448565445193,9408,-4053,12211,15938.814071316598
1735573491756,31,133,1100,1108.4448565445193,9393,-4061,10272,14499.453575911059
1735573491786,-103,121,1003,1015.5092318635021,9412,-4050,8225,13139.211125482381
1735573491816,-103,121,1003,1015.5092318635021,9453,-4024,6131,11964.152539983766
1735573491846,-103,121,1003,1015.5092318635021,9477,-3990,4043,11048.958231435216
1735573491876,59,187,904,925.0221618966758,9466,-3958,1982,10449.844209365037
1735573491906,59,187,904,925.0221618966758,9262,-3987,145,10084.732916641868
1735573491936,59,187,904,925.0221618966758,9103,-4059,-1696,10110.217900718066
1735573491966,-59,87,1031,1036.3450197689956,9012,-4166,-3571,10551.006634440148
1735573492027,-59,87,1031,1036.3450197689956,9168,-4264,-5641,11578.203703511179
1735573492028,-59,87,1031,1036.3450197689956,9325,-4320,-7721,12854.254781977834
1735573492056,-59,87,1031,1036.3450197689956,9469,-4336,-9804,14303.191007603862
1735573492086,-127,97,826,841.3168249833114,9573,-4320,-11858,15840.35646694859
1735573492116,-127,97,826,841.3168249833114,9663,-4275,-13933,17486.500021445114
1735573492146,-127,97,826,841.3168249833114,9719,-4211,-15997,19185.814838051574
1735573492176,0,155,1015,1026.7667700115737,9752,-4150,17979,20870.276591363134
1735573492205,0,155,1015,1026.7667700115737,9635,-4127,16120,19228.098033867
1735573492235,0,155,1015,1026.7667700115737,9534,-4130,14259,17642.93447814167
1735573492266,-118,130,1045,1059.6456955039264,9489,-4151,12356,16122.737298610307
1735573492296,-118,130,1045,1059.6456955039264,9626,-4139,10240,14650.897481041904
1735573492356,-118,130,1045,1059.6456955039264,9729,-4094,8131,13323.942284474217
1735573492357,-118,130,1045,1059.6456955039264,9796,-4026,6032,12188.327038605421
1735573492386,-173,84,1005,1023.2350658573034,9860,-3945,3882,11307.190146097306
1735573492416,-173,84,1005,1023.2350658573034,9903,-3843,1725,10761.676588710516
1735573492446,-173,84,1005,1023.2350658573034,9902,-3734,-418,10590.896279352375
1735573492476,38,75,1123,1126.1429749370193,9840,-3669,-2440,10781.50086954502
1735573492506,38,75,1123,1126.1429749370193,9710,-3667,-4295,11232.898735411087
1735573492536,38,75,1123,1126.1429749370193,9605,-3696,-6153,11990.656779342822
1735573492566,-35,29,933,934.1065249745342,9504,-3749,-8021,12989.128454211237
1735573492596,-35,29,933,934.1065249745342,9472,-3813,-9983,14279.987464980493
1735573492626,-35,29,933,934.1065249745342,9466,-3882,-11950,15731.420152039675
1735573492656,-35,29,933,934.1065249745342,9481,-3949,-13924,17302.07322837353
1735573492686,-24,29,1066,1066.6644270809823,9502,-4033,-15862,18925.013527075746
1735573492716,-24,29,1066,1066.6644270809823,9542,-4109,-17804,20613.492207774983
1735573492746,-24,29,1066,1066.6644270809823,9597,-4174,16246,19325.04077615362
1735573492776,-144,66,1006,1018.3948153835034,9649,-4226,14241,17713.50778360966
1735573492806,-144,66,1006,1018.3948153835034,9727,-4254,12139,16126.573287589648
1735573492836,-144,66,1006,1018.3948153835034,9798,-4263,10036,14659.306566137431
1735573492866,-32,63,1034,1036.4115977737802,9866,-4265,7959,13374.3733311135
1735573492896,-32,63,1034,1036.4115977737802,9865,-4297,6058,12348.352035798138
1735573492927,-32,63,1034,1036.4115977737802,9874,-4329,4153,11553.507086594962
1735573492956,-32,63,1034,1036.4115977737802,9891,-4358,2245,11039.206040291123
1735573492986,-85,19,988,991.8316389387868,9960,-4356,258,10873.95512221749
1735573493016,-85,19,988,991.8316389387868,10037,-4331,-1744,11069.799727185673
1735573493046,-85,19,988,991.8316389387868,10090,-4288,-3741,11584.046141137387
1735573493076,70,80,1060,1065.3168542738822,10080,-4259,-5633,12307.565559443508
1735573493106,70,80,1060,1065.3168542738822,9974,-4272,-7388,13126.812408197202
1735573493136,70,80,1060,1065.3168542738822,9891,-4307,-9147,14143.894053619038
1735573493167,-62,87,933,939.0963741810529,9855,-4348,-10956,15364.246320597702
1735573493196,-62,87,933,939.0963741810529,9963,-4339,-13009,16950.586155056702
1735573493226,-62,87,933,939.0963741810529,10045,-4306,-15056,18604.483250012618
1735573493254,-62,87,933,939.0963741810529,10099,-4254,-17095,20305.795773620892
1735573493286,-118,10,1046,1052.6822882522533,10167,-4200,16924,20184.887044519222
1735573493316,-118,10,1046,1052.6822882522533,10233,-4119,14934,18566.227565124802
1735573493346,-118,10,1046,1052.6822882522533,10260,-4026,12956,17009.82692445752
1735573493376,-33,76,912,915.7559718614998,10194,-3950,11031,15530.71463262396
1735573493405,-33,76,912,915.7559718614998,10046,-3924,9175,14159.820514399185
1735573493436,-33,76,912,915.7559718614998,9920,-3931,7316,12937.658868589788
1735573493466,-143,10,975,985.4816081490309,9850,-3957,5413,11915.574597978899
1735573493496,-143,10,975,985.4816081490309,9970,-3937,3313,11219.484747527402
1735573493526,-143,10,975,985.4816081490309,10058,-3887,1219,10851.640152529939
1735573493556,-143,10,975,985.4816081490309,10111,-3818,-865,10842.401486755598
1735573493586,56,91,990,995.7494664824079,9951,-3798,-2753,11001.191480926054
1735573493616,56,91,990,995.7494664824079,9763,-3840,-4575,11445.190867783725
1735573493646,56,91,990,995.7494664824079,9621,-3922,-6403,12204.267040670653
1735573493676,-13,62,974,976.057887627573,9586,-4034,-8252,13276.29677282035
1735573493706,-13,62,974,976.057887627573,9648,-4137,-10155,14605.57078651841
1735573493736,-13,62,974,976.057887627573,9729,-4223,-12067,16065.480353851857
1735573493766,-95,50,891,897.4441486800167,9821,-4287,-14003,17632.765494952855
1735573493796,-95,50,891,897.4441486800167,9980,-4302,-16068,19398.150117988054
1735573493826,-95,50,891,897.4441486800167,10111,-4279,17871,20974.14606128221
1735573493856,-95,50,891,897.4441486800167,10207,-4227,15819,19294.84747283585
1735573493886,-91,0,962,966.2944685757028,10269,-4169,13813,17709.65530438128
1735573493916,-91,0,962,966.2944685757028,10311,-4095,11818,16209.591913431997
1735573493946,-91,0,962,966.2944685757028,10321,-4013,9833,14809.290968847901
1735573493976,-126,-42,1100,1107.9891696221584,10310,-3941,7872,13557.137050277244
1735573494006,-126,-42,1100,1107.9891696221584,10307,-3867,5907,12493.221642154596
1735573494036,-126,-42,1100,1107.9891696221584,10283,-3796,3948,11650.596937496379
1735573494066,-120,24,858,866.68333317308,10219,-3724,2000,11058.758384194854
1735573494096,-120,24,858,866.68333317308,10046,-3673,74,10696.6593383168
1735573494126,-120,24,858,866.68333317308,9894,-3665,-1853,10712.472637071238
1735573494156,-120,24,858,866.68333317308,9770,-3693,-3785,11109.337243958345
1735573494186,-67,61,960,964.2665606563363,9689,-3767,-5711,11860.966697533553
1735573494216,-67,61,960,964.2665606563363,9627,-3866,-7625,12875.003300970451
1735573494246,-67,61,960,964.2665606563363,9606,-3975,-9547,14114.569423117377
1735573494276,-22,68,1073,1075.3776080986622,9674,-4089,-11492,15568.309510027093
1735573494306,-22,68,1073,1075.3776080986622,9772,-4189,-13430,17129.05732957888
1735573494336,-22,68,1073,1075.3776080986622,9882,-4264,-15377,18769.330009353023
1735573494366,-102,-13,930,935.6671416695149,9978,-4303,-17341,20464.275555220614
1735573494396,-102,-13,930,935.6671416695149,10155,-4274,16583,19909.46985733171
1735573494456,-102,-13,930,935.6671416695149,10284,-4204,14520,18282.90655229633
1735573494457,-102,-13,930,935.6671416695149,10363,-4105,12472,16727.031356460117
1735573494486,-79,84,1127,1132.8839305065635,10390,-4010,10496,15303.53606196947
1735573494516,-79,84,1127,1132.8839305065635,10355,-3920,8538,13981.769165595604
1735573494546,-79,84,1127,1132.8839305065635,10301,-3839,6586,12814.988021843797
1735573494576,-89,-62,1039,1044.6463516425067,10209,-3776,4641,11833.035874195599
1735573494606,-89,-62,1039,1044.6463516425067,10165,-3725,2696,11156.669126580746
1735573494636,-89,-62,1039,1044.6463516425067,10114,-3685,752,10790.631353169285
1735573494666,144,101,727,747.9745984991737,10031,-3668,-1156,10742.975425830593
1735573494726,144,101,727,747.9745984991737,9643,-3775,-2759,10716.816458258489
1735573494727,144,101,727,747.9745984991737,9344,-3956,-4362,11044.78682456117
1735573494756,144,101,727,747.9745984991737,9133,-4189,-5967,11686.081421930963
1735573494786,198,116,1151,1173.6528447543592,9087,-4461,-7609,12663.766067011818
1735573494816,198,116,1151,1173.6528447543592,9095,-4737,-9249,13809.496551286727
1735573494846,198,116,1151,1173.6528447543592,9172,-5002,-10918,15111.198231775004
1735573494876,-121,41,995,1003.1684803660849,9497,-5209,-12870,16821.521631529056
1735573494906,-121,41,995,1003.1684803660849,10103,-5262,-15201,18995.516681575155
1735573494936,-121,41,995,1003.1684803660849,10599,-5179,-17513,21115.539562132908
1735573494966,-116,24,1000,1006.991559051018,10915,-4990,16255,20205.502963301853
1735573494996,-116,24,1000,1006.991559051018,11043,-4740,14134,18552.234501536466
1735573495026,-116,24,1000,1006.991559051018,11049,-4465,12071,16962.47820927119
1735573495056,-116,24,1000,1006.991559051018,10960,-4191,10047,15447.598195188792
1735573495086,-148,103,1102,1116.6543780418363,10789,-3927,8061,14028.669609054166
1735573495116,-148,103,1102,1116.6543780418363,10563,-3708,6072,12735.596452463466
1735573495146,-148,103,1102,1116.6543780418363,10321,-3548,4084,11652.913841610603
1735573495176,-51,101,901,908.0765386243606,10048,-3450,2131,10835.40331505939
1735573495206,-51,101,901,908.0765386243606,9766,-3437,240,10355.931875017332
1735573495236,-51,101,901,908.0765386243606,9535,-3491,-1657,10288.29213232206
1735573495266,-92,63,964,970.4272255043137,9389,-3601,-3559,10667.099090193173
1735573495296,-92,63,964,970.4272255043137,9401,-3731,-5512,11518.737170367245
1735573495326,-92,63,964,970.4272255043137,9449,-3852,-7474,12648.406263241231
1735573495356,-92,63,964,970.4272255043137,9524,-3957,-9446,13985.397420166508
1735573495386,-15,31,1044,1044.5678532292673,9598,-4040,-11366,15415.22494159589
1735573495415,-15,31,1044,1044.5678532292673,9676,-4109,-13265,16925.397543337054
1735573495446,-15,31,1044,1044.5678532292673,9759,-4158,-15170,18510.968235076198
1735573495476,-123,15,1016,1023.5282116287758,9879,-4173,-17123,20204.101044094983
1735573495506,-123,15,1016,1023.5282116287758,10037,-4134,16844,20038.753978229284
1735573495536,-123,15,1016,1023.5282116287758,10148,-4059,14824,18417.61007840051
1735573495566,-157,53,946,960.4030403950209,10190,-3971,12838,16864.731987197425
1735573495596,-157,53,946,960.4030403950209,10151,-3899,10868,15373.952842388973
1735573495627,-157,53,946,960.4030403950209,10099,-3838,8902,13998.773124813473
1735573495657,-65,30,953,955.6850945787529,10044,-3797,6930,12779.829615452625
1735573495686,-65,30,953,955.6850945787529,9965,-3801,5035,11794.068466818395
1735573495716,-65,30,953,955.6850945787529,9903,-3824,3137,11069.469454314421
1735573495746,-65,30,953,955.6850945787529,9859,-3860,1237,10659.720915671292
1735573495776,-72,46,946,949.8505145547904,9832,-3893,-707,10598.279199945622
1735573495806,-72,46,946,949.8505145547904,9818,-3931,-2658,10904.625119645334
1735573495836,-72,46,946,949.8505145547904,9819,-3972,-4612,11552.49276130481
1735573495866,-11,109,973,979.1480991147356,9824,-4010,-6555,12472.333422419399
1735573495896,-11,109,973,979.1480991147356,9737,-4068,-8405,13490.804942626663
1735573495926,-11,109,973,979.1480991147356,9682,-4143,-10262,14704.224461017997
1735573495956,-126,102,850,865.3207497801033,9667,-4225,-12144,16086.586026873447
1735573495986,-126,102,850,865.3207497801033,9778,-4273,-14198,17760.940769002074
1735573496016,-126,102,850,865.3207497801033,9883,-4294,-16256,19503.06798942156
1735573496046,-126,102,850,865.3207497801033,9973,-4290,17687,20753.187658767027
1735573496076,-37,42,1016,1017.5406625781595,10087,-4272,15660,19111.074093310403
1735573496106,-37,42,1016,1017.5406625781595,10167,-4234,13673,17556.923819393876
1735573496136,-37,42,1016,1017.5406625781595,10219,-4179,11694,16082.339319887515
1735573496166,-104,19,930,935.989850372321,10251,-4114,9717,14711.49502939793
1735573496196,-104,19,930,935.989850372321,10288,-4031,7711,13474.102048003051
1735573496226,-104,19,930,935.989850372321,10290,-3940,5715,12412.45040272065
1735573496256,4,35,1088,1088.5701631038764,10269,-3857,3736,11588.20546935547
1735573496286,4,35,1088,1088.5701631038764,10163,-3822,1891,11021.349009989657
1735573496316,4,35,1088,1088.5701631038764,10068,-3812,45,10765.593016643346
1735573496346,4,35,1088,1088.5701631038764,9989,-3823,-1801,10846.153742225859
1735573496376,-43,32,1035,1036.3869933572112,9883,-3833,-3671,11217.924005804283
1735573496406,-43,32,1035,1036.3869933572112,9809,-3862,-5561,11918.735083892083
1735573496436,-43,32,1035,1036.3869933572112,9758,-3907,-7454,12885.857713012356
1735573496466,-167,93,979,997.4863407586091,9799,-3961,-9422,14159.237479469013
1735573496496,-167,93,979,997.4863407586091,9893,-3988,-11496,15682.2705307618
1735573496526,-167,93,979,997.4863407586091,9976,-3991,-13570,17308.77110022546
1735573496556,-208,-64,1040,1062.5252938165754,10036,-3976,-15642,19005.315993163596
1735573496586,-208,-64,1040,1062.5252938165754,10215,-3921,-17755,20855.70643732789
1735573496616,-208,-64,1040,1062.5252938165754,10336,-3822,16147,19549.07130786524
1735573496646,-208,-64,1040,1062.5252938165754,10398,-3696,14065,17877.445147447663
1735573496676,-23,114,940,947.1668279664359,10183,-3634,12197,16299.27157881603
1735573496706,-23,114,940,947.1668279664359,9921,-3655,10386,14820.737565991782
1735573496736,-23,114,940,947.1668279664359,9714,-3734,8571,13482.084148973407
1735573496766,-85,59,924,929.7752416578966,9601,-3840,6699,12320.771160929822
1735573496796,-85,59,924,929.7752416578966,9593,-3945,4760,11412.5489703221
1735573496826,-85,59,924,929.7752416578966,9617,-4048,2812,10806.495130244588
1735573496856,-198,78,937,960.8626332624242,9672,-4139,847,10554.445224643501
1735573496886,-198,78,937,960.8626332624242,9813,-4181,-1268,10741.673705712717
1735573496916,-198,78,937,960.8626332624242,9940,-4187,-3385,11304.547492049383
1735573496946,-198,78,937,960.8626332624242,10042,-4163,-5497,12181.516408066773
1735573496976,-127,61,987,997.0050150325222,10116,-4116,-7544,13273.539392339935
1735573497006,-127,61,987,997.0050150325222,10150,-4059,-9557,14520.131886453373
1735573497036,-127,61,987,997.0050150325222,10160,-3997,-11563,15902.973872832716
1735573497066,-186,67,1020,1038.982675505227,10190,-3915,-13634,17465.660050510545
1735573497096,-186,67,1020,1038.982675505227,10218,-3808,-15760,19164.706833134704
1735573497126,-186,67,1020,1038.982675505227,10204,-3698,-17874,20911.161995451137
1735573497156,4,97,1011,1015.6505304483427,10137,-3606,16063,19333.441856017256
1735573497186,4,97,1011,1015.6505304483427,9897,-3615,14282,17748.080403243614
1735573497216,4,97,1011,1015.6505304483427,9705,-3676,12497,16244.230052544812
1735573497246,4,97,1011,1015.6505304483427,9563,-3778,10707,14844.665775961412
1735573497276,-36,28,937,938.1092686888878,9541,-3887,8807,13553.696875760503
1735573497306,-36,28,937,938.1092686888878,9578,-3989,6883,12450.939482625397
1735573497336,-36,28,937,938.1092686888878,9639,-4080,4950,11578.394577833318
1735573497366,11,81,1036,1039.2198997324867,9684,-4169,3041,10973.062380210913
1735573497396,11,81,1036,1039.2198997324867,9698,-4265,1166,10658.376283468322
1735573497426,11,81,1036,1039.2198997324867,9738,-4356,-718,10692.001870557262
1735573497456,-39,103,993,999.089085117038,9808,-4434,-2622,11078.45223846725
1735573497486,-39,103,993,999.089085117038,9926,-4482,-4613,11827.661180470128
1735573497516,-39,103,993,999.089085117038,10037,-4501,-6606,12831.19659267989
1735573497546,-39,103,993,999.089085117038,10132,-4497,-8598,14028.757500220752
1735573497576,-111,55,922,930.2849025970485,10249,-4440,-10658,15438.541543811709
1735573497606,-111,55,922,930.2849025970485,10348,-4347,-12729,16970.708706474223
1735573497636,-111,55,922,930.2849025970485,10393,-4233,-14782,18559.10186404504
1735573497666,-54,28,1059,1060.7454925664308,10426,-4125,-16811,20207.098307278065
1735573497696,-54,28,1059,1060.7454925664308,10427,-4024,17207,20518.181059733342
1735573497726,-54,28,1059,1060.7454925664308,10397,-3925,15236,18858.391500867725
1735573497756,-177,-29,1067,1081.9699626144895,10333,-3827,13266,17245.392834029615
1735573497786,-177,-29,1067,1081.9699626144895,10347,-3685,11167,15663.38159530055
1735573497816,-177,-29,1067,1081.9699626144895,10311,-3545,9080,14189.085453263011
1735573497846,-177,-29,1067,1081.9699626144895,10238,-3418,7002,12865.744129276005
1735573497876,-78,-3,1041,1043.9224109099296,10051,-3374,5105,11767.221507220811
1735573497906,-78,-3,1041,1043.9224109099296,9868,-3387,3237,10923.706422272617
1735573497936,-78,-3,1041,1043.9224109099296,9724,-3444,1366,10405.92465857792
1735573497966,-127,25,1052,1059.9330167515304,9645,-3515,-572,10281.460693889754
1735573497996,-127,25,1052,1059.9330167515304,9611,-3590,-2573,10577.322440012878
1735573498026,-127,25,1052,1059.9330167515304,9607,-3669,-4579,11257.14222171862
1735573498056,-9,65,985,987.1833669587429,9629,-3746,-6597,12258.489548064232
1735573498086,-9,65,985,987.1833669587429,9574,-3843,-8508,13372.217056270063
1735573498116,-9,65,985,987.1833669587429,9556,-3949,-10427,14684.48385201196
1735573498146,-9,65,985,987.1833669587429,9573,-4055,-12355,16147.17866997204
1735573498176,-132,73,1008,1019.2237242136782,9712,-4121,-14408,17857.660793060215
1735573498206,-132,73,1008,1019.2237242136782,9868,-4140,-16510,19674.783963235783
1735573498236,-132,73,1008,1019.2237242136782,9997,-4120,17391,20478.312674632154
1735573498266,-97,36,1011,1016.2804730978551,10071,-4087,15374,18827.864616041832
1735573498327,-97,36,1011,1016.2804730978551,10115,-4048,13419,17284.938241139305
1735573498328,-97,36,1011,1016.2804730978551,10138,-4001,11470,15822.38746207411
1735573498356,-18,32,981,981.6868136019756,10134,-3950,9551,14474.876752497757
1735573498386,-18,32,981,981.6868136019756,10058,-3926,7771,13302.829811735546
1735573498416,-18,32,981,981.6868136019756,9991,-3918,5990,12290.276847980276
1735573498446,-18,32,981,981.6868136019756,9934,-3925,4208,11480.29812330673
1735573498476,-46,-42,897,899.1601637083351,9968,-3918,2291,10952.644840402705
1735573498506,-46,-42,897,899.1601637083351,10017,-3894,366,10753.486922854372
1735573498536,-46,-42,897,899.1601637083351,10049,-3861,-1554,10876.793553249046
1735573498566,-68,95,883,890.6952340728,10016,-3832,-3420,11256.148542019157
1735573498596,-68,95,883,890.6952340728,9915,-3828,-5272,11864.012516851119
1735573498626,-68,95,883,890.6952340728,9832,-3848,-7127,12738.502934018581
1735573498656,-14,17,1060,1060.2287489028017,9780,-3884,-9005,13850.049855505937
1735573498686,-14,17,1060,1060.2287489028017,9794,-3927,-10870,15149.279355797753
1735573498716,-14,17,1060,1060.2287489028017,9817,-3967,-12737,16563.264986107057
1735573498746,-14,17,1060,1060.2287489028017,9847,-4000,-14607,18064.54699127548
1735573498777,-123,97,1043,1054.6975869888013,9880,-3987,-16593,19718.981160293246
1735573498806,-123,97,1043,1054.6975869888013,9903,-3962,17383,20394.497836426373
1735573498836,-123,97,1043,1054.6975869888013,9913,-3932,15363,18701.60319330939
1735573498866,25,84,968,971.9593612903782,9830,-3913,13434,17100.082602139675
1735573498896,25,84,968,971.9593612903782,9683,-3940,11627,15635.575397151202
1735573498926,25,84,968,971.9593612903782,9571,-3999,9815,14280.415505159504
1735573498956,70,90,975,981.6440291673963,9491,-4082,8022,13080.30156380196
1735573498986,70,90,975,981.6440291673963,9406,-4196,6324,12086.03441994106
1735573499016,70,90,975,981.6440291673963,9363,-4323,4618,11299.558486949833
1735573499046,70,90,975,981.6440291673963,9359,-4455,2902,10763.80555379927
1735573499076,46,81,846,851.1128009846874,9418,-4563,1085,10521.26028572623
1735573499106,46,81,846,851.1128009846874,9505,-4653,-753,10609.544900701443
1735573499136,46,81,846,851.1128009846874,9603,-4724,-2602,11013.81809364945
1735573499166,55,81,961,965.974637348207,9767,-4772,-4503,11766.192332271303
1735573499196,55,81,961,965.974637348207,9939,-4783,-6422,12763.341803775373
1735573499226,55,81,961,965.974637348207,10081,-4759,-8337,13920.496075930627
1735573499256,-38,72,1049,1052.1544563418433,10175,-4711,-10219,15170.764878541886
1735573499286,-38,72,1049,1052.1544563418433,10295,-4627,-12157,16588.815599674377
1735573499316,-38,72,1049,1052.1544563418433,10363,-4519,-14076,18053.99972305306
1735573499346,29,55,1041,1042.8552152624063,10372,-4399,-15973,19546.516671775564
1735573499376,29,55,1041,1042.8552152624063,10291,-4302,-17773,20983.122122315355
1735573499406,29,55,1041,1042.8552152624063,10200,-4223,16430,19794.409033866104
1735573499436,29,55,1041,1042.8552152624063,10106,-4163,14637,18267.55522778021
1735573499466,108,62,895,903.6221555495416,9999,-4119,12843,16789.54469305228
1735573499496,108,62,895,903.6221555495416,9884,-4106,11077,15403.00688177474
1735573499526,108,62,895,903.6221555495416,9788,-4117,9309,14121.335418436884
1735573499556,86,82,981,988.1705318415441,9725,-4145,7540,12984.92395048966
1735573499586,86,82,981,988.1705318415441,9703,-4174,5749,12025.867369965461
1735573499615,86,82,981,988.1705318415441,9694,-4207,3954,11283.022688978339
1735573499645,171,88,1018,1036.0062741122758,9694,-4245,2161,10801.09170408251
1735573499676,171,88,1018,1036.0062741122758,9640,-4310,471,10570.124928306193
1735573499706,171,88,1018,1036.0062741122758,9612,-4383,-1223,10634.705543643417
1735573499736,171,88,1018,1036.0062741122758,9607,-4461,-2924,10988.391420039605
1735573499766,-19,137,876,886.8517350718778,9675,-4502,-4807,11703.88303085775
1735573499796,-19,137,876,886.8517350718778,9776,-4514,-6768,12718.18367535239
1735573499827,-19,137,876,886.8517350718778,9860,-4504,-8727,13916.398420568448
1735573499856,-16,38,945,945.8990432387592,9960,-4493,-10658,15263.735224380696
1735573499887,-16,38,945,945.8990432387592,10092,-4459,-12569,16724.55996431595
1735573499916,-16,38,945,945.8990432387592,10187,-4399,-14471,18235.5699389956
1735573499946,136,54,938,949.3450373810357,10247,-4325,-16365,19786.8607666805
1735573499976,136,54,938,949.3450373810357,10164,-4296,17915,21040.668644318317
1735573500006,136,54,938,949.3450373810357,10089,-4283,16195,19555.30708017647
1735573500036,136,54,938,949.3450373810357,10025,-4285,14475,18121.464482761872
1735573500066,68,11,1021,1023.3210639872513,10049,-4270,12642,16704.35467176149
1735573500096,68,11,1021,1023.3210639872513,10088,-4240,10788,15366.401270303988
1735573500126,68,11,1021,1023.3210639872513,10110,-4202,8937,14132.90037465771
1735573500156,78,20,1087,1089.978440153749,10110,-4164,7096,13034.73099070326
1735573500186,78,20,1087,1089.978440153749,10091,-4132,5267,12109.62402389108
1735573500216,78,20,1087,1089.978440153749,10065,-4104,3440,11400.905271073872
1735573500246,106,40,1022,1028.2606673407283,10016,-4085,1648,10941.818176153358
1735573500276,106,40,1022,1028.2606673407283,9899,-4094,-46,10712.289811240173
1735573500306,106,40,1022,1028.2606673407283,9805,-4127,-1744,10780.152596322558
1735573500336,106,40,1022,1028.2606673407283,9737,-4177,-3445,11141.118570412937
1735573500366,189,20,1000,1017.9002898123175,9632,-4256,-5069,11686.90382436683
1735573500396,189,20,1000,1017.9002898123175,9549,-4359,-6666,12434.622551569468
1735573500427,189,20,1000,1017.9002898123175,9504,-4476,-8269,13369.254018081936
1735573500456,173,115,942,964.6336092009235,9471,-4586,-9921,14462.277759744486
1735573500486,173,115,942,964.6336092009235,9430,-4701,-11614,15681.49536874593
1735573500516,173,115,942,964.6336092009235,9426,-4820,-13319,17014.042347425846
1735573500546,89,66,1000,1006.1197741819808,9468,-4931,-15047,18449.11905755936
1735573500576,89,66,1000,1006.1197741819808,9672,-4996,-16918,20117.811113538173
1735573500606,89,66,1000,1006.1197741819808,9860,-5021,17204,20455.015448539754
1735573500636,89,66,1000,1006.1197741819808,10020,-5011,15329,18986.54160188211
1735573500666,64,51,958,961.4889494944807,10130,-4942,13466,17560.564341728885
1735573500695,64,51,958,961.4889494944807,10207,-4850,11609,16201.056447034558
1735573500726,64,51,958,961.4889494944807,10240,-4744,9769,14926.369183428367
1735573500756,56,117,1034,1042.104121477312,10238,-4626,7927,13749.685414583128
1735573500786,56,117,1034,1042.104121477312,10181,-4508,6085,12688.658321509016
1735573500816,56,117,1034,1042.104121477312,10102,-4405,4253,11812.808218201124
1735573500846,-27,82,974,977.8184903140256,10005,-4312,2433,11163.012944541451
1735573500876,-27,82,974,977.8184903140256,9977,-4203,539,10839.569133503415
1735573500906,-27,82,974,977.8184903140256,9923,-4103,-1345,10821.717192756425
1735573500936,-27,82,974,977.8184903140256,9851,-4017,-3225,11116.61436769307
1735573500966,120,109,1028,1040.704088586184,9699,-3979,-4962,11598.469123121378
1735573500996,120,109,1028,1040.704088586184,9531,-3987,-6648,12285.439918863305
1735573501026,120,109,1028,1040.704088586184,9395,-4028,-8338,13191.400721682288
1735573501057,10,109,906,912.5880779409733,9293,-4083,-10036,14274.17367135485
1735573501086,10,109,906,912.5880779409733,9258,-4140,-11802,15560.763734470105
1735573501116,10,109,906,912.5880779409733,9245,-4202,-13573,16951.494270417577
1735573501146,-28,115,862,870.0879265913302,9254,-4266,-15364,18436.045346006285
1735573501176,-28,115,862,870.0879265913302,9312,-4322,-17236,20061.72285722241
1735573501205,-28,115,862,870.0879265913302,9375,-4362,16886,19800.370324819683
1735573501236,-28,115,862,870.0879265913302,9438,-4389,15007,18263.32976212169
1735573501266,-15,52,1023,1024.430573538295,9539,-4419,13186,16863.8867999047
1735573501296,-15,52,1023,1024.430573538295,9641,-4425,11370,15550.125594348105
1735573501326,-15,52,1023,1024.430573538295,9726,-4411,9556,14330.705949114998
1735573501356,84,87,889,897.1878287181564,9706,-4373,7823,13210.938422383173
1735573501386,84,87,889,897.1878287181564,9594,-4355,6187,12218.421747508964
1735573501416,84,87,889,897.1878287181564,9498,-4357,4549,11396.879134219156
1735573501445,87,95,920,928.9747036383715,9454,-4374,2855,10800.972965432327
1735573501476,87,95,920,928.9747036383715,9475,-4387,1053,10494.293830458531
1735573501506,87,95,920,928.9747036383715,9496,-4394,-749,10490.10262104237
1735573501534,87,95,920,928.9747036383715,9515,-4398,-2553,10788.671744010011
1735573501566,46,76,1049,1052.7549572431374,9591,-4380,-4430,11436.633289565596
1735573501596,46,76,1049,1052.7549572431374,9661,-4341,-6317,12332.221657106233
1735573501626,46,76,1049,1052.7549572431374,9705,-4290,-8198,13408.889924225645
1735573501656,16,90,1055,1058.9527845942896,9720,-4239,-10052,14611.304698759794
1735573501686,16,90,1055,1058.9527845942896,9721,-4190,-11907,15932.061699604355
1735573501716,16,90,1055,1058.9527845942896,9708,-4141,-13758,17340.00314302163
1735573501746,83,94,990,997.9103166116682,9652,-4100,-15574,18775.531417246224
1735573501776,83,94,990,997.9103166116682,9490,-4096,-17254,20113.125863475325
1735573501806,83,94,990,997.9103166116682,9357,-4125,17062,19891.72988957974
1735573501836,83,94,990,997.9103166116682,9255,-4178,15375,18425.56197243384
1735573501866,166,121,925,947.534695934666,9078,-4260,13848,17097.508239506715
1735573501896,166,121,925,947.534695934666,8920,-4375,12350,15850.221607283604
1735573501927,166,121,925,947.534695934666,8811,-4514,10849,14687.09358586647
1735573501956,38,115,906,914.059626063858,8827,-4662,9246,13606.567862616936
1735573501986,38,115,906,914.059626063858,8970,-4787,7501,12634.922635299356
1735573502016,38,115,906,914.059626063858,9123,-4881,5741,11832.682324815452
1735573502046,48,104,904,911.22774321242,9299,-4946,3946,11247.45451202182
1735573502076,48,104,904,911.22774321242,9504,-4976,2108,10932.98934418213
1735573502106,48,104,904,911.22774321242,9679,-4968,271,10882.899705501288
1735573502136,48,104,904,911.22774321242,9818,-4928,-1557,11095.159169655926
1735573502166,87,101,972,981.0983640797696,9917,-4867,-3345,11542.252942991676
1735573502196,87,101,972,981.0983640797696,9969,-4794,-5106,12183.37527124565
1735573502227,87,101,972,981.0983640797696,9991,-4713,-6855,13000.902853263691
1735573502256,20,62,1067,1068.9869035680465,9990,-4634,-8588,13965.23540796932
1735573502286,20,62,1067,1068.9869035680465,10011,-4548,-10349,15099.875032595468
1735573502317,20,62,1067,1068.9869035680465,10004,-4459,-12101,16321.669583715999
1735573502346,74,74,994,999.4938719171819,9944,-4372,-13829,17585.18583922274
1735573502376,74,74,994,999.4938719171819,9771,-4316,-15461,18792.094561277623
1735573502406,74,74,994,999.4938719171819,9616,-4293,-17096,20079.10657873004
1735573502437,74,74,994,999.4938719171819,9485,-4299,17266,20163.367327904336
1735573502466,74,51,938,942.2956011783139,9441,-4328,15567,18713.512604532585
1735573502496,74,51,938,942.2956011783139,9417,-4364,13864,17318.62815005854
1735573502526,74,51,938,942.2956011783139,9407,-4403,12159,15991.226938543521
1735573502556,61,69,921,925.5933232257026,9480,-4439,10324,14702.384058376383
1735573502586,61,69,921,925.5933232257026,9580,-4453,8415,13506.214643637202
1735573502616,61,69,921,925.5933232257026,9664,-4446,6509,12471.042177781294
1735573502646,9,76,961,964.0425301821492,9730,-4417,4613,11638.83834409603
1735573502676,9,76,961,964.0425301821492,9807,-4357,2679,11060.639176828796
1735573502706,9,76,961,964.0425301821492,9849,-4282,755,10766.074029097143
1735573502736,9,76,961,964.0425301821492,9860,-4200,-1158,10779.636543037988
1735573502766,103,103,985,995.7123078480049,9680,-4156,-2832,10908.481104168444
1735573502797,103,103,985,995.7123078480049,9496,-4156,-4474,11289.952524258018
1735573502855,103,103,985,995.7123078480049,9346,-4192,-6121,11932.611658811327
1735573502856,94,153,893,910.8754031150473,9226,-4263,-7767,12791.346058957204
1735573502886,94,153,893,910.8754031150473,9126,-4364,-9423,13824.662780697401
1735573502916,94,153,893,910.8754031150473,9067,-4479,-11086,15005.7097799471
1735573502946,82,76,962,968.4750900255515,9069,-4605,-12784,16336.567632155782
1735573502976,82,76,962,968.4750900255515,9222,-4716,-14560,17868.395003469115
1735573503006,82,76,962,968.4750900255515,9379,-4794,-16349,19448.33869511738
1735573503036,82,76,962,968.4750900255515,9531,-4841,17854,20809.62657041207
1735573503066,3,111,977,983.2898860458191,9696,-4850,16002,19328.707147659927
1735573503096,3,111,977,983.2898860458191,9843,-4822,14122,17876.44307461638
1735573503129,3,111,977,983.2898860458191,9953,-4766,12253,16489.78392823872
1735573503156,-41,112,954,961.4265442559821,10054,-4653,10341,15154.854205831212
1735573503186,-41,112,954,961.4265442559821,10109,-4517,8433,13917.997664894185
1735573503216,-41,112,954,961.4265442559821,10112,-4373,6544,12814.039527018793
1735573503246,-13,119,925,932.7137824649103,10085,-4233,4651,11885.172064383418
1735573503275,-13,119,925,932.7137824649103,10026,-4112,2761,11182.680403194934
1735573503306,-13,119,925,932.7137824649103,9944,-4006,878,10756.489018262419
1735573503336,-33,83,1158,1161.439623915079,9838,-3927,-977,10637.76771696017
1735573503366,-33,83,1158,1161.439623915079,9752,-3880,-2808,10864.656828450681
1735573503396,-33,83,1158,1161.439623915079,9671,-3853,-4640,11397.51946697175
1735573503426,-33,83,1158,1161.439623915079,9598,-3845,-6472,12198.049557203807
1735573503455,27,60,945,947.2877070879787,9398,-3868,-8174,13042.16638446236
1735573503485,27,60,945,947.2877070879787,9234,-3934,-9858,14068.520746688331
