Timestamp,Acc_X,Acc_Y,Acc_Z,Acc_Betrag,Ori_X,Ori_Y,Ori_Z,Ori_Betrag
1735578691640,153,-100,971,988.0536422684752,9830,-4110,-3456,11201.113158967728
1735578691640,153,-100,971,988.0536422684752,9824,-4112,-5148,11828.83865812701
1735578691648,153,-111,970,988.2459208112118,9823,-4115,-6841,12657.955403618706
1735578691678,153,-111,970,988.2459208112118,9828,-4116,-8535,13652.005896570658
1735578691708,153,-111,970,988.2459208112118,9833,-4117,-10228,14773.271878632708
1735578691738,141,-102,972,987.4558217966007,9837,-4117,-11922,15995.322503782161
1735578691769,141,-102,972,987.4558217966007,9841,-4114,-13629,17306.643753194898
1735578691798,141,-102,972,987.4558217966007,9843,-4110,-15335,18679.90829741945
1735578691828,141,-102,972,987.4558217966007,9843,-4107,-17042,20104.27471957146
1735578691859,152,-107,971,988.6323887067427,9842,-4104,17260,20288.30648427808
1735578691889,152,-107,971,988.6323887067427,9839,-4103,15567,18867.22075452556
1735578691918,152,-107,971,988.6323887067427,9836,-4102,13875,17495.39725184884
1735578691948,154,-102,966,983.501906454685,9832,-4102,12182,16183.193504373603
1735578691978,154,-102,966,983.501906454685,9825,-4103,10490,14946.749947731112
1735578692008,154,-102,966,983.501906454685,9820,-4105,8797,13808.353775885089
1735578692039,150,-100,979,995.46019508567,9815,-4109,7105,12794.496121379692
1735578692069,150,-100,979,995.46019508567,9814,-4113,5410,11937.313977608195
1735578692098,150,-100,979,995.46019508567,9813,-4118,3714,11271.498968637667
1735578692128,150,-100,979,995.46019508567,9814,-4123,2017,10834.298039097872
1735578692158,145,-107,973,989.5468659947339,9822,-4126,316,10658.115030341904
1735578692189,145,-107,973,989.5468659947339,9833,-4127,-1385,10753.522353164102
1735578692218,145,-107,973,989.5468659947339,9841,-4125,-3088,11108.404475891215
1735578692248,140,-100,974,989.0783588775968,9848,-4122,-4792,11702.019142011348
1735578692278,140,-100,974,989.0783588775968,9850,-4117,-6500,12498.887510494684
1735578692308,140,-100,974,989.0783588775968,9851,-4111,-8207,13464.671217671823
1735578692339,147,-99,971,987.0415391461496,9850,-4106,-9914,14566.026637350353
1735578692369,147,-99,971,987.0415391461496,9842,-4102,-11612,15764.831492914855
1735578692399,147,-99,971,987.0415391461496,9835,-4100,-13310,17049.730936293392
1735578692429,147,-99,971,987.0415391461496,9828,-4099,-15009,18402.757021707373
1735578692459,150,-104,967,984.0757084696279,9824,-4100,-16705,19808.533539866094
1735578692489,150,-104,967,984.0757084696279,9822,-4102,17598,20566.664581307297
1735578692518,150,-104,967,984.0757084696279,9820,-4104,15902,19135.015547419865
1735578692549,158,-100,973,990.8042188040986,9817,-4107,14209,17752.08773637625
1735578692579,158,-100,973,990.8042188040986,9810,-4113,12521,16429.495123101013
1735578692609,158,-100,973,990.8042188040986,9806,-4119,10833,15181.49156044952
1735578692639,150,-104,974,990.955094845372,9803,-4127,9144,14026.534639746198
1735578692669,150,-104,974,990.955094845372,9812,-4132,7447,12992.558524016738
1735578692699,150,-104,974,990.955094845372,9820,-4136,5749,12107.431478228567
1735578692729,150,-104,974,990.955094845372,9828,-4138,4052,11407.512086340299
1735578692759,141,-104,964,979.7923249342178,9838,-4137,2348,10927.676651511976
1735578692789,141,-104,964,979.7923249342178,9849,-4133,642,10700.3109300618
1735578692818,141,-104,964,979.7923249342178,9856,-4127,-1064,10738.01476065292
1735578692848,143,-100,975,990.4917970382188,9860,-4120,-2770,11039.334219055061
1735578692878,143,-100,975,990.4917970382188,9858,-4113,-4475,11581.12939224841
1735578692909,143,-100,975,990.4917970382188,9855,-4106,-6180,12335.82834673051
1735578692939,144,-99,974,989.5519187996151,9851,-4100,-7884,13266.863118310976
1735578692969,144,-99,974,989.5519187996151,9843,-4096,-9586,14337.128757181474
1735578693000,144,-99,974,989.5519187996151,9836,-4093,-11288,15521.549181702192
1735578693029,144,-99,974,989.5519187996151,9830,-4092,-12990,16796.233625429242
1735578693059,149,-109,973,990.3590258083177,9827,-4092,-14687,18138.973565226894
1735578693089,149,-109,973,990.3590258083177,9826,-4093,-16383,19537.28778515585
1735578693119,149,-109,973,990.3590258083177,9825,-4095,17921,20843.749446776605
1735578693148,139,-103,974,989.2451667812181,9826,-4095,16221,19402.065405518042
1735578693179,139,-103,974,989.2451667812181,9828,-4095,14514,18000.411245302148
1735578693209,139,-103,974,989.2451667812181,9829,-4095,12807,16655.254876464664
1735578693239,149,-102,973,989.6130556939919,9831,-4094,11100,15382.43794071668
1735578693269,149,-102,973,989.6130556939919,9825,-4095,9404,14203.339959319428
1735578693299,149,-102,973,989.6130556939919,9820,-4097,7708,13138.914452876235
1735578693327,149,-102,973,989.6130556939919,9816,-4100,6012,12219.165274273035
1735578693359,145,-108,969,985.7230848468549,9820,-4102,4312,11482.68905788187
1735578693389,145,-108,969,985.7230848468549,9826,-4103,2611,10963.676664331177
1735578693419,145,-108,969,985.7230848468549,9832,-4102,910,10692.1806943205
1735578693449,156,-102,974,991.6733333109245,9831,-4101,-786,10681.037309175546
1735578693478,156,-102,974,991.6733333109245,9821,-4103,-2474,10927.365922307168
1735578693508,156,-102,974,991.6733333109245,9814,-4107,-4163,11424.211745236518
1735578693539,146,-103,974,990.2529979757699,9810,-4112,-5852,12140.450897722045
1735578693569,146,-103,974,990.2529979757699,9814,-4116,-7553,13050.052145489688
1735578693629,146,-103,974,990.2529979757699,9819,-4118,-9253,14106.335243428748
1735578693630,146,-103,974,990.2529979757699,9823,-4120,-10954,15279.261925891578
1735578693658,147,-95,966,981.7280682551559,9823,-4123,-12654,16541.286951141377
1735578693688,147,-95,966,981.7280682551559,9821,-4126,-14355,17875.736124702667
1735578693719,147,-95,966,981.7280682551559,9820,-4129,-16055,19267.69488029121
1735578693749,151,-104,970,987.1762760520535,9821,-4132,-17755,20706.65327859623
1735578693778,151,-104,970,987.1762760520535,9826,-4133,16547,19683.37303411181
1735578693808,151,-104,970,987.1762760520535,9830,-4134,14850,18282.26889639248
1735578693839,153,-106,971,988.6789165345846,9834,-4134,13153,16935.138647203334
1735578693869,153,-106,971,988.6789165345846,9837,-4133,11459,15657.48827238903
1735578693898,153,-106,971,988.6789165345846,9840,-4131,9765,14465.337396687297
1735578693929,153,-106,971,988.6789165345846,9842,-4129,8072,13381.733407896005
1735578693958,150,-104,971,988.0065789254644,9844,-4127,6376,12433.416304459526
1735578693988,150,-104,971,988.0065789254644,9845,-4125,4679,11654.728267960605
1735578694019,150,-104,971,988.0065789254644,9845,-4123,2982,11082.214489893255
1735578694048,150,-102,971,987.7980562847854,9844,-4120,1285,10748.486451589359
1735578694079,150,-102,971,987.7980562847854,9842,-4118,-410,10676.656218123724
1735578694108,150,-102,971,987.7980562847854,9840,-4116,-2106,10872.087747990263
1735578694139,146,-101,968,984.1448064182425,9838,-4114,-3803,11321.397837723043
1735578694169,146,-101,968,984.1448064182425,9838,-4112,-5504,11999.533490932054
1735578694198,146,-101,968,984.1448064182425,9836,-4109,-7204,12865.783808225598
1735578694228,146,-104,977,993.3081092994258,9835,-4107,-8905,13888.617605795042
1735578694258,146,-104,977,993.3081092994258,9835,-4106,-10606,15035.747304341077
1735578694289,146,-104,977,993.3081092994258,9836,-4105,-12307,16280.668598064392
1735578694319,146,-104,977,993.3081092994258,9836,-4104,-14007,17600.731831375648
1735578694348,141,-100,972,987.2512344889724,9835,-4102,-15710,18983.090607169317
1735578694378,141,-100,972,987.2512344889724,9834,-4099,-17415,20415.474082176
1735578694408,141,-100,972,987.2512344889724,9832,-4096,16880,19959.454902376467
1735578694439,147,-99,972,988.0253033197075,9830,-4095,15175,18538.56925439501
1735578694469,147,-99,972,988.0253033197075,9823,-4096,13477,17172.596600397974
1735578694498,147,-99,972,988.0253033197075,9818,-4098,11778,15871.610252271192
1735578694528,142,-103,965,980.8149672593705,9814,-4101,10080,14653.9822915138
1735578694558,142,-103,965,980.8149672593705,9818,-4103,8374,13540.738864626257
1735578694589,142,-103,965,980.8149672593705,9822,-4104,6669,12561.451389071248
1735578694618,142,-103,965,980.8149672593705,9825,-4104,4963,11747.544849882464
1735578694648,145,-101,979,994.8200842363407,9826,-4105,3261,11137.119106842667
1735578694678,145,-101,979,994.8200842363407,9825,-4105,1559,10761.604480745425
1735578694708,145,-101,979,994.8200842363407,9825,-4106,-141,10649.401016019634
1735578694739,142,-104,979,994.6964361050059,9824,-4107,-1842,10806.081112040572
1735578694769,142,-104,979,994.6964361050059,9829,-4107,-3547,11227.550890554894
1735578694799,142,-104,979,994.6964361050059,9832,-4105,-5252,11878.667980880684
1735578694829,159,-101,969,987.1387946991041,9835,-4104,-6956,12726.192557084778
1735578694858,159,-101,969,987.1387946991041,9823,-4107,-8642,13712.875045007884
1735578694889,159,-101,969,987.1387946991041,9814,-4112,-10328,14828.712823438183
1735578694918,159,-101,969,987.1387946991041,9808,-4119,-12015,16047.530962736915
1735578694949,145,-105,974,990.3161111483545,9814,-4124,-13713,17359.96373844139
1735578694978,145,-105,974,990.3161111483545,9824,-4126,-15416,18740.008217714312
1735578695009,145,-105,974,990.3161111483545,9833,-4126,-17119,20168.587605481946
1735578695039,146,-100,979,994.865317517904,9839,-4124,17178,20221.20127489957
1735578695069,146,-100,979,994.865317517904,9839,-4123,15478,18798.23220411962
1735578695098,146,-100,979,994.865317517904,9839,-4121,13778,17424.748090001187
1735578695128,149,-107,976,993.0891198678999,9838,-4119,12078,16113.053372964418
1735578695158,149,-107,976,993.0891198678999,9841,-4117,10381,14884.896069506161
1735578695189,149,-107,976,993.0891198678999,9843,-4115,8684,13756.079746788328
1735578695218,149,-107,976,993.0891198678999,9844,-4112,6988,12753.235824683867
1735578695249,152,-100,964,981.0198774744578,9839,-4110,5293,11904.363485713968
1735578695279,152,-100,964,981.0198774744578,9832,-4109,3598,11247.120031368031
1735578695309,152,-100,964,981.0198774744578,9826,-4111,1904,10820.157716040927
1735578695339,145,-103,968,984.2042470950834,9823,-4112,208,10650.968829172301
1735578695369,145,-103,968,984.2042470950834,9825,-4114,-1491,10755.403386205466
1735578695398,145,-103,968,984.2042470950834,9827,-4114,-3192,11121.321369333771
1735578695428,140,-111,977,993.2018928697227,9829,-4115,-4893,11725.353512794401
1735578695458,140,-111,977,993.2018928697227,9841,-4113,-6599,12542.282527514679
1735578695489,140,-111,977,993.2018928697227,9850,-4108,-8305,13522.987428819122
1735578695518,140,-111,977,993.2018928697227,9856,-4102,-10010,14634.453867500488
1735578695548,144,-107,970,986.4507083478627,9857,-4096,-11713,15847.145926001944
1735578695578,144,-107,970,986.4507083478627,9854,-4089,-13415,17140.112660073155
1735578695608,144,-107,970,986.4507083478627,9850,-4083,-15116,18498.29302935814
1735578695639,146,-103,964,980.4187880696697,9844,-4078,-16816,19907.59342562531
1735578695669,146,-103,964,980.4187880696697,9834,-4075,17485,20470.42759690183
1735578695699,146,-103,964,980.4187880696697,9825,-4075,15788,19036.73275538636
1735578695729,155,-100,972,989.3477649441576,9817,-4076,14090,17649.797874196745
1735578695758,155,-100,972,989.3477649441576,9802,-4082,12403,16327.1656143986
1735578695789,155,-100,972,989.3477649441576,9791,-4091,10714,15079.448199453453
1735578695819,155,-100,972,989.3477649441576,9785,-4101,9025,13928.928566117353
1735578695848,148,-101,971,987.3935385650445,9788,-4111,7329,12900.368444350726
1735578695879,148,-101,971,987.3935385650445,9794,-4120,5630,12024.713551681803
1735578695909,148,-101,971,987.3935385650445,9801,-4127,3930,11337.39961366803
1735578695939,153,-105,971,988.5722027247175,9809,-4132,2232,10875.280640057064
1735578695969,153,-105,971,988.5722027247175,9817,-4137,537,10666.612723821934
1735578695998,153,-105,971,988.5722027247175,9825,-4139,-1157,10723.83303674577
1735578696028,144,-107,972,988.4174219427741,9832,-4140,-2851,11042.464625254635
1735578696059,144,-107,972,988.4174219427741,9846,-4139,-4557,11612.11806691613
1735578696089,144,-107,972,988.4174219427741,9857,-4134,-6262,12388.020382611581
1735578696119,144,-107,972,988.4174219427741,9865,-4128,-7966,13334.757778077561
1735578696148,150,-107,974,991.2744322335768,9865,-4119,-9665,14411.68314250629
1735578696178,150,-107,974,991.2744322335768,9862,-4111,-11362,15596.615305892494
1735578696209,150,-107,974,991.2744322335768,9858,-4104,-13058,16868.145837643213
1735578696239,138,-105,974,989.3154198737631,9855,-4098,-14758,18212.995168285746
1735578696269,138,-105,974,989.3154198737631,9856,-4090,-16468,19623.04410635618
1735578696299,138,-105,974,989.3154198737631,9855,-4083,17822,20770.546405908535
1735578696329,145,-102,972,988.0349184112878,9852,-4076,16114,19321.922161110164
1735578696359,145,-102,972,988.0349184112878,9840,-4072,14416,17922.830133659136
1735578696389,145,-102,972,988.0349184112878,9829,-4071,12718,16581.007387972542
1735578696419,145,-102,972,988.0349184112878,9820,-4072,11020,15311.890281738568
1735578696449,142,-106,969,985.0690331139234,9817,-4073,9318,14134.636252836504
1735578696478,142,-106,969,985.0690331139234,9816,-4074,7615,13074.385530494348
1735578696508,142,-106,969,985.0690331139234,9816,-4074,5911,12161.05476510981
1735578696538,149,-103,972,988.7335333647787,9813,-4076,4210,11429.472647502158
1735578696569,149,-103,972,988.7335333647787,9806,-4081,2515,10915.009024274785
1735578696600,149,-103,972,988.7335333647787,9801,-4086,820,10650.2299036218
1735578696629,147,-100,965,981.2410509146058,9798,-4093,-875,10654.533213613819
1735578696659,147,-100,965,981.2410509146058,9798,-4099,-2574,10928.315560963638
1735578696688,147,-100,965,981.2410509146058,9798,-4105,-4273,11450.34313896313
1735578696718,147,-100,965,981.2410509146058,9801,-4111,-5972,12191.173282338334
1735578696748,147,-102,979,995.2155545408241,9806,-4116,-7673,13113.886571112318
1735578696778,147,-102,979,995.2155545408241,9812,-4120,-9374,14181.735436821546
1735578696808,147,-102,979,995.2155545408241,9818,-4123,-11075,15363.849712881209
1735578696839,146,-103,972,988.2858898112428,9824,-4125,-12776,16635.888223957263
1735578696869,146,-103,972,988.2858898112428,9829,-4126,-14478,17979.032259829783
1735578696899,146,-103,972,988.2858898112428,9834,-4125,-16180,19378.224402663935
1735578696929,150,-100,975,991.526600752597,9837,-4124,-17881,20820.761417392976
1735578696958,150,-100,975,991.526600752597,9835,-4123,16421,19579.979443298707
1735578696989,150,-100,975,991.526600752597,9833,-4123,14724,18179.196736929825
1735578697018,150,-100,975,991.526600752597,9831,-4123,13027,16833.015742878637
1735578697049,145,-104,973,989.226970922245,9835,-4122,11326,15556.232995169492
1735578697079,145,-104,973,989.226970922245,9840,-4120,9623,14366.702091990353
1735578697109,145,-104,973,989.226970922245,9844,-4117,7920,13288.356745662722
1735578697139,156,-102,966,983.8170561644071,9843,-4115,6222,12350.35052134149
1735578697169,156,-102,966,983.8170561644071,9836,-4114,4532,11584.943504393968
1735578697199,156,-102,966,983.8170561644071,9830,-4116,2842,11029.384388985634
1735578697228,153,-110,978,995.9884537483354,9825,-4118,1152,10715.206624232684
1735578697258,153,-110,978,995.9884537483354,9830,-4119,-540,10671.769347207613
1735578697289,153,-110,978,995.9884537483354,9834,-4120,-2234,10893.700565005447
1735578697319,153,-110,978,995.9884537483354,9837,-4119,-3927,11364.596737236214
1735578697349,150,-104,970,987.0238092366365,9838,-4118,-5622,12056.162407665219
1735578697378,150,-104,970,987.0238092366365,9837,-4116,-7318,12932.948194437338
1735578697408,150,-104,970,987.0238092366365,9837,-4115,-9014,13962.52090419205
1735578697439,149,-107,972,989.1582279898398,9837,-4113,-10711,15113.201480824637
1735578697469,149,-107,972,989.1582279898398,9839,-4112,-12409,16361.471388600721
1735578697498,149,-107,972,989.1582279898398,9840,-4109,-14106,17683.0064468687
1735578697528,144,-103,974,989.9601002060639,9840,-4107,-15803,19063.78393708867
1735578697559,144,-103,974,989.9601002060639,9840,-4103,-17504,20495.12685981719
1735578697589,144,-103,974,989.9601002060639,9838,-4101,16794,19890.773765743754
1735578697619,144,-103,974,989.9601002060639,9836,-4098,15093,18475.36600449366
1735578697648,149,-107,976,993.0891198678999,9834,-4096,13395,17114.636922821355
1735578697679,149,-107,976,993.0891198678999,9832,-4095,11699,15820.993963717956
1735578697709,149,-107,976,993.0891198678999,9830,-4095,10003,14610.199656404426
1735578697738,145,-95,975,990.2903614597085,9826,-4095,8306,13502.182675404743
1735578697769,145,-95,975,990.2903614597085,9817,-4097,6606,12521.906164797754
1735578697799,145,-95,975,990.2903614597085,9811,-4101,4905,11710.377747963556
1735578697827,143,-96,968,983.2034377482618,9807,-4105,3204,11103.77818582486
1735578697859,143,-96,968,983.2034377482618,9809,-4108,1499,10739.606417369307
1735578697889,143,-96,968,983.2034377482618,9811,-4111,-205,10639.458021910703
1735578697919,143,-96,968,983.2034377482618,9814,-4114,-1910,10811.461140844933
1735578697949,147,-102,979,995.2155545408241,9817,-4117,-3611,11241.107552194313
1735578697979,147,-102,979,995.2155545408241,9820,-4120,-5310,11899.701676932913
1735578698009,147,-102,979,995.2155545408241,9823,-4123,-7010,12752.66866189191
1735578698039,147,-100,971,987.142340293435,9826,-4124,-8710,13763.057509143817
1735578698068,147,-100,971,987.142340293435,9828,-4125,-10411,14899.46744014698
1735578698099,147,-100,971,987.142340293435,9830,-4126,-12112,16135.467765143965
1735578698129,157,-104,971,989.0935243949381,9831,-4126,-13813,17449.109031695574
1735578698158,157,-104,971,989.0935243949381,9830,-4129,-15503,18815.43382439002
1735578698189,157,-104,971,989.0935243949381,9829,-4132,-17194,20231.566943763897
1735578698219,144,-111,972,988.8584327394898,9829,-4134,17115,20164.88090716134
1735578698249,144,-111,972,988.8584327394898,9844,-4131,15412,18748.313017442397
1735578698278,144,-111,972,988.8584327394898,9856,-4126,13709,17381.06133123061
1735578698308,144,-111,972,988.8584327394898,9864,-4118,12006,16074.83922159099
1735578698339,153,-106,978,995.5546192951947,9862,-4110,10310,14847.465911730527
1735578698369,153,-106,978,995.5546192951947,9855,-4104,8618,13719.831084966025
1735578698399,153,-106,978,995.5546192951947,9848,-4099,6927,12718.814174285275
1735578698429,147,-107,966,982.9618507348085,9841,-4097,5235,11875.854285060928
1735578698459,147,-107,966,982.9618507348085,9839,-4094,3538,11228.722144571928
1735578698489,147,-107,966,982.9618507348085,9837,-4092,1841,10812.044857472614
1735578698519,148,-105,981,997.642220437768,9835,-4091,143,10652.884820554478
1735578698549,148,-105,981,997.642220437768,9830,-4091,-1552,10759.827368503642
1735578698579,148,-105,981,997.642220437768,9825,-4091,-3248,11127.282237815305
1735578698608,148,-105,981,997.642220437768,9822,-4093,-4945,11733.59953296515
1735578698639,152,-104,969,986.3473019175345,9818,-4095,-6639,12539.476464350495
1735578698669,152,-104,969,986.3473019175345,9814,-4098,-8333,13510.998815779683
1735578698699,152,-104,969,986.3473019175345,9811,-4102,-10026,14615.156550649739
1735578698729,148,-101,976,992.3109391717901,9810,-4107,-11721,15826.730237165224
1735578698759,148,-101,976,992.3109391717901,9811,-4112,-13419,17124.071536874635
1735578698789,148,-101,976,992.3109391717901,9813,-4117,-15117,18486.977768148045
1735578698819,152,-99,974,990.74769744875,9816,-4121,-16815,19901.776855346357
1735578698849,152,-99,974,990.74769744875,9814,-4126,17490,20475.316163615153
1735578698879,152,-99,974,990.74769744875,9814,-4131,15796,19049.76044468801
1735578698909,152,-99,974,990.74769744875,9816,-4136,14101,17671.97082953681
1735578698939,145,-108,964,980.8083400950463,9827,-4137,12400,16353.736514937496
1735578698968,145,-108,964,980.8083400950463,9841,-4135,10696,15111.185327432127
1735578698999,145,-108,964,980.8083400950463,9852,-4131,8993,13964.279931310457
1735578699029,148,-107,974,990.9737635275719,9859,-4125,7291,12937.317612240955
1735578699059,148,-107,974,990.9737635275719,9860,-4119,5592,12060.523413185681
1735578699089,148,-107,974,990.9737635275719,9859,-4112,3894,11369.769610682531
1735578699118,147,-100,972,988.1260041108118,9856,-4106,2197,10900.769743463074
1735578699148,147,-100,972,988.1260041108118,9848,-4102,498,10679.771158596986
1735578699179,147,-100,972,988.1260041108118,9840,-4099,-1199,10726.835600492812
1735578699208,147,-100,972,988.1260041108118,9832,-4099,-2897,11039.14099919011
1735578699239,143,-100,978,993.4450160929894,9829,-4098,-4599,11599.726117456394
1735578699269,143,-100,978,993.4450160929894,9827,-4098,-6304,12373.518052680087
1735578699298,143,-100,978,993.4450160929894,9826,-4098,-8009,13322.460771193886
1735578699328,144,-106,969,985.3593253224938,9826,-4098,-9712,14410.649673071648
1735578699359,144,-106,969,985.3593253224938,9829,-4098,-11413,15609.593652622736
1735578699389,144,-106,969,985.3593253224938,9831,-4097,-13115,16894.886652475652
1735578699419,147,-108,969,986.0192695885817,9832,-4095,-14816,18246.947826965472
1735578699449,147,-108,969,986.0192695885817,9833,-4094,-16514,19650.977609269215
1735578699479,147,-108,969,986.0192695885817,9832,-4093,17787,20731.575965179298
1735578699508,147,-108,969,986.0192695885817,9832,-4092,16089,19294.263629379588
1735578699539,147,-104,971,987.5555680568056,9829,-4092,14391,17901.245375671493
1735578699569,147,-104,971,987.5555680568056,9826,-4092,12693,16565.234347874466
1735578699628,147,-104,971,987.5555680568056,9823,-4093,10995,15301.437938965082
1735578699629,140,-105,972,987.6279663922038,9824,-4094,9294,14129.764612335197
1735578699658,140,-105,972,987.6279663922038,9828,-4094,7588,13073.949823982039
1735578699689,140,-105,972,987.6279663922038,9831,-4093,5882,12165.489468163621
1735578699719,142,-103,971,986.7188049287396,9834,-4091,4176,11440.402658997627
1735578699749,142,-103,971,986.7188049287396,9831,-4089,2473,10930.883358631178
1735578699778,142,-103,971,986.7188049287396,9829,-4088,770,10673.044785814402
1735578699809,142,-103,971,986.7188049287396,9827,-4087,-932,10683.731651440896
1735578699839,147,-106,973,989.7343077816389,9825,-4087,-2633,10962.065635636378
1735578699869,147,-106,973,989.7343077816389,9823,-4088,-4332,11487.789038801156
1735578699899,147,-106,973,989.7343077816389,9822,-4089,-6031,12229.65927571165
1735578699928,144,-104,963,979.2451174246415,9821,-4091,-7730,13150.711843850888
1735578699959,144,-104,963,979.2451174246415,9822,-4092,-9432,14218.958189684643
1735578699989,144,-104,963,979.2451174246415,9823,-4094,-11134,15401.886929853757
1735578700018,142,-112,966,982.7838012503055,9824,-4095,-12836,16674.618346456988
1735578700048,142,-112,966,982.7838012503055,9832,-4093,-14540,18023.109415414423
1735578700079,142,-112,966,982.7838012503055,9838,-4090,-16244,19426.31926022014
1735578700109,142,-112,966,982.7838012503055,9842,-4086,-17948,20873.214031384818
1735578700139,150,-99,969,985.5262553580194,9834,-4083,16353,19514.073229338872
1735578700169,150,-99,969,985.5262553580194,9822,-4083,14658,18110.75749382118
1735578700199,150,-99,969,985.5262553580194,9813,-4086,12963,16763.941481644466
1735578700229,154,-96,975,991.7444227219027,9803,-4091,11269,15486.298815404538
1735578700259,154,-96,975,991.7444227219027,9793,-4099,9578,14298.347247147132
1735578700289,154,-96,975,991.7444227219027,9787,-4108,7886,13223.086969388049
1735578700318,146,-104,972,988.3906110440346,9784,-4119,6193,12290.079983466341
1735578700349,146,-104,972,988.3906110440346,9797,-4128,4490,11540.437296740536
1735578700379,146,-104,972,988.3906110440346,9809,-4134,2787,11003.354306755737
1735578700408,146,-104,972,988.3906110440346,9821,-4137,1083,10711.661822518483
1735578700439,153,-105,979,996.431131589133,9828,-4139,-613,10681.604467494572
1735578700469,153,-105,979,996.431131589133,9834,-4140,-2307,10916.47401865639
1735578700499,153,-105,979,996.431131589133,9839,-4139,-4002,11399.703768080994
1735578700529,144,-103,979,994.8798922483055,9845,-4138,-5700,12105.249646331133
1735578700559,144,-103,979,994.8798922483055,9851,-4134,-7405,12998.699242616547
1735578700589,144,-103,979,994.8798922483055,9856,-4129,-9110,14042.132209888925
1735578700618,147,-96,971,986.7451545358609,9858,-4123,-10813,15201.982173387785
1735578700649,147,-96,971,986.7451545358609,9851,-4119,-12512,16448.662741998207
1735578700679,147,-96,971,986.7451545358609,9844,-4115,-14211,17770.48344868535
1735578700708,147,-96,971,986.7451545358609,9837,-4113,-15910,19152.3220002171
1735578700739,159,-108,971,989.8414014376242,9832,-4113,-17600,20575.34915864127
1735578700769,159,-108,971,989.8414014376242,9828,-4114,16713,19820.1652112186
1735578700798,159,-108,971,989.8414014376242,9826,-4115,15027,18419.94109653991
1735578700829,150,-100,979,995.46019508567,9824,-4117,13338,17069.35584607691
1735578700859,150,-100,979,995.46019508567,9822,-4119,11642,15778.910260217592
1735578700889,150,-100,979,995.46019508567,9821,-4122,9947,14573.459918632912
1735578700919,139,-95,974,988.4442321142858,9821,-4124,8251,13473.619335575724
1735578700949,139,-95,974,988.4442321142858,9825,-4124,6542,12503.4301293685
1735578700978,139,-95,974,988.4442321142858,9828,-4123,4834,11702.831665883261
1735578701009,139,-95,974,988.4442321142858,9831,-4121,3125,11108.412442829083
1735578701039,148,-99,974,990.1419090211261,9829,-4120,1424,10752.274968582231
1735578701069,148,-99,974,990.1419090211261,9827,-4120,-273,10659.214699029193
1735578701099,148,-99,974,990.1419090211261,9825,-4121,-1972,10835.222655764856
1735578701129,145,-104,979,995.1291373485152,9827,-4122,-3672,11271.397295810311
1735578701159,145,-104,979,995.1291373485152,9832,-4122,-5375,11939.419290736045
1735578701189,145,-104,979,995.1291373485152,9837,-4120,-7078,12799.963007759046
1735578701219,154,-98,971,988.0086032014094,9840,-4118,-8780,13815.640556991919
1735578701249,154,-98,971,988.0086032014094,9832,-4118,-10472,14942.855550395981
1735578701278,154,-98,971,988.0086032014094,9826,-4119,-12165,16171.07485605085
1735578701308,154,-98,971,988.0086032014094,9820,-4122,-13857,17476.834181281232
1735578701339,152,-116,963,981.7988592374713,9827,-4124,-15551,18852.34484089446
1735578701369,152,-116,963,981.7988592374713,9839,-4124,-17246,20278.99930963064
1735578701398,152,-116,963,981.7988592374713,9848,-4122,17059,20124.201077309877
1735578701429,148,-103,966,982.6845882581043,9853,-4117,15363,18709.705155346517
1735578701459,148,-103,966,982.6845882581043,9852,-4113,13664,17340.229785098003
1735578701489,148,-103,966,982.6845882581043,9849,-4109,11965,16032.7136505334
1735578701519,143,-107,974,990.2393650022201,9846,-4105,10267,14805.608059110575
1735578701549,143,-107,974,990.2393650022201,9848,-4099,8564,13679.43715947407
1735578701579,143,-107,974,990.2393650022201,9848,-4093,6861,12681.051770259437
1735578701609,143,-107,974,990.2393650022201,9847,-4087,5158,11843.645638062631
1735578701639,146,-110,978,994.9371839468057,9845,-4083,3458,11205.029138739445
1735578701669,146,-110,978,994.9371839468057,9842,-4080,1759,10798.4001129797
1735578701699,146,-110,978,994.9371839468057,9839,-4078,60,10650.803021368858
1735578701729,147,-100,972,988.1260041108118,9833,-4076,-1637,10769.467674866757
1735578701759,147,-100,972,988.1260041108118,9822,-4077,-3334,11144.916733650369
1735578701789,147,-100,972,988.1260041108118,9812,-4080,-5031,11757.240535091558
1735578701819,145,-101,969,984.9807104710223,9806,-4084,-6729,12574.42376413329
1735578701849,145,-101,969,984.9807104710223,9806,-4089,-8430,13562.538737271869
1735578701879,145,-101,969,984.9807104710223,9807,-4093,-10131,14682.20211684882
1735578701909,143,-105,972,988.0576906233765,9808,-4097,-11833,15906.04168232939
1735578701939,143,-105,972,988.0576906233765,9814,-4099,-13537,17215.306154698497
1735578701969,143,-105,972,988.0576906233765,9819,-4100,-15241,18587.921938721393
1735578701999,143,-105,972,988.0576906233765,9824,-4100,-16945,20011.346806249698
1735578702029,152,-99,979,995.6635978080146,9823,-4101,17355,20359.409495366017
1735578702058,152,-99,979,995.6635978080146,9814,-4104,15664,18934.579689023994
1735578702089,152,-99,979,995.6635978080146,9808,-4108,13972,17558.169380661526
1735578702118,149,-109,965,982.5003816793152,9804,-4114,12280,16243.208180651998
1735578702148,149,-109,965,982.5003816793152,9814,-4120,10583,15009.626411073661
1735578702179,149,-109,965,982.5003816793152,9824,-4123,8885,13872.75495350509
1735578702208,143,-103,979,994.7356432741313,9832,-4124,7187,12858.015748940425
1735578702239,143,-103,979,994.7356432741313,9837,-4123,5482,11992.415186275031
1735578702269,143,-103,979,994.7356432741313,9842,-4121,3777,11318.716093267823
1735578702299,143,-103,979,994.7356432741313,9845,-4117,2072,10870.459879876287
1735578702329,151,-100,965,981.8482571151206,9841,-4116,376,10673.71130394672
1735578702359,151,-100,965,981.8482571151206,9836,-4116,-1317,10743.502268813461
1735578702389,151,-100,965,981.8482571151206,9832,-4116,-3011,11075.910842905878
1735578702418,142,-109,977,993.264315275647,9828,-4118,-4705,11648.370401047521
1735578702449,142,-109,977,993.264315275647,9838,-4116,-6410,12442.499748844682
1735578702479,142,-109,977,993.264315275647,9846,-4112,-8114,13404.822117432219
1735578702509,152,-99,966,982.8840216424317,9852,-4107,-9819,14503.175997001485
1735578702539,152,-99,966,982.8840216424317,9840,-4104,-11511,15689.85458823631
1735578702569,152,-99,966,982.8840216424317,9829,-4104,-13204,16964.60058474705
1735578702599,152,-99,966,982.8840216424317,9821,-4107,-14897,18309.563047762775
1735578702629,138,-105,963,978.4876085061068,9825,-4108,-16601,19723.069994298556
1735578702659,138,-105,963,978.4876085061068,9834,-4107,17688,20650.43217465436
1735578702689,138,-105,963,978.4876085061068,9841,-4105,15978,19209.185042577938
1735578702719,151,-109,971,988.6976281957998,9843,-4101,14274,17817.124515476677
1735578702749,151,-109,971,988.6976281957998,9840,-4099,12581,16489.66227671143
1735578702779,151,-109,971,988.6976281957998,9837,-4098,10887,15234.399955364175
1735578702809,149,-100,971,987.4421502042537,9835,-4097,9194,14072.74919836206
1735578702839,149,-100,971,987.4421502042537,9826,-4096,7498,13021.040511418432
1735578702869,149,-100,971,987.4421502042537,9819,-4098,5802,12118.975575517925
1735578702899,149,-100,971,987.4421502042537,9813,-4101,4106,11400.544109822127
1735578702929,150,-100,969,985.6272114750079,9810,-4106,2411,10904.506270345302
1735578702959,150,-100,969,985.6272114750079,9808,-4111,715,10658.724595372563
1735578702991,150,-100,969,985.6272114750079,9808,-4116,-980,10681.700239194133
1735578703019,145,-104,981,997.0967856732866,9811,-4120,-2679,10973.01973022923
1735578703049,145,-104,981,997.0967856732866,9819,-4122,-4382,11515.449144518854
1735578703079,145,-104,981,997.0967856732866,9826,-4123,-6085,12270.966954563932
1735578703109,138,-103,976,991.074669235371,9832,-4122,-7787,13202.13910697808
1735578703139,138,-103,976,991.074669235371,9840,-4119,-9497,14282.323690492385
1735578703169,138,-103,976,991.074669235371,9845,-4115,-11206,15473.580257975205
1735578703199,138,-103,976,991.074669235371,9848,-4110,-12915,16753.281141316766
1735578703229,149,-105,972,988.9438811176294,9848,-4106,-14616,18096.126546860796
1735578703259,149,-105,972,988.9438811176294,9845,-4103,-16312,19489.483779720795
1735578703289,149,-105,972,988.9438811176294,9842,-4100,17990,20912.079380109477
1735578703319,141,-99,968,983.2120829200585,9839,-4098,16291,19467.824891343153
1735578703349,141,-99,968,983.2120829200585,9835,-4096,14586,18062.553446287708
1735578703379,141,-99,968,983.2120829200585,9832,-4095,12881,16713.988452790076
1735578703409,145,-100,963,978.9759956199131,9829,-4095,11175,15435.637045486656
1735578703439,145,-100,963,978.9759956199131,9825,-4095,9473,14249.11853414098
1735578703469,145,-100,963,978.9759956199131,9822,-4096,7772,13177.741991707077
1735578703499,145,-100,963,978.9759956199131,9820,-4097,6070,12250.008530609275
1735578703529,150,-104,979,995.8699714320138,9818,-4100,4372,11502.93475596554
1735578703559,150,-104,979,995.8699714320138,9817,-4104,2677,10971.902022894663
1735578703589,150,-104,979,995.8699714320138,9818,-4108,981,10687.897314252228
1735578703619,146,-102,969,985.2314448899812,9819,-4110,-715,10668.462213458883
1735578703649,146,-102,969,985.2314448899812,9820,-4111,-2416,10916.491057111713
1735578703679,146,-102,969,985.2314448899812,9822,-4113,-4116,11416.21255057911
1735578703709,141,-104,976,991.6012303340492,9824,-4114,-5817,12135.627754673427
1735578703739,141,-104,976,991.6012303340492,9831,-4113,-7523,13044.572012910197
1735578703799,141,-104,976,991.6012303340492,9837,-4112,-9229,14101.402554356073
1735578703800,141,-104,976,991.6012303340492,9842,-4109,-10934,15274.20050280865
1735578703829,145,-111,966,983.1083358409693,9847,-4105,-12637,16538.08341374538
1735578703859,145,-111,966,983.1083358409693,9851,-4100,-14338,17872.617183837403
1735578703889,145,-111,966,983.1083358409693,9853,-4094,-16039,19263.747454739954
1735578703919,153,-98,970,986.8703055619821,9846,-4088,-17736,20693.505164664588
1735578703949,153,-98,970,986.8703055619821,9829,-4088,16572,19696.501440611224
1735578703979,153,-98,970,986.8703055619821,9815,-4090,14881,18289.518473705095
1735578704008,152,-103,973,990.1727122073199,9805,-4095,13190,16937.625276289473
1735578704039,152,-103,973,990.1727122073199,9802,-4101,11498,15655.714899039263
1735578704069,152,-103,973,990.1727122073199,9801,-4106,9805,14458.798774448727
1735578704128,152,-103,973,990.1727122073199,9802,-4112,8112,13371.323494703132
1735578704129,147,-107,969,985.9102393220186,9810,-4118,6413,12422.583990458668
1735578704159,147,-107,969,985.9102393220186,9819,-4120,4713,11644.721121606992
1735578704189,147,-107,969,985.9102393220186,9827,-4122,3013,11074.248597534734
1735578704219,150,-97,964,980.4106282573645,9830,-4122,1314,10739.943202829334
1735578704249,150,-97,964,980.4106282573645,9826,-4123,-382,10662.801179802613
1735578704279,150,-97,964,980.4106282573645,9824,-4125,-2079,10855.82065069242
1735578704309,149,-99,972,988.3248453823267,9822,-4128,-3776,11303.550061816863
1735578704339,149,-99,972,988.3248453823267,9824,-4130,-5474,11980.50716789569
1735578704369,149,-99,972,988.3248453823267,9827,-4132,-7171,12847.824485102527
1735578704399,149,-99,972,988.3248453823267,9829,-4134,-8869,13869.331562840367
1735578704429,144,-102,973,988.8725903775471,9835,-4134,-10571,15018.762332495977
1735578704459,144,-102,973,988.8725903775471,9841,-4132,-12275,16266.355768886897
1735578704489,144,-102,973,988.8725903775471,9846,-4129,-13978,17589.11143292918
1735578704518,145,-98,971,986.6458331133822,9849,-4125,-15681,18971.351744143063
1735578704549,145,-98,971,986.6458331133822,9847,-4121,-17382,20398.03848412881
1735578704579,145,-98,971,986.6458331133822,9845,-4117,16916,20000.619240413533
1735578704609,148,-105,964,980.9306805274265,9841,-4114,15214,18580.52940580542
1735578704640,148,-105,964,980.9306805274265,9841,-4112,13517,17218.104251049244
1735578704670,148,-105,964,980.9306805274265,9841,-4111,11819,15919.621949028815
1735578704699,148,-105,964,980.9306805274265,9840,-4109,10121,14701.84076910099
1735578704729,142,-105,973,988.8973657564267,9842,-4106,8420,13587.516329337013
1735578704759,142,-105,973,988.8973657564267,9843,-4101,6716,12601.885017726514
1735578704789,142,-105,973,988.8973657564267,9844,-4097,5013,11782.186299664421
1735578704818,146,-99,961,977.0557814168033,9840,-4093,3311,11159.7925607961
1735578704849,146,-99,961,977.0557814168033,9831,-4091,1612,10769.558301063233
1735578704879,146,-99,961,977.0557814168033,9823,-4091,-86,10641.19382400302
1735578704909,149,-101,971,987.5439230738043,9816,-4093,-1785,10783.910700668845
1735578704939,149,-101,971,987.5439230738043,9811,-4097,-3481,11187.425575171439
1735578704969,149,-101,971,987.5439230738043,9808,-4101,-5178,11824.836108800831
1735578704999,149,-101,971,987.5439230738043,9807,-4107,-6874,12660.828329931655
1735578705029,149,-106,977,993.9647881087136,9810,-4111,-8571,13660.104758017049
1735578705059,149,-106,977,993.9647881087136,9816,-4115,-10269,14789.842527897314
1735578705089,149,-106,977,993.9647881087136,9821,-4117,-11967,16019.076721209622
1735578705119,144,-97,971,986.4005271693644,9825,-4119,-13667,17328.695132640543
1735578705149,144,-97,971,986.4005271693644,9826,-4120,-15370,18701.9136988705
1735578705179,144,-97,971,986.4005271693644,9828,-4120,-17074,20126.734956271473
1735578705209,135,-104,965,979.931630268153,9828,-4120,17221,20251.58820932324
1735578705239,135,-104,965,979.931630268153,9841,-4117,15508,18822.673402043612
1735578705269,135,-104,965,979.931630268153,9850,-4111,13794,17441.251589263884
1735578705299,135,-104,965,979.931630268153,9856,-4104,12082,16123.22163836992
1735578705329,150,-104,970,987.0238092366365,9852,-4098,10380,14886.23216263941
1735578705359,150,-104,970,987.0238092366365,9844,-4094,8685,13751.159841991512
1735578705389,150,-104,970,987.0238092366365,9836,-4092,6989,12741.172669734917
1735578705419,146,-108,969,985.8706811747675,9832,-4091,5293,11892.029011064513
1735578705449,146,-108,969,985.8706811747675,9832,-4090,3593,11238.593016921646
1735578705479,146,-108,969,985.8706811747675,9832,-4089,1894,10815.515752843226
1735578705509,152,-106,968,985.5780030012845,9832,-4089,195,10650.17229907573
1735578705539,152,-106,968,985.5780030012845,9827,-4090,-1498,10749.04800435834
1735578705569,152,-106,968,985.5780030012845,9823,-4092,-3191,11109.377750351277
1735578705599,152,-106,968,985.5780030012845,9820,-4095,-4885,11707.461296113688
1735578705629,145,-105,966,982.4489808636375,9821,-4097,-6583,12512.926875835246
1735578705659,145,-105,966,982.4489808636375,9823,-4099,-8284,13487.690165480522
1735578705689,145,-105,966,982.4489808636375,9825,-4100,-9985,14595.91895017234
1735578705719,148,-108,971,988.1341002110998,9827,-4101,-11684,15808.351779992752
1735578705749,148,-108,971,988.1341002110998,9829,-4100,-13382,17102.548494303413
1735578705779,148,-108,971,988.1341002110998,9830,-4100,-15079,18461.179296025486
1735578705809,153,-98,972,988.8361846130025,9832,-4099,-16776,19872.196682802834
1735578705839,153,-98,972,988.8361846130025,9820,-4100,17531,20508.007241075375
1735578705869,153,-98,972,988.8361846130025,9811,-4104,15839,19078.06221816042
1735578705899,153,-98,972,988.8361846130025,9805,-4109,14146,17695.514177327543
1735578705929,149,-109,971,988.3941521478159,9809,-4116,12450,16375.604935390937
1735578705959,149,-109,971,988.3941521478159,9818,-4121,10752,15132.1270481053
1735578705989,149,-109,971,988.3941521478159,9826,-4123,9054,13983.001144246538
1735578706019,139,-97,979,993.5647940622695,9832,-4123,7347,12947.80915830937
1735578706049,139,-97,979,993.5647940622695,9836,-4120,5636,12061.749126888686
1735578706078,139,-97,979,993.5647940622695,9839,-4117,3926,11365.25785013257
1735578706109,148,-104,972,988.6880195491397,9840,-4114,2216,10893.17456024643
1735578706139,148,-104,972,988.6880195491397,9840,-4111,518,10676.808746062656
1735578706169,148,-104,972,988.6880195491397,9839,-4108,-1179,10727.144354393671
1735578706199,144,-122,970,988.1902650805664,9838,-4106,-2877,11041.857135464124
1735578706229,144,-122,970,988.1902650805664,9853,-4101,-4578,11612.833159914078
1735578706259,144,-122,970,988.1902650805664,9864,-4094,-6280,12389.420163994762
1735578706289,144,-122,970,988.1902650805664,9871,-4085,-7980,13334.326604669619
1735578706319,145,-104,974,990.2105836638992,9864,-4075,-9679,14407.885410427167
1735578706349,145,-104,974,990.2105836638992,9852,-4068,-11376,15589.223970422645
1735578706379,145,-104,974,990.2105836638992,9841,-4063,-13074,16860.685810488256
1735578706409,152,-105,969,986.4532426830984,9828,-4061,-14770,18199.84079600698
1735578706439,152,-105,969,986.4532426830984,9815,-4063,-16460,19590.145328710554
1735578706469,152,-105,969,986.4532426830984,9805,-4068,17848,20766.264782093094
1735578706528,144,-108,970,986.5596788841515,9798,-4074,16156,19329.113171586534
1735578706529,144,-108,970,986.5596788841515,9801,-4079,14455,17934.46032084601
1735578706559,144,-108,970,986.5596788841515,9805,-4084,12753,16596.869885613974
1735578706589,144,-108,970,986.5596788841515,9809,-4088,11051,15331.432614077525
1735578706619,152,-100,969,985.9335677417622,9806,-4092,9355,14156.910856539289
1735578706649,152,-100,969,985.9335677417622,9801,-4099,7661,13097.798402785103
1735578706679,152,-100,969,985.9335677417622,9798,-4106,5967,12184.626748489261
1735578706709,152,-101,961,978.1748309990397,9798,-4114,4273,11453.57276137014
1735578706739,152,-101,961,978.1748309990397,9800,-4122,2580,10940.16837164767
1735578706768,152,-101,961,978.1748309990397,9803,-4129,886,10673.914277339874
1735578706799,141,-100,974,989.2204001131396,9808,-4136,-807,10674.952412071914
1735578706829,141,-100,974,989.2204001131396,9819,-4139,-2515,10948.484232988601
1735578706859,141,-100,974,989.2204001131396,9830,-4140,-4222,11471.433389075664
1735578706890,141,-100,974,989.2204001131396,9838,-4139,-5929,12209.447407642985
1735578706919,145,-104,966,982.3426082584426,9845,-4136,-7633,13126.050815077626
1735578706958,145,-104,966,982.3426082584426,9851,-4131,-9336,14186.904454460811
1735578706979,145,-104,966,982.3426082584426,9854,-4126,-11038,15361.07535298229
1735578707008,150,-98,974,990.3433747948234,9853,-4121,-12739,16623.668999351496
1735578707039,150,-98,974,990.3433747948234,9845,-4118,-14435,17951.35577052608
1735578707069,150,-98,974,990.3433747948234,9838,-4116,-16131,19337.447116928335
1735578707099,146,-105,972,988.4963328207141,9832,-4116,-17827,20770.450380287857
1735578707129,146,-105,972,988.4963328207141,9836,-4116,16472,19621.802567552248
1735578707159,146,-105,972,988.4963328207141,9839,-4114,14771,18218.489454397695
1735578707189,146,-105,972,988.4963328207141,9842,-4112,13071,16870.81945253401
1735578707219,148,-115,987,1004.6382433493162,9847,-4108,11372,15593.63514386559
1735578707249,148,-115,987,1004.6382433493162,9853,-4103,9675,14405.618452534414
1735578707279,148,-115,987,1004.6382433493162,9856,-4097,7978,13325.713076604943
1735578707309,151,-110,974,991.7545059136359,9855,-4091,6283,12382.786237353854
1735578707339,151,-110,974,991.7545059136359,9849,-4086,4589,11608.493356159532
1735578707369,151,-110,974,991.7545059136359,9843,-4082,2896,11042.38149132695
1735578707399,155,-102,977,994.4636745502572,9837,-4080,1204,10717.39637225385
1735578707429,155,-102,977,994.4636745502572,9822,-4081,-484,10647.088850948883
1735578707459,155,-102,977,994.4636745502572,9810,-4085,-2172,10846.239394370752
1735578707489,155,-102,977,994.4636745502572,9801,-4091,-3861,11300.584188439108
1735578707519,147,-102,974,990.2974300683609,9800,-4098,-5558,11988.53485626997
1735578707549,147,-102,974,990.2974300683609,9803,-4105,-7258,12869.669692731046
1735578707579,147,-102,974,990.2974300683609,9806,-4111,-8958,13903.370850265053
1735578707609,148,-103,975,991.5331562786995,9811,-4116,-10658,15059.553147421075
1735578707639,148,-103,975,991.5331562786995,9815,-4120,-12357,16309.631326305325
1735578707669,148,-103,975,991.5331562786995,9820,-4122,-14057,17635.83094158027
1735578707699,147,-109,961,978.2693903010561,9825,-4124,-15756,19020.76594146513
1735578707729,147,-109,961,978.2693903010561,9834,-4124,-17455,20454.631675979894
1735578707759,147,-109,961,978.2693903010561,9842,-4122,16845,19940.15729627026
1735578707789,147,-109,961,978.2693903010561,9848,-4118,15146,18529.499291670025
1735578707819,149,-107,972,989.1582279898398,9850,-4114,13447,17168.846932744204
1735578707849,149,-107,972,989.1582279898398,9850,-4110,11749,15873.046367978643
1735578707878,149,-107,972,989.1582279898398,9848,-4106,10052,14658.957807429559
1735578707909,147,-96,974,989.6974285103503,9843,-4102,8354,13546.23080417575
1735578707939,147,-96,974,989.6974285103503,9833,-4101,6655,12561.652558481308
1735578707969,147,-96,974,989.6974285103503,9825,-4101,4956,11743.541288725475
1735578707999,150,-106,969,986.2540240729058,9818,-4103,3257,11128.152676882179
1735578708028,150,-106,969,986.2540240729058,9819,-4107,1562,10757.325597005976
1735578708058,150,-106,969,986.2540240729058,9821,-4110,-132,10647.138817541547
1735578708089,150,-106,969,986.2540240729058,9823,-4113,-1828,10805.076677192068
1735578708119,146,-101,974,990.0469685828042,9824,-4114,-3525,11218.805506826473
1735578708149,146,-101,974,990.0469685828042,9825,-4115,-5225,11864.420550536803
1735578708179,146,-101,974,990.0469685828042,9826,-4116,-6924,12705.648665062323
1735578708208,152,-107,969,986.6681306295445,9828,-4117,-8622,13706.865323625238
1735578708239,152,-107,969,986.6681306295445,9831,-4117,-10317,14833.702808132566
1735578708269,152,-107,969,986.6681306295445,9833,-4116,-12011,16059.061803231221
1735578708299,151,-116,963,981.6445385168706,9835,-4116,-13706,17364.42100963922
1735578708329,151,-116,963,981.6445385168706,9844,-4114,-15403,18737.175374105886
1735578708359,151,-116,963,981.6445385168706,9851,-4111,-17099,20157.33918452532
1735578708389,151,-116,963,981.6445385168706,9856,-4106,17204,20247.903298860354
1735578708419,151,-115,971,989.3770767508211,9857,-4101,15509,18828.37568671286
1735578708449,151,-115,971,989.3770767508211,9857,-4095,13814,17457.264104091453
1735578708479,151,-115,971,989.3770767508211,9856,-4090,12120,16148.16509700096
1735578708509,147,-104,966,982.639811935177,9850,-4084,10426,14913.18316121679
1735578708539,147,-104,966,982.639811935177,9841,-4081,8730,13773.62486784071
1735578708569,147,-104,966,982.639811935177,9832,-4079,7034,12758.668465008408
1735578708599,154,-103,975,992.4464721081938,9824,-4079,5338,11901.405841328158
1735578708629,154,-103,975,992.4464721081938,9813,-4083,3648,11237.159872494472
1735578708659,154,-103,975,992.4464721081938,9805,-4088,1957,10801.834010944624
1735578708689,154,-103,975,992.4464721081938,9799,-4095,266,10623.567291639847
1735578708719,151,-109,969,986.7334999887254,9802,-4102,-1427,10721.097751629728
1735578708747,151,-109,969,986.7334999887254,9808,-4108,-3122,11082.391980073617
1735578708779,151,-109,969,986.7334999887254,9814,-4113,-4817,11680.53312139476
1735578708809,153,-107,971,988.7866301685111,9819,-4116,-6512,12480.399072145088
1735578708839,153,-107,971,988.7866301685111,9822,-4119,-8204,13444.086469522575
1735578708868,153,-107,971,988.7866301685111,9825,-4121,-9897,14541.797516125715
1735578708899,150,-98,971,987.393032181208,9829,-4123,-11591,15746.734613881063
1735578708929,150,-98,971,987.393032181208,9826,-4125,-13287,17032.623696894145
1735578708959,150,-98,971,987.393032181208,9824,-4127,-14984,18386.499422130357
1735578708990,150,-98,971,987.393032181208,9823,-4129,-16681,19793.83062976947
1735578709019,150,-111,970,987.7859079780395,9830,-4131,17621,20595.963245257553
1735578709048,150,-111,970,987.7859079780395,9839,-4130,15924,19168.635762620146
1735578709079,150,-111,970,987.7859079780395,9847,-4128,14228,17788.754228444443
1735578709109,156,-104,972,989.9171682519705,9849,-4125,12534,16465.70927716143
1735578709139,156,-104,972,989.9171682519705,9843,-4123,10844,15214.339091791007
1735578709169,156,-104,972,989.9171682519705,9839,-4122,9154,14056.760686587788
1735578709199,146,-106,979,995.4863133162605,9835,-4123,7464,13016.821808721206
1735578709229,146,-106,979,995.4863133162605,9840,-4120,5763,12124.857483698519
1735578709260,146,-106,979,995.4863133162605,9844,-4117,4063,11417.617702480671
1735578709289,146,-106,979,995.4863133162605,9846,-4114,2363,10929.431869955546
1735578709319,142,-108,969,985.2862528219908,9851,-4109,659,10693.940480477717
1735578709349,142,-108,969,985.2862528219908,9855,-4102,-1045,10725.644689248287
1735578709379,142,-108,969,985.2862528219908,9856,-4095,-2749,11021.19603309913
1735578709409,152,-101,965,982.1048823827321,9851,-4089,-4448,11556.246189831714
1735578709439,152,-101,965,982.1048823827321,9837,-4086,-6140,12294.777956514708
1735578709469,152,-101,965,982.1048823827321,9824,-4086,-7832,13211.608380511436
1735578709499,145,-110,972,988.8928152231666,9814,-4089,-9525,14274.457677964512
1735578709529,145,-110,972,988.8928152231666,9820,-4091,-11226,15465.825454853679
1735578709559,145,-110,972,988.8928152231666,9825,-4092,-12927,16744.623555039987
1735578709589,145,-110,972,988.8928152231666,9830,-4091,-14629,18093.446935285716
1735578709619,146,-100,969,985.0263955854178,9826,-4091,-16329,19491.60839951388
1735578709649,146,-100,969,985.0263955854178,9820,-4091,17970,20882.757983561463
1735578709679,146,-100,969,985.0263955854178,9816,-4093,16270,19437.577138110602
1735578709709,143,-108,972,988.3809994126759,9816,-4096,14569,18038.48200376074
1735578709739,143,-108,972,988.3809994126759,9822,-4098,12866,16697.282533394467
1735578709769,143,-108,972,988.3809994126759,9828,-4098,11164,15427.834715215224
1735578709799,145,-104,978,994.1453616046298,9832,-4097,9461,14246.548845246698
1735578709829,145,-104,978,994.1453616046298,9829,-4097,7761,13176.789100535836
1735578709859,145,-104,978,994.1453616046298,9827,-4098,6062,12251.99481717161
1735578709889,147,-107,971,987.8760043649203,9826,-4098,4361,11504.877270097235
1735578709919,147,-107,971,987.8760043649203,9827,-4099,2663,10975.577388001053
1735578709949,147,-107,971,987.8760043649203,9828,-4099,964,10692.084969733452
1735578709979,147,-107,971,987.8760043649203,9829,-4099,-734,10674.727069110479
1735578710009,144,-106,967,983.392597084196,9832,-4098,-2436,10926.844192171864
1735578710039,144,-106,967,983.392597084196,9834,-4097,-4139,11429.098214644933
1735578710069,144,-106,967,983.392597084196,9836,-4095,-5842,12150.921158496585
1735578710099,154,-114,977,995.6108677590859,9836,-4093,-7544,13054.174849449504
1735578710129,154,-114,977,995.6108677590859,9835,-4093,-9235,14098.407676046256
1735578710159,154,-114,977,995.6108677590859,9835,-4092,-10925,15258.679956011922
1735578710189,147,-95,975,990.5851805877171,9834,-4092,-12616,16511.071315938283
1735578710219,147,-95,975,990.5851805877171,9822,-4093,-14313,17834.97412389488
1735578710249,147,-95,975,990.5851805877171,9813,-4096,-16011,19220.413783267
1735578710279,147,-95,975,990.5851805877171,9806,-4101,-17709,20653.922581437164
1735578710309,146,-104,975,991.3410109543537,9808,-4106,16590,19704.928317555485
1735578710339,146,-104,975,991.3410109543537,9813,-4110,14889,18299.43687658175
1735578710369,146,-104,975,991.3410109543537,9819,-4113,13189,16949.31417491575
1735578710399,145,-108,969,985.7230848468549,9825,-4114,11488,15666.198166753797
1735578710429,145,-108,969,985.7230848468549,9832,-4113,9786,14468.959499563194
1735578710459,145,-108,969,985.7230848468549,9839,-4111,8085,13381.833469297098
1735578710489,150,-103,974,990.8506446483244,9843,-4108,6383,12429.923652219268
1735578710519,150,-103,974,990.8506446483244,9839,-4106,4688,11646.566060431718
1735578710549,150,-103,974,990.8506446483244,9835,-4104,2994,11069.511145484248
1735578710578,150,-103,974,990.8506446483244,9831,-4104,1299,10732.137624909587
1735578710609,148,-101,979,995.2617746100772,9827,-4104,-398,10656.976541214679
1735578710639,148,-101,979,995.2617746100772,9823,-4105,-2096,10850.60228743087
1735578710698,148,-101,979,995.2617746100772,9820,-4107,-3794,11300.189600179281
1735578710699,143,-108,968,984.4475608177411,9822,-4108,-5494,11980.458421946967
1735578710729,143,-108,968,984.4475608177411,9830,-4108,-7198,12857.517956433116
1735578710759,143,-108,968,984.4475608177411,9837,-4106,-8901,13887.17415459315
1735578710789,141,-104,974,989.6327601691447,9842,-4102,-10604,15037.825108705048
1735578710819,141,-104,974,989.6327601691447,9843,-4099,-12309,16284.898863671215
1735578710849,141,-104,974,989.6327601691447,9843,-4095,-14014,17608.119433942968
1735578710879,141,-104,974,989.6327601691447,9842,-4091,-15718,18990.965457290473
1735578710909,153,-103,969,986.3969789085934,9835,-4089,-17415,20413.950401624865
1735578710939,153,-103,969,986.3969789085934,9826,-4089,16892,19965.216277315907
1735578710969,153,-103,969,986.3969789085934,9818,-4091,15199,18550.98396312174
1735578710999,143,-108,977,993.2985452521311,9816,-4095,13504,17189.557789541883
1735578711029,143,-108,977,993.2985452521311,9822,-4097,11801,15890.899722797321
1735578711059,143,-108,977,993.2985452521311,9827,-4098,10099,14674.921941870763
1735578711089,150,-106,964,981.3419383680696,9831,-4098,8396,13562.263122355354
1735578711119,150,-106,964,981.3419383680696,9829,-4098,6701,12581.981004595422
1735578711149,150,-106,964,981.3419383680696,9827,-4099,5005,11765.277514789015
1735578711179,150,-106,964,981.3419383680696,9825,-4101,3310,11149.21190039906
1735578711209,147,-100,977,993.0448126847045,9823,-4102,1612,10766.442170002121
1735578711239,147,-100,977,993.0448126847045,9820,-4104,-86,10643.4304620268
1735578711269,147,-100,977,993.0448126847045,9819,-4106,-1785,10791.581070445609
1735578711299,144,-104,963,979.2451174246415,9819,-4109,-3486,11200.394546622007
1735578711329,144,-104,963,979.2451174246415,9823,-4111,-5189,11845.563346671192
1735578711359,144,-104,963,979.2451174246415,9827,-4112,-6891,12687.172813515232
1735578711389,152,-101,980,996.8475309695059,9830,-4112,-8594,13689.203044735657
1735578711419,152,-101,980,996.8475309695059,9826,-4114,-10289,14810.090918019376
1735578711449,152,-101,980,996.8475309695059,9823,-4116,-11984,16032.749015686612
1735578711479,152,-101,980,996.8475309695059,9821,-4120,-13679,17336.13226760802
1735578711509,150,-103,970,986.9189429735352,9821,-4121,-15374,18702.79545950284
1735578711539,150,-103,970,986.9189429735352,9822,-4122,-17070,20120.821752602453
1735578711569,150,-103,970,986.9189429735352,9824,-4123,17234,20261.314394678346
1735578711599,149,-107,969,986.2104237940299,9827,-4124,15537,18840.798125344903
1735578711629,149,-107,969,986.2104237940299,9833,-4124,13839,17470.35162782936
1735578711659,149,-107,969,986.2104237940299,9838,-4123,12142,16162.1018744469
1735578711689,143,-99,971,986.4537495493644,9841,-4120,10445,14930.428861891409
1735578711719,143,-99,971,986.4537495493644,9841,-4118,8740,13790.968240120053
1735578711748,143,-99,971,986.4537495493644,9840,-4115,7037,12778.035608026767
1735578711779,143,-99,971,986.4537495493644,9839,-4112,5333,11922.892014943354
1735578711809,154,-101,968,985.3633847469673,9834,-4111,3637,11262.133279268186
1735578711838,154,-101,968,985.3633847469673,9827,-4113,1946,10829.294252166204
1735578711869,154,-101,968,985.3633847469673,9822,-4115,255,10652.226715574543
1735578711899,149,-100,967,983.5090238528572,9820,-4118,-1438,10745.146253076316
1735578711929,149,-100,967,983.5090238528572,9821,-4121,-3136,11102.665355670231
1735578711959,149,-100,967,983.5090238528572,9823,-4123,-4834,11698.63299706423
1735578711989,151,-104,966,983.2461543275925,9824,-4125,-6533,12498.26747993497
1735578712019,151,-104,966,983.2461543275925,9827,-4126,-8228,13464.538202255582
1735578712049,151,-104,966,983.2461543275925,9829,-4127,-9924,14564.585335669533
1735578712079,151,-104,966,983.2461543275925,9831,-4127,-11619,15769.649679051212
1735578712109,152,-102,966,983.1907241222326,9832,-4127,-13315,17058.4166322669
1735578712139,152,-102,966,983.1907241222326,9832,-4128,-15009,18411.37390310674
1735578712169,152,-102,966,983.1907241222326,9832,-4128,-16704,19817.472694569304
1735578712199,146,-101,975,991.0307765150384,9832,-4129,17599,20577.698267784956
1735578712229,146,-101,975,991.0307765150384,9834,-4128,15900,19145.70291214193
1735578712259,146,-101,975,991.0307765150384,9835,-4127,14200,17759.48631013859
1735578712289,143,-104,969,985.0005076140824,9836,-4127,12500,16432.559904044167
1735578712319,143,-104,969,985.0005076140824,9843,-4124,10795,15179.72496457034
1735578712349,143,-104,969,985.0005076140824,9849,-4120,9090,14021.601228105155
1735578712379,143,-104,969,985.0005076140824,9852,-4116,7385,12982.356681280946
1735578712409,151,-103,965,982.1583375403377,9849,-4111,5687,12093.18365857395
1735578712439,151,-103,965,982.1583375403377,9843,-4108,3993,11388.782287847986
1735578712469,151,-103,965,982.1583375403377,9837,-4107,2299,10905.018065092785
1735578712499,144,-103,977,992.9118792722746,9834,-4105,602,10673.377394245928
1735578712529,144,-103,977,992.9118792722746,9834,-4103,-1100,10712.243695883697
1735578712559,144,-103,977,992.9118792722746,9833,-4101,-2802,11016.228665019622
1735578712589,141,-106,977,992.7970588191728,9832,-4099,-4504,11565.294678476635
1735578712619,141,-106,977,992.7970588191728,9836,-4097,-6209,12332.233617637967
1735578712649,141,-106,977,992.7970588191728,9838,-4094,-7915,13273.820286564076
1735578712679,141,-106,977,992.7970588191728,9839,-4090,-9620,14355.431759442137
1735578712709,153,-106,974,991.6254333164312,9833,-4089,-11316,15538.972488552774
1735578712739,153,-106,974,991.6254333164312,9825,-4090,-13007,16805.97435437767
1735578712769,153,-106,974,991.6254333164312,9819,-4093,-14699,18144.586272494613
1735578712799,145,-103,978,994.0412466291326,9816,-4096,-16393,19541.277363570684
1735578712829,145,-103,978,994.0412466291326,9816,-4098,17906,20827.200868095548
1735578712859,145,-103,978,994.0412466291326,9817,-4101,16205,19385.399531606254
1735578712889,155,-105,968,985.9381319332365,9818,-4102,14505,17989.289952635707
1735578712919,155,-105,968,985.9381319332365,9814,-4106,12815,16655.271147597687
1735578712949,155,-105,968,985.9381319332365,9812,-4110,11126,15393.353111002163
1735578712979,155,-105,968,985.9381319332365,9811,-4115,9436,14220.655470125137
1735578713009,150,-107,968,985.3796222776276,9815,-4120,7741,13161.751631146974
1735578713040,150,-107,968,985.3796222776276,9821,-4123,6045,12247.170897803297
1735578713070,150,-107,968,985.3796222776276,9827,-4125,4349,11510.836416177584
1735578713100,146,-109,967,984.0152437843633,9833,-4125,2651,10987.780258086708
1735578713129,146,-109,967,984.0152437843633,9842,-4124,949,10713.213383481167
1735578713160,146,-109,967,984.0152437843633,9849,-4120,-751,10702.392349376843
1735578713189,151,-99,977,993.5446643206334,9854,-4115,-2451,10956.365364481051
1735578713219,151,-99,977,993.5446643206334,9846,-4111,-4146,11446.980082100257
1735578713249,151,-99,977,993.5446643206334,9838,-4110,-5840,12156.641970544333
1735578713279,151,-99,977,993.5446643206334,9832,-4109,-7534,13050.41229233774
1735578713309,140,-100,977,992.0327615557866,9831,-4109,-9236,14100.926848969893
1735578713339,140,-100,977,992.0327615557866,9832,-4107,-10941,15272.234741517039
1735578713369,140,-100,977,992.0327615557866,9833,-4106,-12647,16537.645963074672
1735578713399,142,-104,975,990.7598094392,9834,-4104,-14352,17875.409813484
1735578713429,142,-104,975,990.7598094392,9836,-4103,-16057,19271.968088392012
1735578713459,142,-104,975,990.7598094392,9837,-4101,-17761,20713.229854370853
1735578713489,154,-107,969,986.9782165782586,9838,-4098,16534,19671.121066172105
1735578713519,154,-107,969,986.9782165782586,9832,-4097,14844,18270.13872415861
1735578713549,154,-107,969,986.9782165782586,9827,-4098,13155,16923.875383611165
1735578713579,147,-101,971,987.2441440697432,9823,-4099,11465,15644.147627787204
1735578713609,147,-101,971,987.2441440697432,9820,-4100,9767,14444.261455678514
1735578713639,147,-101,971,987.2441440697432,9817,-4102,8068,13352.622102044228
1735578713669,147,-101,971,987.2441440697432,9816,-4105,6370,12400.878235028356
1735578713700,150,-107,974,991.2744322335768,9817,-4108,4673,11622.653827762402
1735578713729,150,-107,974,991.2744322335768,9820,-4112,2978,11054.837312235763
1735578713759,150,-107,974,991.2744322335768,9823,-4114,1282,10726.5954058126
1735578713789,153,-104,981,998.2915405832106,9826,-4116,-413,10661.252318559955
1735578713819,153,-104,981,998.2915405832106,9825,-4117,-2105,10858.698771031453
1735578713849,153,-104,981,998.2915405832106,9823,-4120,-3797,11308.533857224817
1735578713879,137,-109,975,990.5932565892017,9823,-4122,-5490,11984.252709284798
1735578713909,137,-109,975,990.5932565892017,9839,-4119,-7201,12869.59529278213
1735578713939,137,-109,975,990.5932565892017,9851,-4114,-8912,13906.507145937114
1735578713969,137,-109,975,990.5932565892017,9859,-4106,-10623,15063.440709213815
1735578713999,148,-111,973,990.431219217165,9861,-4098,-12324,16306.866682474594
1735578714029,148,-111,973,990.431219217165,9858,-4091,-14021,17621.14882747433
1735578714059,148,-111,973,990.431219217165,9854,-4084,-15718,18995.68098279185
1735578714089,145,-109,962,978.9535229008576,9849,-4079,-17414,20417.84606661535
1735578714119,145,-109,962,978.9535229008576,9844,-4074,16886,19965.941199953486
1735578714149,145,-109,962,978.9535229008576,9839,-4070,15187,18547.662655979053
1735578714179,147,-104,968,984.6060125755886,9834,-4067,13489,17181.419207969986
1735578714209,147,-104,968,984.6060125755886,9824,-4067,11793,15878.485884995458
1735578714239,147,-104,968,984.6060125755886,9816,-4068,10096,14657.138056250955
1735578714269,147,-104,968,984.6060125755886,9810,-4071,8400,13541.386228891044
1735578714299,146,-101,974,990.0469685828042,9804,-4076,6702,12555.835137496828
1735578714329,146,-101,974,990.0469685828042,9799,-4081,5003,11734.776137617624
1735578714359,146,-101,974,990.0469685828042,9797,-4088,3304,11117.975040446889
1735578714389,145,-106,978,994.3565758821128,9799,-4095,1603,10740.532342486567
1735578714419,145,-106,978,994.3565758821128,9806,-4101,-97,10629.451820296284
1735578714449,145,-106,978,994.3565758821128,9813,-4106,-1798,10788.281095707509
1735578714479,148,-104,981,997.5374679679957,9820,-4109,-3500,11205.636126521333
1735578714509,148,-104,981,997.5374679679957,9821,-4110,-5198,11847.50374551534
1735578714539,148,-104,981,997.5374679679957,9822,-4111,-6897,12686.237188386476
1735578714569,148,-104,981,997.5374679679957,9823,-4112,-8596,13685.433460435223
1735578714599,154,-100,974,991.156899789332,9820,-4115,-10289,14806.388688670846
1735578714629,154,-100,974,991.156899789332,9816,-4119,-11980,16026.241511970296
1735578714659,154,-100,974,991.156899789332,9813,-4123,-13672,17326.7908742502
1735578714689,147,-105,971,987.6613792186065,9815,-4128,-15367,18695.435218255818
1735578714719,147,-105,971,987.6613792186065,9824,-4130,-17068,20121.741972304484
1735578714749,147,-105,971,987.6613792186065,9832,-4130,17230,20263.21850052454
1735578714779,145,-108,974,990.6386828708033,9839,-4129,15530,18842.38472168531
1735578714809,145,-108,974,990.6386828708033,9847,-4126,13829,17470.79065182798
1735578714839,145,-108,974,990.6386828708033,9853,-4121,12128,16160.217634673118
1735578714870,145,-108,974,990.6386828708033,9857,-4116,10428,14927.996818059682
1735578714899,152,-99,972,988.7815734529037,9851,-4111,8732,13790.951598783893
1735578714929,152,-99,972,988.7815734529037,9841,-4108,7038,12777.104092868618
1735578714960,152,-99,972,988.7815734529037,9832,-4108,5344,11920.663739909787
1735578714989,146,-104,966,982.4907124242957,9828,-4108,3648,11259.358418666669
1735578715019,146,-104,966,982.4907124242957,9831,-4108,1947,10831.206488660438
1735578715049,146,-104,966,982.4907124242957,9833,-4106,247,10658.711648224658
1735578715079,150,-103,969,985.9361034063008,9834,-4105,-1452,10754.854020394698
1735578715109,150,-103,969,985.9361034063008,9830,-4104,-3148,11107.727940492601
1735578715139,150,-103,969,985.9361034063008,9827,-4104,-4844,11699.447892956317
1735578715199,150,-103,969,985.9361034063008,9824,-4105,-6540,12495.343172558327
1735578715199,149,-110,971,988.5049317024169,9826,-4106,-8237,13463.197279992595
1735578715229,149,-110,971,988.5049317024169,9830,-4106,-9934,14566.14197376917
1735578715260,149,-110,971,988.5049317024169,9833,-4105,-11631,15773.999968302269
1735578715289,150,-107,965,982.4326948956859,9835,-4104,-13328,17064.74802040745
1735578715319,150,-107,965,982.4326948956859,9834,-4103,-15024,18419.086323702377
1735578715349,150,-107,965,982.4326948956859,9834,-4102,-16719,19825.713631544262
1735578715379,145,-101,965,981.0458704872061,9832,-4102,17584,20559.46701643795
1735578715409,145,-101,965,981.0458704872061,9830,-4102,15883,19123.937695987195
1735578715439,145,-101,965,981.0458704872061,9827,-4102,14182,17734.865576034117
1735578715470,145,-101,965,981.0458704872061,9825,-4102,12481,16405.254950777206
1735578715499,136,-101,972,986.651407539664,9827,-4102,10773,15147.734550090321
1735578715529,136,-101,972,986.651407539664,9831,-4101,9063,13985.876125577546
1735578715559,136,-101,972,986.651407539664,9834,-4099,7352,12944.545608093009
1735578715589,147,-106,971,987.7681914295479,9834,-4096,5646,12056.62009022429
1735578715619,147,-106,971,987.7681914295479,9832,-4095,3949,11359.218723134087
1735578715649,147,-106,971,987.7681914295479,9830,-4094,2252,10883.990077172984
1735578715679,149,-100,972,988.4255156560863,9828,-4093,555,10660.687501282457
1735578715709,149,-100,972,988.4255156560863,9820,-4094,-1140,10700.132522543821
1735578715739,149,-100,972,988.4255156560863,9815,-4096,-2836,11007.013082576035
1735578715769,149,-100,972,988.4255156560863,9810,-4099,-4532,11557.54839920647
1735578715799,143,-97,968,983.3015814082677,9809,-4103,-6235,12325.8393223342
1735578715829,143,-97,968,983.3015814082677,9809,-4107,-7940,13271.304758764301
1735578715859,143,-97,968,983.3015814082677,9810,-4110,-9645,14358.071771655133
1735578715889,150,-107,976,993.2396488260022,9813,-4114,-11347,15555.525513463053
1735578715919,150,-107,976,993.2396488260022,9819,-4118,-13044,16837.951805371104
1735578715949,150,-107,976,993.2396488260022,9824,-4120,-14741,18187.42579366305
1735578715979,148,-100,973,989.2588134558115,9829,-4121,-16438,19590.80718092034
1735578716009,148,-100,973,989.2588134558115,9830,-4121,17862,20800.5429015687
1735578716039,148,-100,973,989.2588134558115,9830,-4121,16162,19360.314692690303
1735578716069,148,-100,973,989.2588134558115,9831,-4121,14463,17966.902098024577
1735578716099,142,-105,968,983.978150163915,9836,-4120,12758,16627.92410374789
1735578716129,142,-105,968,983.978150163915,9844,-4118,11052,15362.583246316357
1735578716159,142,-105,968,983.978150163915,9849,-4114,9346,14187.160145709218
1735578716189,147,-97,976,991.7630765460066,9848,-4109,7644,13126.222647814564
1735578716219,147,-97,976,991.7630765460066,9839,-4106,5945,12206.890758911542
1735578716249,147,-97,976,991.7630765460066,9831,-4104,4247,11468.582562810454
1735578716279,151,-107,974,991.4262453657357,9825,-4104,2549,10948.5543337922
1735578716309,151,-107,974,991.4262453657357,9824,-4106,855,10681.818056866538
1735578716338,151,-107,974,991.4262453657357,9825,-4107,-838,10681.775039758139
1735578716369,151,-107,974,991.4262453657357,9825,-4108,-2532,10946.109491504276
1735578716399,146,-109,970,986.9635251618978,9830,-4109,-4230,11463.231699656078
1735578716429,146,-109,970,986.9635251618978,9836,-4109,-5930,12198.183348351507
1735578716459,146,-109,970,986.9635251618978,9840,-4107,-7630,13111.443436937063
1735578716489,152,-107,970,987.650241735403,9842,-4104,-9328,14167.546153092286
1735578716519,152,-107,970,987.650241735403,9839,-4103,-11021,15333.067892629968
1735578716550,152,-107,970,987.650241735403,9837,-4101,-12715,16590.8406959985
1735578716579,147,-104,963,979.6907675384106,9835,-4101,-14408,17920.264785990188
1735578716609,147,-104,963,979.6907675384106,9833,-4100,-16107,19311.482024950856
1735578716639,147,-104,963,979.6907675384106,9832,-4100,-17806,20749.261673611425
1735578716669,147,-104,963,979.6907675384106,9831,-4100,16494,19634.423775603907
1735578716699,148,-108,967,984.2037390703207,9831,-4099,14798,18232.69497359071
1735578716729,148,-108,967,984.2037390703207,9831,-4099,13101,16884.506596285246
1735578716758,148,-108,967,984.2037390703207,9830,-4098,11405,15604.375315917006
1735578716789,152,-100,975,991.8311348208424,9827,-4098,9710,14409.983795965907
1735578716819,152,-100,975,991.8311348208424,9819,-4100,8018,13323.328600616289
1735578716849,152,-100,975,991.8311348208424,9813,-4103,6325,12374.780927353826
1735578716879,148,-105,975,991.7429102343006,9809,-4108,4632,11599.464168658826
1735578716909,148,-105,975,991.7429102343006,9815,-4112,2933,11038.353953375476
1735578716939,148,-105,975,991.7429102343006,9820,-4114,1234,10718.215896314088
1735578716969,148,-105,975,991.7429102343006,9825,-4115,-463,10661.998827612017
1735578716999,148,-108,972,989.1167777365825,9830,-4116,-2160,10873.635822483664
1735578717029,148,-108,972,989.1167777365825,9835,-4116,-3858,11338.114702189248
1735578717059,148,-108,972,989.1167777365825,9838,-4115,-5555,12024.038173592098
1735578717089,150,-99,971,987.4927847837674,9838,-4113,-7251,12894.960798699622
1735578717119,150,-99,971,987.4927847837674,9831,-4113,-8946,13913.886804196734
1735578717149,150,-99,971,987.4927847837674,9826,-4114,-10642,15057.471102412916
1735578717179,140,-107,973,988.8265773127257,9822,-4115,-12338,16298.194777336537
1735578717209,140,-107,973,988.8265773127257,9833,-4114,-14045,17631.645130276414
1735578717239,140,-107,973,988.8265773127257,9842,-4111,-15752,19023.427372584574
1735578717269,140,-107,973,988.8265773127257,9848,-4106,-17459,20461.158838149906
1735578717299,152,-105,971,988.4179278017978,9844,-4103,16844,19936.380840062222
1735578717328,152,-105,971,988.4179278017978,9838,-4101,15151,18524.503933978907
1735578717359,152,-105,971,988.4179278017978,9832,-4100,13459,17164.582867055058
1735578717389,154,-105,972,989.709553353912,9827,-4101,11767,15869.795808390227
1735578717419,154,-105,972,989.709553353912,9823,-4103,10075,14657.13351921173
1735578717449,154,-105,972,989.709553353912,9820,-4106,8384,13549.2838187116
1735578717479,149,-101,971,987.5439230738043,9818,-4109,6692,12572.186325377143
1735578717509,149,-101,971,987.5439230738043,9817,-4112,4995,11757.213020099618
1735578717539,149,-101,971,987.5439230738043,9817,-4116,3298,11144.1351840329
1735578717569,160,-103,972,990.4509074154054,9817,-4119,1600,10765.669974506927
1735578717599,160,-103,972,990.4509074154054,9813,-4124,-84,10644.688863466137
1735578717629,160,-103,972,990.4509074154054,9811,-4130,-1769,10790.828605811512
1735578717659,160,-103,972,990.4509074154054,9811,-4136,-3455,11193.714396928304
1735578717690,146,-104,970,986.423843994051,9819,-4140,-5152,11836.193011268446
1735578717719,146,-104,970,986.423843994051,9830,-4142,-6854,12679.210543247556
1735578717749,146,-104,970,986.423843994051,9840,-4141,-8556,13681.323656722692
1735578717779,144,-104,968,984.1625881936378,9847,-4138,-10258,14809.220674971388
1735578717809,144,-104,968,984.1625881936378,9854,-4133,-11962,16039.714741852487
1735578717839,144,-104,968,984.1625881936378,9858,-4127,-13666,17348.540255594995
1735578717869,152,-97,973,989.5665717878712,9860,-4121,-15369,18719.198754220226
1735578717929,152,-97,973,989.5665717878712,9849,-4116,-17063,20126.853355653984
1735578717930,152,-97,973,989.5665717878712,9839,-4114,17242,20273.566065199284
1735578717960,152,-97,973,989.5665717878712,9830,-4115,15548,18849.467605213682
1735578717989,143,-100,967,982.6179318534748,9830,-4115,13846,17472.087482610656
1735578718020,143,-100,967,982.6179318534748,9832,-4115,12142,16156.410894750108
1735578718049,143,-100,967,982.6179318534748,9834,-4114,10437,14918.562966988477
1735578718079,154,-99,963,980.2479278223443,9832,-4113,8737,13781.152419155664
1735578718109,154,-99,963,980.2479278223443,9824,-4115,7046,12770.681931674597
1735578718139,154,-99,963,980.2479278223443,9818,-4118,5355,11917.511191519814
1735578718169,147,-108,971,987.9848176971142,9814,-4122,3663,11257.133249633318
1735578718199,147,-108,971,987.9848176971142,9825,-4124,1962,10834.548675417911
1735578718229,147,-108,971,987.9848176971142,9833,-4123,262,10665.629939201903
1735578718259,147,-108,971,987.9848176971142,9840,-4120,-1436,10763.925677929963
1735578718289,149,-106,967,984.1371855590053,9842,-4117,-3134,11119.200016188215
1735578718319,149,-106,967,984.1371855590053,9843,-4114,-4831,11711.02924597151
1735578718349,149,-106,967,984.1371855590053,9843,-4110,-6527,12505.138064011928
1735578718380,142,-115,971,988.0435213086516,9846,-4107,-8227,13471.996659738303
1735578718417,142,-115,971,988.0435213086516,9856,-4101,-9931,14580.250272200405
1735578718439,142,-115,971,988.0435213086516,9862,-4093,-11635,15791.925721709813
1735578718470,152,-98,966,982.7838012503055,9865,-4084,-13338,17085.0673103737
1735578718500,152,-98,966,982.7838012503055,9845,-4079,-15031,18425.341977830423
1735578718529,152,-98,966,982.7838012503055,9828,-4078,-16723,19821.16033434975
1735578718568,152,-98,966,982.7838012503055,9813,-4081,17583,20545.350301223876
1735578718590,151,-101,975,991.7797134444725,9803,-4086,15891,19113.296052748203
1735578718619,151,-101,975,991.7797134444725,9797,-4093,14197,17728.188486136987
1735578718650,151,-101,975,991.7797134444725,9794,-4101,12503,16403.220598406886
1735578718679,153,-102,974,991.2058312984241,9794,-4109,10809,15153.90372148378
1735578718709,153,-102,974,991.2058312984241,9796,-4118,9116,14000.7498370623
1735578718739,153,-102,974,991.2058312984241,9799,-4126,7422,12966.509206413266
1735578718769,140,-110,972,988.1720497969976,9804,-4133,5728,12083.463452172973
1735578718799,140,-110,972,988.1720497969976,9825,-4135,4019,11392.15567836044
1735578718829,140,-110,972,988.1720497969976,9842,-4133,2310,10921.66438781196
1735578718859,140,-110,972,988.1720497969976,9856,-4128,601,10702.444627280254
1735578718889,147,-103,966,982.5344777665565,9858,-4122,-1100,10741.557056591004
1735578718919,147,-103,966,982.5344777665565,9856,-4117,-2799,11041.95752572885
1735578718949,147,-103,966,982.5344777665565,9852,-4113,-4498,11584.933189276493
1735578718979,148,-104,975,991.6375345861006,9849,-4108,-6197,12340.229900613684
1735578719009,148,-104,975,991.6375345861006,9845,-4104,-7894,13269.592194185923
1735578719039,148,-104,975,991.6375345861006,9841,-4101,-9591,14340.528686209585
1735578719069,145,-100,978,993.7348740987205,9837,-4099,-11288,15523.766102334832
1735578719099,145,-100,978,993.7348740987205,9832,-4097,-12989,16797.8496838137
1735578719129,145,-100,978,993.7348740987205,9827,-4097,-14690,18142.531190547805
1735578719159,145,-100,978,993.7348740987205,9824,-4097,-16391,19543.82935864924
1735578719189,144,-109,976,992.5688892968589,9827,-4098,17906,20832.387501196303
1735578719219,144,-109,976,992.5688892968589,9832,-4098,16203,19390.694598182912
1735578719249,144,-109,976,992.5688892968589,9836,-4097,14501,17994.757736629854
1735578719279,139,-99,967,981.942462672839,9837,-4095,12798,16653.059718862478
1735578719309,139,-99,967,981.942462672839,9834,-4092,11091,15377.330750165973
1735578719339,139,-99,967,981.942462672839,9831,-4091,9384,14193.107411698116
1735578719369,146,-102,966,982.2810188535661,9828,-4090,7677,13124.557630640356
1735578719399,146,-102,966,982.2810188535661,9824,-4090,5977,12205.064727399033
1735578719430,146,-102,966,982.2810188535661,9821,-4091,4277,11466.518695750685
1735578719459,146,-102,966,982.2810188535661,9818,-4093,2577,10944.711142830587
1735578719489,152,-103,975,992.1380952266675,9814,-4096,881,10670.893730142758
1735578719519,152,-103,975,992.1380952266675,9810,-4101,-811,10663.583919114624
1735578719549,152,-103,975,992.1380952266675,9808,-4107,-2505,10924.254574111681
1735578719579,142,-106,972,988.0202427076077,9811,-4112,-4202,11437.70383424925
1735578719609,142,-106,972,988.0202427076077,9821,-4114,-5908,12177.089184201617
1735578719639,142,-106,972,988.0202427076077,9830,-4113,-7613,13095.93211650091
1735578719669,146,-93,969,984.3403882803956,9837,-4111,-9318,14159.520260234807
1735578719699,146,-93,969,984.3403882803956,9829,-4111,-11019,15327.358643941232
1735578719729,146,-93,969,984.3403882803956,9822,-4112,-12719,16587.742130862778
1735578719759,146,-93,969,984.3403882803956,9817,-4114,-14420,17923.026669622515
1735578719789,149,-97,970,986.1592163540328,9814,-4117,-16119,19315.445788280424
1735578719819,149,-97,970,986.1592163540328,9813,-4121,-17816,20753.0110104534
1735578719849,149,-97,970,986.1592163540328,9813,-4125,16485,19623.094022095494
1735578719879,147,-103,976,992.3678753365608,9815,-4129,14786,18221.104851243243
1735578719939,147,-103,976,992.3678753365608,9822,-4132,13085,16874.902458977354
1735578719939,147,-103,976,992.3678753365608,9829,-4133,11384,15597.640398470532
1735578719969,143,-106,970,986.1972419348981,9834,-4133,9684,14407.258621958585
1735578719999,143,-106,970,986.1972419348981,9844,-4130,7979,13327.628333653367
1735578720029,143,-106,970,986.1972419348981,9851,-4126,6275,12387.158754129214
1735578720059,143,-106,970,986.1972419348981,9856,-4120,4571,11619.344947112982
1735578720089,152,-104,981,998.138767907549,9853,-4114,2874,11057.417465213113
1735578720119,152,-104,981,998.138767907549,9847,-4110,1181,10735.467851938265
1735578720149,152,-104,981,998.138767907549,9841,-4107,-512,10675.901554435579
1735578720179,147,-98,978,993.8294622318258,9835,-4105,-2207,10883.432317058805
1735578720209,147,-98,978,993.8294622318258,9829,-4105,-3906,11345.355966209258
1735578720240,147,-98,978,993.8294622318258,9824,-4106,-5606,12033.181125537834
1735578720269,149,-101,964,980.6620212897,9821,-4107,-7305,12910.558276077762
1735578720299,149,-101,964,980.6620212897,9818,-4110,-9001,13939.269170225532
1735578720329,149,-101,964,980.6620212897,9817,-4113,-10698,15090.9728645969
1735578720359,149,-101,964,980.6620212897,9816,-4116,-12394,16337.274803344651
1735578720389,147,-102,964,980.4636658234715,9819,-4119,-14094,17664.08101204249
1735578720419,147,-102,964,980.4636658234715,9822,-4121,-15794,19050.059343739587
1735578720449,147,-102,964,980.4636658234715,9825,-4122,-17495,20484.055604298675
1735578720479,152,-103,972,989.1900727362765,9828,-4123,16806,19900.511274839148
1735578720509,152,-103,972,989.1900727362765,9828,-4125,15112,18492.640509132274
1735578720539,152,-103,972,989.1900727362765,9829,-4126,13418,17136.972924061007
1735578720569,148,-104,969,985.7388092187504,9830,-4127,11724,15846.551833127609
1735578720599,148,-104,969,985.7388092187504,9835,-4127,10025,14637.622040481849
1735578720629,148,-104,969,985.7388092187504,9838,-4126,8327,13533.257146747785
1735578720659,148,-104,969,985.7388092187504,9841,-4124,6629,12561.699646146615
1735578720689,150,-104,969,986.0410741951879,9842,-4123,4933,11755.789297193107
1735578720719,150,-104,969,986.0410741951879,9841,-4121,3237,11149.264146121932
1735578720749,150,-104,969,986.0410741951879,9840,-4119,1542,10778.196741570457
1735578720779,144,-109,972,988.635928944523,9842,-4118,-155,10669.906888066082
1735578720809,144,-109,972,988.635928944523,9848,-4114,-1859,10833.465788933845
1735578720840,144,-109,972,988.635928944523,9853,-4109,-3561,11253.719873890588
1735578720869,151,-102,970,986.9675779882539,9855,-4103,-5263,11901.882330119048
1735578720899,151,-102,970,986.9675779882539,9845,-4098,-6957,12732.536196689174
1735578720929,151,-102,970,986.9675779882539,9836,-4096,-8650,13723.943019409546
1735578720959,151,-102,970,986.9675779882539,9827,-4096,-10343,14843.341739648791
1735578720990,151,-102,979,995.814239705378,9819,-4098,-12036,16064.608958826231
1735578721020,151,-102,979,995.814239705378,9814,-4101,-13730,17367.95028205689
1735578721050,151,-102,979,995.814239705378,9810,-4106,-15423,18734.04027432417
1735578721080,150,-107,976,993.2396488260022,9810,-4110,-17118,20153.265839560594
1735578721109,150,-107,976,993.2396488260022,9814,-4114,17186,20213.81181271855
1735578721139,150,-107,976,993.2396488260022,9819,-4117,15490,18796.34405941751
1735578721169,149,-104,969,985.8894461348087,9823,-4119,13794,17427.906529471635
1735578721199,149,-104,969,985.8894461348087,9826,-4120,12096,16119.487957128167
1735578721229,149,-104,969,985.8894461348087,9829,-4121,10399,14890.637427591875
1735578721260,149,-104,969,985.8894461348087,9831,-4122,8701,13760.335969735623
1735578721289,146,-103,971,987.3023852903425,9833,-4121,7003,12755.882525329245
1735578721320,146,-103,971,987.3023852903425,9835,-4120,5304,11909.409767070743
1735578721349,146,-103,971,987.3023852903425,9836,-4118,3605,11256.1469873132
1735578721378,151,-106,970,987.3889811011667,9836,-4116,1907,10831.666584602759
1735578721408,151,-106,970,987.3889811011667,9835,-4115,214,10663.313087403933
1735578721438,151,-106,970,987.3889811011667,9833,-4114,-1479,10761.055989074679
1735578721468,149,-100,975,991.3758116879794,9833,-4113,-3173,11120.81773072466
1735578721529,149,-100,975,991.3758116879794,9830,-4114,-4870,11716.26203189396
1735578721530,149,-100,975,991.3758116879794,9828,-4115,-6567,12515.921779877022
1735578721558,146,-105,973,989.4796612361469,9827,-4116,-8264,13483.511449173764
1735578721588,146,-105,973,989.4796612361469,9830,-4115,-9965,14589.837216364
1735578721618,146,-105,973,989.4796612361469,9833,-4114,-11665,15801.427467162579
1735578721648,146,-105,973,989.4796612361469,9835,-4112,-13365,17095.584049689558
1735578721678,149,-107,979,996.037649890806,9837,-4110,-15061,18452.43588256033
1735578721708,149,-107,979,996.037649890806,9837,-4109,-16757,19860.702379321836
1735578721738,149,-107,979,996.037649890806,9837,-4108,17547,20531.425717665104
1735578721768,149,-104,972,988.8382071906404,9837,-4106,15852,19102.662353713946
1735578721798,149,-104,972,988.8382071906404,9833,-4106,14156,17718.33685761731
1735578721828,149,-104,972,988.8382071906404,9830,-4107,12461,16394.293824376822
1735578721858,145,-100,979,994.7190558142535,9828,-4107,10765,15144.050250841088
1735578721888,145,-100,979,994.7190558142535,9827,-4107,9062,13984.17755894139
1735578721918,145,-100,979,994.7190558142535,9826,-4108,7360,12945.869611578823
1735578721948,145,-100,979,994.7190558142535,9826,-4108,5657,12059.336175760256
1735578721978,151,-110,968,985.8625664868304,9829,-4109,3959,11365.157412020302
1735578722008,151,-110,968,985.8625664868304,9832,-4109,2264,10893.934137858554
1735578722037,151,-110,968,985.8625664868304,9835,-4109,569,10674.027684056286
1735578722068,145,-110,962,979.0653706469246,9838,-4107,-1126,10720.147806816845
1735578722098,145,-110,962,979.0653706469246,9842,-4105,-2826,11031.874953968614
1735578722128,145,-110,962,979.0653706469246,9845,-4101,-4525,11585.242811439042
1735578722158,151,-108,960,977.7857638562754,9847,-4097,-6224,12348.562426452725
1735578722188,151,-108,960,977.7857638562754,9841,-4094,-7916,13276.640124670097
1735578722218,151,-108,960,977.7857638562754,9836,-4092,-9609,14346.57593295348
1735578722248,151,-108,960,977.7857638562754,9831,-4091,-11302,15528.040636216792
1735578722339,150,-104,968,985.0583739048159,9826,-4092,-12996,16798.534340828668
1735578722339,150,-104,968,985.0583739048159,9821,-4093,-14692,18139.99873208375
1735578722368,150,-104,968,985.0583739048159,9817,-4096,-16387,19536.746760911858
1735578722368,144,-102,972,987.8886576937707,9816,-4099,17914,20834.275917343515
1735578722398,144,-102,972,987.8886576937707,9817,-4100,16211,19390.203970046317
1735578722428,144,-102,972,987.8886576937707,9819,-4102,14508,17992.25469472906
1735578722458,145,-102,971,987.0511638208021,9821,-4103,12805,16650.966188182596
1735578722488,145,-102,971,987.0511638208021,9820,-4105,11104,15381.230152364276
1735578722518,145,-102,971,987.0511638208021,9820,-4107,9403,14202.684887020481
1735578722548,145,-102,971,987.0511638208021,9821,-4109,7702,13139.890638814313
1735578722578,152,-102,962,979.2609458157718,9819,-4112,6006,12222.656871564383
1735578722608,152,-102,962,979.2609458157718,9817,-4115,4312,11484.775052215868
1735578722638,152,-102,962,979.2609458157718,9817,-4119,2618,10963.282993702205
1735578722668,153,-101,972,989.1380085710992,9817,-4122,924,10687.289132422684
1735578722698,153,-101,972,989.1380085710992,9816,-4125,-768,10675.17236394804
1735578722728,153,-101,972,989.1380085710992,9816,-4128,-2461,10929.353183057083
1735578722758,136,-92,973,986.7568089453449,9817,-4131,-4154,11432.163662229474
1735578722788,136,-92,973,986.7568089453449,9823,-4133,-5866,12164.825276180502
1735578722818,136,-92,973,986.7568089453449,9828,-4133,-7579,13080.998203501138
1735578722848,136,-92,973,986.7568089453449,9833,-4133,-9291,14145.397095875393
1735578722881,156,-107,959,977.4794115478852,9835,-4132,-10988,15314.59411803003
1735578722908,156,-107,959,977.4794115478852,9837,-4132,-12678,16570.204494815385
1735578722938,156,-107,959,977.4794115478852,9838,-4132,-14369,17897.704573492098
1735578722968,148,-100,972,988.2752652980848,9839,-4131,-16062,19283.64400210707
1735578722998,148,-100,972,988.2752652980848,9840,-4130,-17761,20720.41556050457
1735578723028,148,-100,972,988.2752652980848,9840,-4128,16540,19683.434253198804
1735578723058,146,-95,978,993.390658301154,9840,-4127,14841,18278.758437049273
1735578723088,146,-95,978,993.390658301154,9836,-4125,13141,16924.786616084708
1735578723118,146,-95,978,993.390658301154,9832,-4123,11442,15639.268429181719
1735578723148,146,-95,978,993.390658301154,9828,-4123,9742,14439.365533152764
1735578723178,152,-99,968,984.8497347311417,9825,-4125,8046,13352.316877605923
1735578723208,152,-99,968,984.8497347311417,9822,-4127,6353,12404.209849885643
1735578723238,152,-99,968,984.8497347311417,9820,-4130,4659,11627.36345866938
1735578723268,147,-105,982,998.4778415167759,9824,-4133,2962,11061.921578098445
1735578723298,147,-105,982,998.4778415167759,9833,-4134,1261,10740.948095955031
1735578723328,147,-105,982,998.4778415167759,9840,-4132,-439,10681.373741237594
1735578723358,151,-108,967,984.6593319519193,9846,-4130,-2140,10889.454348129662
1735578723388,151,-108,967,984.6593319519193,9850,-4126,-3835,11346.964395819703
1735578723418,151,-108,967,984.6593319519193,9852,-4122,-5530,12026.374682338814
1735578723448,151,-108,967,984.6593319519193,9853,-4118,-7225,12893.415296188981
1735578723478,157,-103,978,995.8624402998639,9847,-4114,-8916,13906.23820448938
1735578723508,157,-103,978,995.8624402998639,9839,-4112,-10605,15039.298188412915
1735578723538,157,-103,978,995.8624402998639,9832,-4112,-12294,16270.193729639484
1735578723568,145,-103,973,989.122338237288,9829,-4113,-13987,17583.008246599897
1735578723598,145,-103,973,989.122338237288,9831,-4112,-15688,18964.97954124918
1735578723628,145,-103,973,989.122338237288,9832,-4112,-17389,20394.952537331388
1735578723658,151,-99,974,990.5947708321501,9833,-4111,16910,19988.404388544874
1735578723688,151,-99,974,990.5947708321501,9827,-4111,15216,18574.092333139728
1735578723718,151,-99,974,990.5947708321501,9822,-4113,13523,17212.2044491692
1735578723748,151,-99,974,990.5947708321501,9819,-4116,11829,15914.75598304919
1735578723778,149,-100,961,977.6103518273526,9818,-4119,10132,14697.506897429917
1735578723808,149,-100,961,977.6103518273526,9820,-4122,8435,13585.74653819215
1735578723838,149,-100,961,977.6103518273526,9821,-4125,6737,12603.762731819415
1735578723868,153,-101,979,996.01757012615,9823,-4127,5041,11787.075082479114
1735578723898,153,-101,979,996.01757012615,9824,-4129,3347,11169.69229656753
1735578723928,153,-101,979,996.01757012615,9825,-4132,1654,10786.091275341592
1735578723958,146,-101,966,982.1776824994549,9826,-4134,-39,10660.288598344794
1735578723988,146,-101,966,982.1776824994549,9831,-4134,-1741,10805.998241717421
1735578724018,146,-101,966,982.1776824994549,9835,-4133,-3442,11209.651109646544
1735578724048,146,-101,966,982.1776824994549,9839,-4131,-5143,11845.738938538196
1735578724078,147,-104,969,985.5891639014707,9843,-4130,-6843,12679.439971859956
1735578724108,147,-104,969,985.5891639014707,9847,-4127,-8543,13674.004058797116
1735578724138,147,-104,969,985.5891639014707,9849,-4124,-10242,14795.564909796449
1735578724168,145,-104,966,982.3426082584426,9851,-4120,-11942,16019.611886684395
1735578724198,145,-104,966,982.3426082584426,9852,-4115,-13644,17324.94920627475
1735578724228,145,-104,966,982.3426082584426,9852,-4110,-15346,18693.681285396946
1735578724258,148,-97,971,986.9924011865543,9850,-4105,-17047,20111.532363298425
1735578724288,148,-97,971,986.9924011865543,9839,-4102,17255,20282.19292877375
1735578724318,148,-97,971,986.9924011865543,9830,-4101,15557,18853.841783572916
1735578724348,148,-97,971,986.9924011865543,9821,-4102,13860,17475.069241636786
1735578724378,147,-91,980,995.1331569192135,9812,-4105,12162,16156.75131330553
1735578724408,147,-91,980,995.1331569192135,9805,-4110,10464,14917.285979694832
1735578724438,147,-91,980,995.1331569192135,9799,-4116,8765,13776.32323952948
1735578724468,147,-97,969,984.8751189871739,9798,-4123,7066,12764.336606341905
1735578724498,147,-97,969,984.8751189871739,9802,-4129,5366,11913.093678805686
1735578724528,147,-97,969,984.8751189871739,9807,-4135,3665,11256.451439063734
1735578724558,145,-107,972,988.5636044281622,9813,-4140,1965,10830.318277871616
1735578724588,145,-107,972,988.5636044281622,9828,-4141,261,10667.970097445905
1735578724618,145,-107,972,988.5636044281622,9842,-4138,-1442,10773.456826849959
1735578724648,145,-107,972,988.5636044281622,9852,-4134,-3145,11137.454152543121
1735578724678,146,-98,978,993.682041701469,9853,-4129,-4847,11731.311052052111
1735578724708,146,-98,978,993.682041701469,9851,-4125,-6548,12527.335311230398
1735578724738,146,-98,978,993.682041701469,9848,-4121,-8250,13491.784351967683
1735578724768,147,-108,969,986.0192695885817,9847,-4117,-9950,14591.627667947123
1735578724798,147,-108,969,986.0192695885817,9849,-4114,-11648,15798.851255708436
1735578724828,147,-108,969,986.0192695885817,9850,-4109,-13346,17088.654042960785
1735578724858,149,-96,968,984.0939995752439,9850,-4105,-15044,18444.388333582658
1735578724888,149,-96,968,984.0939995752439,9839,-4102,-16741,19846.74799557852
1735578724918,149,-96,968,984.0939995752439,9829,-4101,17562,20539.018623098815
1735578724948,149,-96,968,984.0939995752439,9821,-4102,15865,19104.362590780147
1735578724978,144,-101,961,976.9636636026951,9818,-4104,14165,17716.748149702868
1735578725008,144,-101,961,976.9636636026951,9819,-4106,12462,16388.210427011243
1735578725039,144,-101,961,976.9636636026951,9820,-4108,10760,15135.576104000798
1735578725070,154,-106,972,989.8161445440259,9821,-4110,9061,13980.195349135862
1735578725100,154,-106,972,989.8161445440259,9820,-4113,7369,12948.024173594982
1735578725129,154,-106,972,989.8161445440259,9821,-4116,5677,12067.386875376127
1735578725159,143,-111,968,984.781193971534,9822,-4119,3984,11371.459932655966
1735578725189,143,-111,968,984.781193971534,9835,-4119,2280,10903.751005961205
1735578725219,143,-111,968,984.781193971534,9845,-4116,577,10686.365612311793
1735578725249,143,-111,968,984.781193971534,9853,-4110,-1126,10735.063344014325
1735578725278,154,-101,967,984.3810237910928,9847,-4106,-2821,11035.42867314179
1735578725308,154,-101,967,984.3810237910928,9837,-4103,-4512,11574.079747435646
1735578725338,154,-101,967,984.3810237910928,9828,-4103,-6203,12324.828680350896
1735578725368,140,-100,974,989.0783588775968,9826,-4104,-7905,13262.05553449389
1735578725398,140,-100,974,989.0783588775968,9827,-4103,-9611,14344.889647536505
1735578725429,140,-100,974,989.0783588775968,9828,-4102,-11318,15540.692133878723
1735578725460,151,-100,966,982.8311146885817,9829,-4101,-13025,16824.92398199766
1735578725490,151,-100,966,982.8311146885817,9822,-4102,-14719,18164.444637808225
1735578725519,151,-100,966,982.8311146885817,9817,-4104,-16414,19561.07617182654
1735578725549,148,-102,977,993.3966982026868,9813,-4107,17891,20814.66547893576
1735578725579,148,-102,977,993.3966982026868,9813,-4111,16193,19375.462291259013
1735578725609,148,-102,977,993.3966982026868,9814,-4115,14496,17982.820607457554
1735578725639,148,-102,977,993.3966982026868,9816,-4118,12798,16646.33845624917
1735578725669,159,-102,972,990.1863460985513,9814,-4121,11107,15383.844968017585
1735578725699,159,-102,972,990.1863460985513,9812,-4126,9420,14213.923455541753
1735578725729,159,-102,972,990.1863460985513,9810,-4132,7733,13157.082237335146
1735578725759,145,-104,974,990.2105836638992,9811,-4137,6045,12243.876632831612
1735578725789,145,-104,974,990.2105836638992,9823,-4140,4343,11510.542037627942
1735578725819,145,-104,974,990.2105836638992,9833,-4141,2641,10991.389857520295
1735578725849,142,-100,968,983.4571673438554,9842,-4139,938,10718.02822351201
1735578725879,142,-100,968,983.4571673438554,9849,-4135,-768,10709.381401369548
1735578725909,142,-100,968,983.4571673438554,9853,-4130,-2475,10966.500535722414
1735578725939,142,-100,968,983.4571673438554,9856,-4123,-4181,11472.603279116733
1735578725969,149,-101,964,980.6620212897,9852,-4118,-5881,12190.405612611912
1735578726000,149,-101,964,980.6620212897,9847,-4113,-7578,13088.401812291675
1735578726029,149,-101,964,980.6620212897,9842,-4110,-9275,14134.450431481233
1735578726059,148,-100,970,986.308268240716,9836,-4108,-10972,15297.298585044355
1735578726089,148,-100,970,986.308268240716,9832,-4106,-12669,16553.88235429985
1735578726119,148,-100,970,986.308268240716,9828,-4106,-14366,17883.813239910553
1735578726149,153,-100,965,982.1578284573208,9824,-4107,-16064,19272.532812269383
1735578726179,153,-100,965,982.1578284573208,9818,-4110,-17755,20700.851407611233
1735578726209,153,-100,965,982.1578284573208,9813,-4115,16552,19677.319380444074
1735578726238,153,-100,965,982.1578284573208,9811,-4121,14859,18276.439560264465
1735578726269,156,-106,973,991.1109927752794,9813,-4126,13168,16932.662785279816
1735578726299,156,-106,973,991.1109927752794,9818,-4131,11477,15658.218736497456
1735578726329,156,-106,973,991.1109927752794,9823,-4134,9786,14468.831362622208
1735578726359,155,-100,969,986.4005271693644,9826,-4137,8095,13386.338931911145
1735578726389,155,-100,969,986.4005271693644,9826,-4139,6402,12436.526886554782
1735578726420,155,-100,969,986.4005271693644,9826,-4141,4710,11656.854507112972
1735578726450,152,-104,977,994.2077247738523,9827,-4143,3017,11083.170439905722
1735578726479,152,-104,977,994.2077247738523,9832,-4144,1322,10751.21593123308
1735578726508,152,-104,977,994.2077247738523,9837,-4144,-372,10680.715753169354
1735578726539,152,-104,977,994.2077247738523,9841,-4144,-2067,10876.143893862383
1735578726569,143,-103,972,987.8471541691052,9849,-4141,-3770,11329.765310896779
1735578726599,143,-103,972,987.8471541691052,9857,-4135,-5475,12009.758490494303
1735578726628,143,-103,972,987.8471541691052,9862,-4129,-7180,12878.667827069692
1735578726659,142,-104,970,985.8397435689028,9864,-4121,-8885,13900.516609104858
1735578726689,142,-104,970,985.8397435689028,9865,-4114,-10589,15045.602081671574
1735578726719,142,-104,970,985.8397435689028,9864,-4106,-12293,16287.28279977971
1735578726749,151,-102,968,985.0020304547601,9861,-4098,-13997,17605.366624981147
1735578726778,151,-102,968,985.0020304547601,9850,-4094,-15692,18974.250973358605
1735578726809,151,-102,968,985.0020304547601,9839,-4091,-17386,20391.547219374992
1735578726839,151,-102,968,985.0020304547601,9830,-4090,16919,19990.236641920976
1735578726869,143,-101,971,986.6564751725901,9825,-4091,15218,18570.256594888506
1735578726899,143,-101,971,986.6564751725901,9822,-4092,13515,17200.911981636324
1735578726929,143,-101,971,986.6564751725901,9820,-4093,11811,15896.0614618842
1735578726959,147,-108,964,981.1060085434193,9820,-4095,10109,14676.283793930941
1735578726989,147,-108,964,981.1060085434193,9822,-4097,8411,13564.734203072318
1735578727019,147,-108,964,981.1060085434193,9824,-4098,6712,12583.939128905544
1735578727049,154,-94,966,982.7044316578612,9827,-4098,5014,11768.760724902177
1735578727079,154,-94,966,982.7044316578612,9813,-4101,3324,11142.806917469225
1735578727109,154,-94,966,982.7044316578612,9802,-4106,1633,10751.982561369787
1735578727139,154,-94,966,982.7044316578612,9795,-4114,-58,10624.047486716163
1735578727168,152,-100,971,987.899286364759,9794,-4123,-1751,10769.752364841079
1735578727199,152,-100,971,987.899286364759,9798,-4131,-3445,11177.387440721557
1735578727229,152,-100,971,987.899286364759,9802,-4138,-5140,11816.168922286106
1735578727260,145,-103,969,985.1877993560415,9811,-4144,-6839,12657.028798260671
1735578727289,145,-103,969,985.1877993560415,9825,-4146,-8544,13664.548181334061
1735578727319,145,-103,969,985.1877993560415,9837,-4146,-10248,14797.884612335643
1735578727349,154,-100,981,998.0365724761793,9846,-4143,-11953,16030.669792619396
1735578727380,154,-100,981,998.0365724761793,9845,-4141,-13646,17328.739769527383
1735578727409,154,-100,981,998.0365724761793,9844,-4140,-15339,18690.34127564288
1735578727439,154,-100,981,998.0365724761793,9842,-4138,-17032,20101.667393527336
1735578727469,146,-105,969,985.5465488752928,9847,-4136,17268,20304.032333504594
1735578727499,146,-105,969,985.5465488752928,9853,-4131,15567,18880.631848537272
1735578727529,146,-105,969,985.5465488752928,9856,-4126,13866,17505.15832547652
1735578727559,152,-107,975,992.5613331175057,9857,-4120,12168,16192.438760112696
1735578727589,152,-107,975,992.5613331175057,9854,-4116,10474,14958.189997456244
1735578727619,152,-107,975,992.5613331175057,9850,-4112,8781,13821.613690159336
1735578727649,145,-104,974,990.2105836638992,9847,-4109,7087,12809.092825020825
1735578727679,145,-104,974,990.2105836638992,9845,-4105,5386,11949.227841161955
1735578727709,145,-104,974,990.2105836638992,9843,-4102,3686,11282.625979797434
1735578727737,145,-104,974,990.2105836638992,9841,-4100,1986,10844.329255421932
1735578727769,150,-101,981,997.5279444707301,9833,-4098,290,10656.715863717114
1735578727800,150,-101,981,997.5279444707301,9824,-4099,-1402,10736.77703037555
1735578727829,150,-101,981,997.5279444707301,9817,-4101,-3096,11080.47408733038
1735578727859,149,-99,965,981.441287087516,9813,-4105,-4792,11666.587247348729
1735578727890,149,-99,965,981.441287087516,9811,-4110,-6489,12460.134108427565
1735578727920,149,-99,965,981.441287087516,9810,-4115,-8187,13423.721317131103
1735578727949,148,-104,971,987.7049154479287,9810,-4120,-9885,14523.213315241224
1735578727979,148,-104,971,987.7049154479287,9817,-4124,-11583,15733.618592046776
1735578728009,148,-104,971,987.7049154479287,9824,-4127,-13282,17028.054175389505
1735578728039,148,-104,971,987.7049154479287,9830,-4128,-14982,18388.300845918307
1735578728070,143,-99,973,988.4224805213609,9835,-4128,-16684,19802.107589850126
1735578728099,143,-99,973,988.4224805213609,9838,-4126,17610,20589.371529990905
1735578728129,143,-99,973,988.4224805213609,9841,-4124,15906,19153.419877400484
1735578728159,147,-96,970,985.7611272514249,9840,-4121,14203,17763.261243364068
1735578728189,147,-96,970,985.7611272514249,9836,-4120,12504,16433.846536949284
1735578728220,147,-96,970,985.7611272514249,9832,-4119,10805,15178.353336248303
1735578728249,143,-104,974,989.9196937125758,9828,-4120,9106,14017.247233319387
1735578728279,143,-104,974,989.9196937125758,9834,-4119,7402,12979.342086562016
1735578728309,143,-104,974,989.9196937125758,9839,-4116,5698,12091.922138353357
1735578728340,143,-104,974,989.9196937125758,9842,-4113,3995,11390.423960502963
1735578728370,150,-107,973,990.29187616581,9842,-4110,2298,10910.447653510832
1735578728399,150,-107,973,990.29187616581,9841,-4107,603,10680.6525549706
1735578728429,150,-107,973,990.29187616581,9839,-4104,-1090,10716.195080344516
1735578728459,146,-95,964,979.6106369369414,9835,-4102,-2786,11014.328168345086
1735578728489,146,-95,964,979.6106369369414,9827,-4102,-4485,11554.720161042413
1735578728519,146,-95,964,979.6106369369414,9820,-4104,-6184,12309.227108149398
1735578728548,156,-110,971,989.5842561399206,9815,-4107,-7883,13241.728097193356
1735578728579,156,-110,971,989.5842561399206,9816,-4111,-9572,14313.537682907046
1735578728609,156,-110,971,989.5842561399206,9818,-4114,-11262,15496.798508079015
1735578728639,156,-110,971,989.5842561399206,9821,-4117,-12951,16766.93564727914
1735578728669,147,-110,968,985.2578342748664,9829,-4118,-14648,18114.388452277377
1735578728699,147,-110,968,985.2578342748664,9837,-4117,-16348,19518.53893097534
1735578728729,147,-110,968,985.2578342748664,9844,-4114,17951,20882.234866029066
1735578728759,141,-105,967,982.8504464057592,9849,-4110,16250,19441.12653628899
1735578728790,141,-105,967,982.8504464057592,9851,-4104,14545,18040.012250550164
1735578728819,141,-105,967,982.8504464057592,9852,-4098,12840,16694.94258750236
1735578728850,152,-104,974,991.2598044912343,9851,-4092,11135,15419.951037535755
1735578728880,152,-104,974,991.2598044912343,9840,-4089,9444,14238.492090105608
1735578728909,152,-104,974,991.2598044912343,9831,-4088,7752,13170.186369220444
1735578728939,152,-104,974,991.2598044912343,9823,-4089,6060,12244.788687437607
1735578728970,145,-111,974,990.9702316416978,9824,-4091,4363,11501.43582340918
1735578728999,145,-111,974,990.9702316416978,9828,-4091,2663,10973.487777365955
1735578729029,145,-111,974,990.9702316416978,9831,-4090,963,10691.306281273584
1735578729059,147,-103,970,986.4674348400965,9831,-4089,-736,10672.871122617382
1735578729090,147,-103,970,986.4674348400965,9826,-4090,-2435,10918.22334448238
1735578729120,147,-103,970,986.4674348400965,9821,-4091,-4135,11414.313251352443
1735578729149,146,-102,971,987.1985615872827,9818,-4094,-5834,12132.168643733898
1735578729179,146,-102,971,987.1985615872827,9815,-4096,-7532,13032.36221872305
1735578729209,146,-102,971,987.1985615872827,9813,-4100,-9230,14081.827615760676
1735578729239,151,-100,967,983.8140068122633,9814,-4103,-10930,15251.691873362772
1735578729269,151,-100,967,983.8140068122633,9812,-4107,-12625,16508.586190222348
1735578729299,151,-100,967,983.8140068122633,9811,-4111,-14321,17839.48101823593
1735578729329,151,-100,967,983.8140068122633,9811,-4115,-16018,19229.281577843725
1735578729359,158,-108,971,989.6812618211986,9813,-4121,-17708,20660.369648193617
1735578729390,158,-108,971,989.6812618211986,9816,-4126,16603,19724.02953252707
1735578729419,158,-108,971,989.6812618211986,9820,-4131,14916,18329.883169294888
1735578729449,152,-109,961,979.033196577113,9825,-4134,13228,16988.24784961651
1735578729479,152,-109,961,979.033196577113,9833,-4136,11533,15710.01190324183
1735578729509,152,-109,961,979.033196577113,9840,-4135,9839,14516.533539381913
1735578729539,155,-104,977,994.6707998126817,9846,-4133,8144,13429.450509979923
1735578729569,155,-104,977,994.6707998126817,9843,-4131,6453,12473.61290885684
1735578729599,155,-104,977,994.6707998126817,9840,-4129,4762,11685.498919601165
1735578729630,155,-104,977,994.6707998126817,9838,-4128,3072,11102.42369935502
1735578729660,151,-108,964,981.7132982699175,9840,-4128,1378,10759.408348045908
1735578729689,151,-108,964,981.7132982699175,9844,-4126,-315,10678.363029977956
1735578729719,151,-108,964,981.7132982699175,9846,-4123,-2009,10861.810438412189
1735578729749,147,-100,982,997.964428223772,9846,-4120,-3705,11298.014914134252
1735578729779,147,-100,982,997.964428223772,9844,-4116,-5405,11960.761556021422
1735578729809,147,-100,982,997.964428223772,9840,-4114,-7104,12814.734175939819
1735578729839,152,-105,970,987.4355675182052,9837,-4112,-8803,13826.348831126748
1735578729869,152,-105,970,987.4355675182052,9835,-4112,-10497,14960.70780411141
1735578729899,152,-105,970,987.4355675182052,9834,-4111,-12190,16192.713700921164
1735578729929,152,-105,970,987.4355675182052,9832,-4112,-13884,17502.63477308488
1735578729960,140,-102,971,986.3290525985738,9835,-4110,-15587,18883.164300508535
1735578729990,140,-102,971,986.3290525985738,9838,-4107,-17293,20315.057026747425
1735578730020,140,-102,971,986.3290525985738,9840,-4103,16999,20065.54783702653
1735578730049,153,-102,977,994.153911625358,9837,-4100,15299,18644.998525073686
1735578730080,153,-102,977,994.153911625358,9828,-4101,13608,17279.625256353218
1735578730109,153,-102,977,994.153911625358,9821,-4103,11917,15978.158185473068
1735578730139,147,-104,972,988.5388206843472,9816,-4106,10225,14756.819338868387
1735578730170,147,-104,972,988.5388206843472,9818,-4108,8528,13638.019357663341
1735578730199,147,-104,972,988.5388206843472,9820,-4111,6830,12648.384126045508
1735578730229,147,-104,972,988.5388206843472,9822,-4112,5132,11820.222163732795
1735578730259,146,-104,971,987.4072108304658,9826,-4114,3432,11191.688701889452
1735578730289,146,-104,971,987.4072108304658,9829,-4114,1731,10794.933904383111
1735578730320,146,-104,971,987.4072108304658,9832,-4113,30,10657.668272187871
1735578730350,146,-105,973,989.4796612361469,9835,-4113,-1670,10790.407499255994
1735578730379,146,-105,973,989.4796612361469,9837,-4111,-3370,11181.403758026092
1735578730409,146,-105,973,989.4796612361469,9839,-4109,-5071,11806.982806797001
1735578730439,153,-108,977,994.7874144760779,9840,-4106,-6770,12630.03309576028
1735578730469,153,-108,977,994.7874144760779,9836,-4104,-8461,13608.020906803458
1735578730499,153,-108,977,994.7874144760779,9833,-4103,-10153,14717.537395909683
1735578730529,153,-108,977,994.7874144760779,9830,-4103,-11844,15929.339126278905
1735578730559,151,-105,968,985.3172078067042,9828,-4102,-13537,17224.00525429553
1735578730589,151,-105,968,985.3172078067042,9826,-4102,-15231,18583.865071615215
1735578730620,151,-105,968,985.3172078067042,9824,-4103,-16926,19995.876099836187
1735578730648,141,-116,979,995.8805149213433,9828,-4104,17375,20379.475582065403
1735578730679,141,-116,979,995.8805149213433,9840,-4101,15670,18952.379824180392
1735578730710,141,-116,979,995.8805149213433,9850,-4097,13965,17573.535045630404
1735578730739,143,-104,973,988.935791646758,9857,-4090,12260,16254.111756721744
1735578730770,143,-104,973,988.935791646758,9851,-4083,10558,15006.147207061511
1735578730799,143,-104,973,988.935791646758,9844,-4078,8856,13855.076903431464
1735578730829,143,-104,973,988.935791646758,9837,-4074,7154,12827.461206333855
1735578730859,152,-104,964,981.4356830684321,9826,-4073,5460,11956.220347584767
1735578730890,152,-104,964,981.4356830684321,9814,-4076,3770,11275.693858916178
1735578730919,152,-104,964,981.4356830684321,9805,-4080,2078,10821.391269148344
1735578730949,153,-110,973,991.0792097506637,9801,-4087,387,10626.050018704034
1735578730980,153,-110,973,991.0792097506637,9803,-4094,-1303,10703.151591937769
1735578731009,153,-110,973,991.0792097506637,9806,-4100,-2995,11042.538702671593
1735578731040,151,-105,965,982.3700931929881,9809,-4105,-4687,11620.476539281855
1735578731069,151,-105,965,982.3700931929881,9810,-4110,-6381,12403.441498229433
1735578731099,151,-105,965,982.3700931929881,9811,-4114,-8075,13356.134994825412
1735578731129,151,-105,965,982.3700931929881,9814,-4118,-9770,14447.33262578252
1735578731159,149,-88,969,984.3302291406071,9809,-4123,-11466,15642.402820538793
1735578731189,149,-88,969,984.3302291406071,9803,-4129,-13164,16924.489534399552
1735578731219,149,-88,969,984.3302291406071,9800,-4136,-14863,18277.178803086652
1735578731249,143,-105,977,992.9768375949159,9806,-4143,-16565,19690.640162269992
1735578731279,143,-105,977,992.9768375949159,9825,-4145,17727,20687.1500937176
1735578731309,143,-105,977,992.9768375949159,9840,-4144,16020,19251.98005401003
1735578731339,146,-107,964,980.8470828829538,9852,-4140,14313,17862.347913978163
1735578731369,146,-107,964,980.8470828829538,9860,-4135,12612,16534.218124846426
1735578731399,146,-107,964,980.8470828829538,9865,-4128,10911,15277.713506935519
1735578731429,146,-107,964,980.8470828829538,9867,-4121,9211,14113.21547344899
1735578731459,146,-110,972,989.0399385262458,9868,-4112,7511,13065.262683926412
1735578731489,146,-110,972,989.0399385262458,9868,-4102,5811,12164.355675497161
1735578731519,146,-110,972,989.0399385262458,9865,-4093,4112,11444.623978095568
1735578731549,153,-108,971,988.8953432997852,9858,-4085,2416,10940.952655047915
1735578731579,153,-108,971,988.8953432997852,9847,-4081,725,10683.800587805821
1735578731609,153,-108,971,988.8953432997852,9837,-4078,-965,10692.42152180693
1735578731639,143,-110,971,987.6183473386873,9828,-4078,-2656,10966.950533306877
1735578731669,143,-110,971,987.6183473386873,9828,-4077,-4357,11497.606794459445
1735578731699,143,-110,971,987.6183473386873,9829,-4076,-6059,12244.774313967571
1735578731729,143,-110,971,987.6183473386873,9829,-4075,-7761,13169.965337843529
1735578731759,146,-98,971,986.7932914242982,9820,-4075,-9458,14229.960962701198
1735578731790,146,-98,971,986.7932914242982,9809,-4077,-11155,15403.65005445138
1735578731819,146,-98,971,986.7932914242982,9801,-4082,-12852,16670.219824585398
1735578731849,154,-112,978,996.3653948226022,9798,-4088,-14548,18009.909827647665
1735578731879,154,-112,978,996.3653948226022,9801,-4095,-16239,19404.47749876301
1735578731908,154,-112,978,996.3653948226022,9806,-4102,-17930,20843.918537549507
1735578731939,150,-103,969,985.9361034063008,9811,-4107,16377,19527.654723494063
1735578731969,150,-103,969,985.9361034063008,9811,-4111,14682,18130.558899272797
1735578731999,150,-103,969,985.9361034063008,9812,-4115,12986,16788.232932622777
1735578732029,150,-103,969,985.9361034063008,9813,-4118,11290,15515.056977014296
1735578732059,147,-98,975,990.8773889841266,9814,-4122,9592,14328.7104793139
1735578732089,147,-98,975,990.8773889841266,9816,-4125,7893,13254.015617917463
1735578732119,147,-98,975,990.8773889841266,9817,-4128,6193,12319.379935694815
1735578732149,144,-101,978,993.6905957087447,9822,-4131,4491,11563.127864034022
1735578732179,144,-101,978,993.6905957087447,9830,-4132,2787,11021.329003346194
1735578732209,144,-101,978,993.6905957087447,9837,-4131,1082,10723.919712493189
1735578732239,144,-102,973,988.8725903775471,9842,-4129,-621,10691.082545748115
1735578732269,144,-102,973,988.8725903775471,9847,-4124,-2324,10925.738464744614
1735578732299,144,-102,973,988.8725903775471,9849,-4119,-4027,11409.89443421805
1735578732329,144,-102,973,988.8725903775471,9850,-4114,-5729,12114.823028009943
1735578732359,146,-100,976,991.9133026630906,9846,-4109,-7430,13001.2498245361
1735578732389,146,-100,976,991.9133026630906,9842,-4106,-9130,14038.557618217052
1735578732419,146,-100,976,991.9133026630906,9837,-4104,-10830,15195.337607305735
1735578732449,146,-103,974,990.2529979757699,9834,-4103,-12531,16448.95516438658
1735578732479,146,-103,974,990.2529979757699,9832,-4101,-14231,17776.607831642123
1735578732509,146,-103,974,990.2529979757699,9831,-4100,-15931,19163.906752016926
1735578732539,149,-108,968,985.3369981889444,9829,-4100,-17631,20597.849450852875
1735578732569,149,-108,968,985.3369981889444,9831,-4100,16672,19784.18926820101
1735578732599,149,-108,968,985.3369981889444,9832,-4100,14976,18378.215364936827
1735578732629,149,-108,968,985.3369981889444,9833,-4099,13280,17024.92555049801
1735578732659,155,-98,963,980.305054562099,9824,-4100,11588,15735.397039795342
1735578732689,155,-98,963,980.305054562099,9814,-4103,9899,14530.636806416986
1735578732719,155,-98,963,980.305054562099,9806,-4109,8209,13432.393606502155
1735578732749,157,-104,967,985.1669909208287,9801,-4116,6519,12469.900480757655
1735578732779,157,-104,967,985.1669909208287,9801,-4124,4831,11679.278145501972
1735578732809,157,-104,967,985.1669909208287,9803,-4132,3143,11092.821192104378
1735578732839,154,-104,978,995.4978653919857,9807,-4139,1454,10743.495055148487
1735578732869,154,-104,978,995.4978653919857,9816,-4144,-239,10657.565997919037
1735578732900,154,-104,978,995.4978653919857,9824,-4148,-1932,10837.41223724557
1735578732930,147,-103,971,987.4507582659502,9831,-4150,-3626,11270.267831777557
1735578732959,147,-103,971,987.4507582659502,9840,-4149,-5327,11933.848080145817
1735578732991,147,-103,971,987.4507582659502,9848,-4147,-7028,12789.58548976471
1735578733020,147,-103,971,987.4507582659502,9854,-4144,-8729,13801.06854558733
1735578733049,143,-107,977,993.190314088896,9862,-4138,-10433,14940.869352216423
1735578733079,143,-107,977,993.190314088896,9870,-4129,-12138,16180.129325811955
1735578733109,143,-107,977,993.190314088896,9873,-4119,-13842,17494.091974149444
1735578733139,153,-106,974,991.6254333164312,9874,-4109,-15545,18868.67197234612
1735578733169,153,-106,974,991.6254333164312,9864,-4101,-17236,20277.978030365848
1735578733199,153,-106,974,991.6254333164312,9854,-4096,17073,20133.69963518876
1735578733229,154,-109,979,997.0145435248174,9844,-4092,15382,18715.093480931373
1735578733258,154,-109,979,997.0145435248174,9838,-4091,13692,17349.16104599874
1735578733289,154,-109,979,997.0145435248174,9833,-4090,12001,16044.936584480476
1735578733320,154,-109,979,997.0145435248174,9828,-4091,10311,14820.343653235575
1735578733349,144,-101,964,979.9147922140986,9823,-4091,8614,13690.456749137335
1735578733379,144,-101,964,979.9147922140986,9819,-4092,6913,12686.480757089414
1735578733409,144,-101,964,979.9147922140986,9816,-4094,5213,11844.410538308777
1735578733439,151,-105,972,989.2471885226664,9814,-4097,3511,11199.42525311009
1735578733469,151,-105,972,989.2471885226664,9813,-4102,1817,10789.942631914222
1735578733499,151,-105,972,989.2471885226664,9813,-4106,123,10638.107632469226
1735578733529,148,-101,974,990.3438796700872,9814,-4111,-1570,10755.4552204916
1735578733559,148,-101,974,990.3438796700872,9815,-4114,-3268,11132.791428927429
1735578733589,148,-101,974,990.3438796700872,9817,-4118,-4966,11747.023835848806
1735578733620,148,-101,974,990.3438796700872,9819,-4120,-6665,12562.22058395728
1735578733649,151,-96,976,992.2665972408827,9817,-4123,-8362,13538.67283008198
1735578733679,151,-96,976,992.2665972408827,9815,-4127,-10058,14646.833036530457
1735578733709,151,-96,976,992.2665972408827,9813,-4132,-11754,15859.536846957417
1735578733739,147,-107,974,990.8249088512057,9817,-4136,-13451,17158.361984758336
1735578733769,147,-107,974,990.8249088512057,9829,-4137,-15151,18527.73086484149
1735578733799,147,-107,974,990.8249088512057,9839,-4136,-16851,19946.644279176384
1735578733829,150,-102,969,985.8321358121777,9847,-4134,17448,20456.93205248529
1735578733859,150,-102,969,985.8321358121777,9846,-4131,15752,19029.828717043147
1735578733890,150,-102,969,985.8321358121777,9846,-4128,14055,17650.13101934374
1735578733919,150,-102,969,985.8321358121777,9844,-4125,12359,16329.8757496804
1735578733949,158,-108,972,990.6624046566014,9843,-4123,10669,15090.107322348638
1735578733979,158,-108,972,990.6624046566014,9841,-4122,8981,13946.129427192334
1735578734009,158,-108,972,990.6624046566014,9840,-4121,7294,12923.2610822501
1735578734039,150,-106,965,982.3242845415153,9838,-4120,5605,12048.928126601139
1735578734069,150,-106,965,982.3242845415153,9839,-4118,3910,11360.103212559294
1735578734100,150,-106,965,982.3242845415153,9840,-4117,2215,10894.104552463226
1735578734130,147,-109,966,983.1815702096943,9840,-4114,520,10678.061434548876
1735578734160,147,-109,966,983.1815702096943,9844,-4111,-1179,10732.879296814997
1735578734190,147,-109,966,983.1815702096943,9846,-4106,-2878,11049.245947122365
1735578734220,147,-109,966,983.1815702096943,9847,-4102,-4577,11607.701839726931
1735578734249,150,-104,974,990.955094845372,9842,-4098,-6273,12369.684595817309
1735578734280,150,-104,974,990.955094845372,9835,-4095,-7967,13302.982334799968
1735578734310,150,-104,974,990.955094845372,9829,-4095,-9661,14377.523674124137
1735578734339,151,-104,966,983.2461543275925,9824,-4096,-11356,15564.283729102344
1735578734369,151,-104,966,983.2461543275925,9820,-4098,-13050,16838.304665256535
1735578734400,151,-104,966,983.2461543275925,9818,-4101,-14744,18182.322761407577
1735578734429,145,-107,970,986.5971822380196,9816,-4105,-16438,19580.927582727025
1735578734459,145,-107,970,986.5971822380196,9821,-4107,17860,20791.803433083915
1735578734489,145,-107,970,986.5971822380196,9826,-4108,16160,19353.850779625227
1735578734519,145,-107,970,986.5971822380196,9830,-4108,14459,17960.157154100852
1735578734549,144,-104,970,986.1298088994166,9834,-4106,12757,16622.510069180287
1735578734579,144,-104,970,986.1298088994166,9836,-4105,11054,15355.417187429328
1735578734609,144,-104,970,986.1298088994166,9837,-4102,9351,14178.652051587978
1735578734639,144,-99,977,992.5049118266368,9835,-4100,7650,13117.153845251645
1735578734669,144,-99,977,992.5049118266368,9830,-4099,5950,12199.721349276793
1735578734699,144,-99,977,992.5049118266368,9825,-4099,4250,11462.76258150713
1735578734729,145,-106,975,991.4060722025057,9821,-4100,2549,10943.465721607576
1735578734759,145,-106,975,991.4060722025057,9825,-4101,848,10680.258891993208
1735578734788,145,-106,975,991.4060722025057,9828,-4101,-853,10683.416775545173
1735578734819,145,-106,975,991.4060722025057,9831,-4101,-2555,10954.213207711451
1735578734849,140,-104,974,989.4907781278207,9833,-4099,-4259,11472.958249727923
1735578734879,140,-104,974,989.4907781278207,9834,-4098,-5965,12209.929770477798
1735578734909,140,-104,974,989.4907781278207,9835,-4095,-7671,13127.851728291267
1735578734939,149,-96,968,984.0939995752439,9832,-4094,-9373,14187.395426927382
1735578734969,149,-96,968,984.0939995752439,9821,-4095,-11069,15353.951510930337
1735578734999,149,-96,968,984.0939995752439,9812,-4099,-12766,16614.689313977557
1735578735029,146,-105,965,981.6139770806037,9807,-4104,-14462,17949.081007115656
1735578735059,146,-105,965,981.6139770806037,9812,-4108,-16162,19348.41729961394
1735578735120,146,-105,965,981.6139770806037,9817,-4110,-17862,20792.225301780472
1735578735121,146,-105,965,981.6139770806037,9822,-4112,16437,19584.565274725912
1735578735150,150,-103,972,988.8847253345559,9823,-4114,14739,18183.90623600991
1735578735179,150,-103,972,988.8847253345559,9824,-4117,13043,16839.84898982173
1735578735210,150,-103,972,988.8847253345559,9825,-4119,11346,15563.691785691466
1735578735238,141,-107,971,987.001013170706,9830,-4120,9646,14375.277945139009
1735578735269,141,-107,971,987.001013170706,9840,-4118,7940,13297.636030513093
1735578735299,141,-107,971,987.001013170706,9847,-4115,6234,12359.586967208896
1735578735329,157,-100,972,989.6630739802309,9852,-4110,4528,11595.550353476112
1735578735359,157,-100,972,989.6630739802309,9839,-4109,2841,11034.540452597017
1735578735389,157,-100,972,989.6630739802309,9827,-4111,1154,10714.567933425968
1735578735419,157,-100,972,989.6630739802309,9818,-4115,-532,10658.769769537195
1735578735449,141,-108,970,986.1262596645523,9824,-4117,-2233,10883.333772332813
1735578735480,141,-108,970,986.1262596645523,9835,-4117,-3940,11366.640400751667
1735578735510,141,-108,970,986.1262596645523,9843,-4114,-5646,12070.085376665735
1735578735539,151,-96,964,980.4657056725646,9843,-4110,-7348,12952.600240878277
1735578735569,151,-96,964,980.4657056725646,9833,-4109,-9042,13976.034272997473
1735578735599,151,-96,964,980.4657056725646,9824,-4110,-10736,15121.665648995153
1735578735629,148,-100,974,990.2423945681179,9816,-4113,-12430,16363.84811100372
1735578735659,148,-100,974,990.2423945681179,9816,-4116,-14128,17688.85796200535
1735578735690,148,-100,974,990.2423945681179,9817,-4120,-15825,19072.97863470727
1735578735720,148,-100,974,990.2423945681179,9818,-4123,-17523,20504.82338377973
1735578735750,144,-105,968,984.2687641086656,9825,-4125,16775,19873.270364990258
1735578735780,144,-105,968,984.2687641086656,9833,-4125,15073,18463.446130124245
1735578735809,144,-105,968,984.2687641086656,9839,-4123,13371,17105.224085056587
1735578735839,145,-101,966,982.0295311241917,9843,-4121,11670,15813.165084827262
1735578735869,145,-101,966,982.0295311241917,9842,-4118,9969,14601.501600862837
1735578735900,145,-101,966,982.0295311241917,9841,-4116,8268,13496.168382174254
1735578735929,154,-107,970,987.9600194339849,9840,-4114,6567,12525.018363259991
1735578735959,154,-107,970,987.9600194339849,9840,-4113,4875,11726.380259909705
1735578735989,154,-107,970,987.9600194339849,9839,-4112,3183,11128.609706517702
1735578736019,154,-107,970,987.9600194339849,9838,-4112,1491,10766.51610317841
1735578736049,145,-105,968,984.4155626563407,9838,-4110,-205,10663.975290669048
1735578736079,145,-105,968,984.4155626563407,9840,-4107,-1906,10831.707390804093
1735578736109,145,-105,968,984.4155626563407,9840,-4104,-3607,11255.170589555717
1735578736139,143,-104,970,985.9842797935472,9840,-4101,-5308,11908.764209606301
1735578736169,143,-104,970,985.9842797935472,9839,-4098,-7011,12757.49371937921
1735578736199,143,-104,970,985.9842797935472,9838,-4096,-8713,13765.167234726936
1735578736229,151,-109,974,991.6440893788456,9837,-4093,-10416,14900.07630852943
1735578736259,151,-109,974,991.6440893788456,9834,-4092,-12110,16127.743797568213
1735578736289,151,-109,974,991.6440893788456,9832,-4092,-13803,17433.745925646617
1735578736319,151,-109,974,991.6440893788456,9830,-4092,-15497,18802.403383610297
