Timestamp,Acc_X,Acc_Y,Acc_Z,Acc_Betrag,Ori_X,Ori_Y,Ori_Z,Ori_Betrag
1735581092191,20,-157,894,907.9014263674223,10222,-3734,-2538,11174.68048760232
1735581092191,45,-96,1000,1005.6047931468903,10188,-3582,-4386,11656.031228509986
1735581092195,45,-96,1000,1005.6047931468903,10032,-3434,-6148,12256.887206791127
1735581092225,45,-96,1000,1005.6047931468903,9870,-3324,-7913,13079.810587313565
1735581092255,45,-96,1000,1005.6047931468903,9712,-3253,-9682,14094.185928956664
1735581092285,-2,-209,1018,1039.2348146593242,9665,-3220,-11461,15334.117059681004
1735581092315,-2,-209,1018,1039.2348146593242,9653,-3187,-13257,16705.85008312956
1735581092345,-2,-209,1018,1039.2348146593242,9635,-3157,-15052,18148.349181123886
1735581092375,196,-59,912,934.6876483617401,9522,-3135,-16789,19554.212589618637
1735581092405,196,-59,912,934.6876483617401,9279,-3175,17598,20146.21726280147
1735581092435,196,-59,912,934.6876483617401,9088,-3265,15986,18676.299553177018
1735581092465,99,-36,1030,1035.3728796911769,8964,-3394,14358,17263.391787247372
1735581092495,99,-36,1030,1035.3728796911769,8953,-3541,12596,15854.151065257325
1735581092525,99,-36,1030,1035.3728796911769,8981,-3684,10829,14542.95217622612
1735581092555,99,-36,1030,1035.3728796911769,9041,-3815,9055,13352.412928006683
1735581092585,135,-18,993,1002.2963633576647,9063,-3925,7325,12296.309161695635
1735581092615,135,-18,993,1002.2963633576647,9096,-4030,5603,11418.043834212584
1735581092645,135,-18,993,1002.2963633576647,9150,-4124,3874,10758.148167784268
1735581092675,166,-44,916,931.959226575927,9204,-4191,2162,10341.776491493132
1735581092705,166,-44,916,931.959226575927,9258,-4242,475,10194.64334834721
1735581092735,166,-44,916,931.959226575927,9314,-4280,-1213,10321.83922564191
1735581092765,110,-32,1043,1049.2726051889472,9382,-4302,-2905,10722.320317916267
1735581092795,110,-32,1043,1049.2726051889472,9495,-4290,-4663,11415.020543126499
1735581092825,110,-32,1043,1049.2726051889472,9583,-4256,-6416,12292.78166242287
1735581092855,110,-32,1043,1049.2726051889472,9646,-4205,-8164,13318.342126556143
1735581092886,119,46,990,998.1868562548798,9610,-4148,-9861,14380.449401878928
1735581092915,119,46,990,998.1868562548798,9546,-4104,-11553,15538.363523872133
1735581092945,119,46,990,998.1868562548798,9484,-4074,-13245,16792.07423161296
1735581092975,59,-113,916,924.8275514927094,9483,-4048,-14969,18176.48354330397
1735581093005,59,-113,916,924.8275514927094,9581,-3995,-16739,19696.438942103214
1735581093036,59,-113,916,924.8275514927094,9646,-3924,17497,20361.436614345264
1735581093065,128,10,906,915.0519110957586,9699,-3838,15722,18867.48867761685
1735581093095,128,10,906,915.0519110957586,9614,-3763,13990,17387.04302059439
1735581093125,128,10,906,915.0519110957586,9527,-3709,12257,15961.029384096753
1735581093155,216,-86,1089,1113.5407491421229,9435,-3680,10524,14605.348369689784
1735581093185,216,-86,1089,1113.5407491421229,9367,-3685,8884,13425.549150779643
1735581093215,216,-86,1089,1113.5407491421229,9313,-3704,7242,12365.199108789151
1735581093245,216,-86,1089,1113.5407491421229,9272,-3734,5600,11457.43164937064
1735581093275,25,-104,1046,1051.4547065851195,9292,-3724,3764,10694.724680888237
1735581093305,25,-104,1046,1051.4547065851195,9345,-3696,1863,10220.577772317962
1735581093335,25,-104,1046,1051.4547065851195,9379,-3657,-34,10066.799193388135
1735581093365,42,35,959,960.557130003208,9388,-3623,-1898,10240.267428148543
1735581093395,42,35,959,960.557130003208,9253,-3633,-3683,10600.999339684915
1735581093425,42,35,959,960.557130003208,9146,-3672,-5470,11271.814405853213
1735581093455,16,-10,924,924.1926206154212,9066,-3736,-7252,12195.964742487575
1735581093516,16,-10,924,924.1926206154212,9064,-3814,-9050,13364.3253477308
1735581093517,16,-10,924,924.1926206154212,9083,-3889,-10853,14676.948558879669
1735581093546,16,-10,924,924.1926206154212,9119,-3957,-12660,16096.260745899963
1735581093575,39,-141,1011,1021.5297352500318,9231,-4004,-14487,17638.4961377097
1735581093605,39,-141,1011,1021.5297352500318,9362,-4017,-16307,19227.62549042393
1735581093635,39,-141,1011,1021.5297352500318,9472,-4002,17875,20621.60064107537
1735581093665,119,-49,1045,1052.894581617742,9560,-3966,16023,19075.09593684918
1735581093695,119,-49,1045,1052.894581617742,9563,-3930,14200,17565.189125084875
1735581093725,119,-49,1045,1052.894581617742,9556,-3894,12379,16115.831129668739
1735581093756,191,-48,1015,1033.9293979764768,9532,-3863,10592,14763.883533813181
1735581093785,191,-48,1015,1033.9293979764768,9444,-3857,8946,13568.216574038019
1735581093815,191,-48,1015,1033.9293979764768,9371,-3869,7299,12492.405813133033
1735581093846,191,-48,1015,1033.9293979764768,9313,-3894,5650,11567.960278285882
1735581093875,101,-40,958,964.1395127262444,9281,-3884,3933,10802.356502171182
1735581093906,101,-40,958,964.1395127262444,9268,-3875,2184,10280.141292803324
1735581093936,101,-40,958,964.1395127262444,9256,-3869,434,10041.466675740154
1735581093965,42,-26,1001,1002.2180401489488,9275,-3886,-1308,10140.881865005627
1735581093995,42,-26,1001,1002.2180401489488,9323,-3902,-3082,10566.108886434968
1735581094025,42,-26,1001,1002.2180401489488,9366,-3907,-4855,11249.783553473373
1735581094055,56,-19,1047,1048.6686798031112,9414,-3900,-6648,12166.729223583468
1735581094085,56,-19,1047,1048.6686798031112,9459,-3878,-8466,13273.45927028821
1735581094116,56,-19,1047,1048.6686798031112,9488,-3846,-10281,14509.059962657815
1735581094145,56,-19,1047,1048.6686798031112,9504,-3809,-12094,15846.11412933783
1735581094176,78,-33,992,995.608858940096,9441,-3775,-13859,17188.804117797143
1735581094206,78,-33,992,995.608858940096,9381,-3756,-15617,18601.112493611774
1735581094235,78,-33,992,995.608858940096,9327,-3750,-17376,20074.3818086635
1735581094265,89,23,1061,1064.9746475855657,9338,-3756,16838,19616.932074103737
1735581094296,89,23,1061,1064.9746475855657,9348,-3763,15047,18109.59640632557
1735581094326,89,23,1061,1064.9746475855657,9358,-3766,13255,16656.8287798128
1735581094355,39,-45,958,959.848946449388,9349,-3767,11480,15276.926719729987
1735581094385,39,-45,958,959.848946449388,9394,-3757,9685,14005.76702647877
1735581094415,39,-45,958,959.848946449388,9428,-3737,7892,12850.525942544142
1735581094446,39,-45,958,959.848946449388,9450,-3710,6100,11843.842281962387
1735581094475,93,3,927,931.6581991266969,9384,-3660,4296,10950.373144327092
1735581094505,93,3,927,931.6581991266969,9297,-3633,2511,10292.619637390668
1735581094535,93,3,927,931.6581991266969,9219,-3626,725,9932.948303499823
1735581094565,133,-39,1002,1011.5404094745795,9155,-3663,-984,9909.583745041968
1735581094595,133,-39,1002,1011.5404094745795,9117,-3725,-2635,10195.025208404342
1735581094625,133,-39,1002,1011.5404094745795,9099,-3792,-4289,10750.190044831766
1735581094656,118,-28,926,933.9079183731125,9089,-3851,-5947,11524.188951939308
1735581094686,118,-28,926,933.9079183731125,9070,-3894,-7628,12474.554901879264
1735581094715,118,-28,926,933.9079183731125,9064,-3939,-9310,13577.478300479806
1735581094745,118,-28,926,933.9079183731125,9070,-3984,-10995,14799.566919339228
1735581094775,74,-48,976,979.9775507632816,9155,-4016,-12762,16211.444260151531
1735581094805,74,-48,976,979.9775507632816,9247,-4026,-14544,17698.689810265616
1735581094836,74,-48,976,979.9775507632816,9324,-4017,-16325,19224.43471210532
1735581094877,46,-7,942,943.1484506693524,9379,-3982,17833,20538.691633110422
1735581094894,46,-7,942,943.1484506693524,9403,-3934,15949,18927.84631171756
1735581094925,46,-7,942,943.1484506693524,9409,-3881,14070,17365.377680891364
1735581094956,16,49,1057,1058.2561126683843,9442,-3828,12170,15871.794101487078
1735581094986,16,49,1057,1058.2561126683843,9502,-3759,10192,14432.426996177739
1735581095045,16,49,1057,1058.2561126683843,9528,-3679,8222,13111.792745463908
1735581095045,16,49,1057,1058.2561126683843,9526,-3595,6259,11951.727155520242
1735581095076,91,-114,1062,1071.9706152689075,9436,-3545,4449,11018.108821390357
1735581095106,91,-114,1062,1071.9706152689075,9378,-3511,2666,10362.507466824813
1735581095135,91,-114,1062,1071.9706152689075,9323,-3490,882,9993.815737745019
1735581095165,168,-37,861,878.0170841162488,9141,-3458,-741,9801.261449425783
1735581095195,168,-37,861,878.0170841162488,8873,-3465,-2250,9787.688899837387
1735581095225,168,-37,861,878.0170841162488,8654,-3524,-3760,10072.134431191831
1735581095255,157,0,764,779.9647427929034,8482,-3630,-5216,10598.484797366084
1735581095286,157,0,764,779.9647427929034,8330,-3784,-6568,11262.600942943864
1735581095315,157,0,764,779.9647427929034,8228,-3957,-7917,12084.565445228058
1735581095344,157,0,764,779.9647427929034,8170,-4139,-9264,13026.968833922956
1735581095375,143,-55,859,872.5565884227796,8238,-4299,-10822,14264.001156758226
1735581095405,143,-55,859,872.5565884227796,8348,-4436,-12396,15589.355855839587
1735581095435,143,-55,859,872.5565884227796,8471,-4547,-13979,16966.009872683677
1735581095465,58,17,1105,1106.6517067261948,8819,-4674,-15759,18653.876755248493
1735581095495,58,17,1105,1106.6517067261948,9256,-4733,-17701,20528.03512272911
1735581095525,58,17,1105,1106.6517067261948,9627,-4700,16360,19555.52937151025
1735581095555,172,-30,1076,1090.073392024592,9884,-4587,14432,18083.60166006761
1735581095586,172,-30,1076,1090.073392024592,9952,-4443,12644,16692.911339847222
1735581095615,172,-30,1076,1090.073392024592,9967,-4287,10873,15360.390196866745
1735581095645,172,-30,1076,1090.073392024592,9937,-4131,9115,14102.92008769815
1735581095675,-38,15,1125,1125.741533390325,9962,-3895,7179,12882.177999080746
1735581095705,-38,15,1125,1125.741533390325,9937,-3642,5189,11787.020573495238
1735581095735,-38,15,1125,1125.741533390325,9842,-3403,3213,10898.107266860608
1735581095765,55,-15,1057,1058.536253512368,9636,-3189,1315,10234.815191296811
1735581095795,55,-15,1057,1058.536253512368,9378,-3038,-509,9870.937594777915
1735581095825,55,-15,1057,1058.536253512368,9134,-2956,-2343,9882.183007817655
1735581095855,33,83,1070,1073.7215653976593,8938,-2930,-4161,10285.26445940988
1735581095885,33,83,1070,1073.7215653976593,8741,-2950,-5963,10984.759897239448
1735581095915,33,83,1070,1073.7215653976593,8587,-3016,-7766,11964.26266010572
1735581095946,33,83,1070,1073.7215653976593,8478,-3114,-9571,13159.693043532588
1735581095975,22,18,910,910.4438478017191,8394,-3249,-11376,14506.157761447377
1735581096005,22,18,910,910.4438478017191,8377,-3391,-13187,15986.556195753981
1735581096035,22,18,910,910.4438478017191,8401,-3527,-15003,17552.963823810496
1735581096065,-144,-91,875,891.426945969214,8594,-3643,-16886,19294.177385936928
1735581096095,-144,-91,875,891.426945969214,8936,-3675,17107,19647.065175236734
1735581096125,-144,-91,875,891.426945969214,9219,-3621,15107,18064.41394011995
1735581096155,100,-43,1043,1048.6648654360458,9423,-3511,13140,16546.288103378352
1735581096186,100,-43,1043,1048.6648654360458,9381,-3422,11467,15205.437645789745
1735581096216,100,-43,1043,1048.6648654360458,9327,-3345,9794,13932.135155818723
1735581096245,100,-43,1043,1048.6648654360458,9265,-3282,8121,12749.99568627378
1735581096276,187,-15,1008,1025.3087339918645,9093,-3236,6459,11613.484662236395
1735581096305,187,-15,1008,1025.3087339918645,8923,-3235,4822,10645.977550229945
1735581096335,187,-15,1008,1025.3087339918645,8784,-3270,3184,9898.960147409423
1735581096365,55,9,1023,1024.5169593520645,8707,-3325,1494,9439.253678125195
1735581096395,55,9,1023,1024.5169593520645,8695,-3386,-288,9335.46811895365
1735581096425,55,9,1023,1024.5169593520645,8700,-3446,-2073,9584.479380748857
1735581096455,64,40,998,1000.8496390567366,8742,-3505,-3885,10188.26844954529
1735581096486,64,40,998,1000.8496390567366,8803,-3555,-5738,11093.037365843496
1735581096515,64,40,998,1000.8496390567366,8866,-3589,-7593,12212.310428416075
1735581096545,64,40,998,1000.8496390567366,8926,-3607,-9448,13488.833492930366
1735581096575,59,71,1143,1146.7218494473714,8961,-3637,-11324,14891.617306390868
1735581096605,59,71,1143,1146.7218494473714,8991,-3659,-13203,16387.36009856377
1735581096635,59,71,1143,1146.7218494473714,9020,-3674,-15082,17953.42307193812
1735581096664,31,-52,941,942.9453854810469,9016,-3663,-16931,19528.55821611007
1735581096695,31,-52,941,942.9453854810469,9050,-3635,17221,19790.87077417262
1735581096725,31,-52,941,942.9453854810469,9069,-3600,15377,18211.50433105404
1735581096755,36,-16,1054,1054.7359859225435,9098,-3570,13551,16707.72590749561
1735581096786,36,-16,1054,1054.7359859225435,9127,-3549,11763,15305.740720396383
1735581096816,36,-16,1054,1054.7359859225435,9145,-3521,9977,13984.598492627523
1735581096845,36,-16,1054,1054.7359859225435,9152,-3491,8193,12769.942599714377
1735581096875,19,88,976,980.1433568616378,8989,-3459,6454,11594.003536311346
1735581096905,19,88,976,980.1433568616378,8826,-3470,4706,10587.049258410012
1735581096935,19,88,976,980.1433568616378,8696,-3517,2954,9834.420216769264
1735581096965,86,64,972,977.8936547498404,8573,-3593,1249,9379.01801896126
1735581096995,86,64,972,977.8936547498404,8465,-3693,-397,9244.029586711631
1735581097025,86,64,972,977.8936547498404,8399,-3810,-2047,9447.19588025992
1735581097055,84,100,824,834.28532289619,8398,-3938,-3738,10000.344594062746
1735581097085,84,100,824,834.28532289619,8454,-4063,-5516,10881.375878077184
1735581097116,84,100,824,834.28532289619,8533,-4169,-7303,11980.252877130766
1735581097145,53,-57,1167,1169.592664135681,8675,-4270,-9139,13304.504725843799
1735581097175,53,-57,1167,1169.592664135681,9064,-4334,-11105,14975.335622282393
1735581097205,53,-57,1167,1169.592664135681,9397,-4309,-13069,16663.42854877111
1735581097234,53,-57,1167,1169.592664135681,9654,-4212,-15016,18341.78061148917
1735581097265,84,5,1177,1180.0042372805278,9787,-4062,-16932,19974.42957883904
1735581097296,84,5,1177,1180.0042372805278,9826,-3894,17181,20171.769208475493
1735581097326,84,5,1177,1180.0042372805278,9811,-3722,15309,18560.023868519136
1735581097356,131,-100,1052,1064.8309725022089,9720,-3558,13465,16983.63886215201
1735581097385,131,-100,1052,1064.8309725022089,9609,-3416,11711,15528.98766822873
1735581097416,131,-100,1052,1064.8309725022089,9485,-3303,9955,14141.324513637328
1735581097445,-46,20,900,901.396694025444,9330,-3212,8208,12834.99544214956
1735581097475,-46,20,900,901.396694025444,9122,-3143,6303,11524.631968093385
1735581097505,-46,20,900,901.396694025444,8937,-3130,4392,10438.22460957801
1735581097535,-46,20,900,901.396694025444,8786,-3163,2478,9661.203289445886
1735581097565,206,36,975,997.1745082983218,8647,-3288,861,9291.010386389631
1735581097595,206,36,975,997.1745082983218,8513,-3443,-666,9207.006788310737
1735581097625,206,36,975,997.1745082983218,8432,-3617,-2193,9433.48090579506
1735581097655,64,-18,826,828.6712255170925,8456,-3782,-3818,10019.210747359295
1735581097685,64,-18,826,828.6712255170925,8607,-3914,-5578,10977.883630281385
1735581097715,64,-18,826,828.6712255170925,8766,-4008,-7345,12118.409342813931
1735581097745,182,-73,1075,1092.7387610952583,8937,-4090,-9111,13401.805475382786
1735581097775,182,-73,1075,1092.7387610952583,9098,-4187,-10735,14681.444002549613
1735581097805,182,-73,1075,1092.7387610952583,9253,-4250,-12364,16017.147217903692
1735581097834,182,-73,1075,1092.7387610952583,9397,-4283,-13996,17393.553805936266
1735581097865,348,10,942,1004.2748627741312,9320,-4319,-15451,18553.9635118753
1735581097895,348,10,942,1004.2748627741312,9202,-4380,-16842,19685.379549300033
1735581097925,348,10,942,1004.2748627741312,9114,-4460,17765,20458.53907296413
1735581097955,219,12,1008,1031.58567264188,9062,-4507,16302,19188.22808390603
1735581097986,219,12,1008,1031.58567264188,9082,-4531,14721,17880.730577915434
1735581098016,219,12,1008,1031.58567264188,9103,-4551,13139,16619.552671477053
1735581098045,38,-187,1023,1040.6449923004482,9204,-4605,11502,15434.236132701872
1735581098075,38,-187,1023,1040.6449923004482,9767,-4640,9526,14410.710079659502
1735581098105,38,-187,1023,1040.6449923004482,10229,-4554,7566,13513.538137734322
1735581098135,38,-187,1023,1040.6449923004482,10565,-4372,5643,12750.570889179826
1735581098165,5,-19,977,977.1975235334972,10613,-4060,3671,11941.340377026358
1735581098195,5,-19,977,977.1975235334972,10521,-3749,1716,11300.048583966354
1735581098225,5,-19,977,977.1975235334972,10358,-3466,-224,10924.811028113942
1735581098255,54,-154,1042,1054.701853606032,10098,-3281,-2059,10815.45403577677
1735581098285,54,-154,1042,1054.701853606032,9863,-3183,-3824,11046.86534723765
1735581098315,54,-154,1042,1054.701853606032,9649,-3142,-5596,11588.381293347229
1735581098345,97,-85,916,925.0351344678752,9443,-3131,-7371,12381.641692441273
1735581098374,97,-85,916,925.0351344678752,9149,-3153,-9104,13286.400039137765
1735581098405,97,-85,916,925.0351344678752,8916,-3240,-10841,14405.552297638575
1735581098435,97,-85,916,925.0351344678752,8745,-3375,-12578,15686.67377107078
1735581098465,-229,-206,681,747.4208988247519,8809,-3521,-14469,17301.67283819689
1735581098495,-229,-206,681,747.4208988247519,8989,-3621,-16482,19119.88718585965
1735581098525,-229,-206,681,747.4208988247519,9165,-3670,17500,20092.688346759376
1735581098555,96,-108,812,824.756933890222,9234,-3757,15658,18562.186536073816
1735581098585,96,-108,812,824.756933890222,9141,-3904,14077,17232.5571520886
1735581098615,96,-108,812,824.756933890222,9097,-4065,12492,15979.039332825989
1735581098645,37,-128,1042,1050.484174083551,9190,-4247,10822,14819.203521107334
1735581098675,37,-128,1042,1050.484174083551,9557,-4403,8903,13783.543339794742
1735581098705,37,-128,1042,1050.484174083551,9906,-4474,6967,12910.639062416702
1735581098735,37,-128,1042,1050.484174083551,10211,-4467,5029,12227.405734660153
1735581098765,106,-208,1062,1087.3564273043132,10447,-4388,3169,11765.921723350024
1735581098795,106,-208,1062,1087.3564273043132,10616,-4264,1354,11520.17656114697
1735581098824,106,-208,1062,1087.3564273043132,10716,-4105,-439,11483.745120821866
1735581098855,133,-43,1034,1043.4050028632219,10660,-3915,-2161,11559.963062224722
1735581098885,133,-43,1034,1043.4050028632219,10457,-3753,-3841,11755.302590746016
1735581098915,133,-43,1034,1043.4050028632219,10255,-3634,-5524,12201.86694731589
1735581098945,123,-155,902,923.448969894926,10047,-3565,-7186,12856.517024451063
1735581098975,123,-155,902,923.448969894926,9928,-3540,-8811,13737.92215001963
1735581099005,123,-155,902,923.448969894926,9825,-3541,-10437,14764.83237290556
1735581099035,123,-155,902,923.448969894926,9741,-3562,-12066,15911.105586979178
1735581099065,213,-100,925,954.4600567860344,9658,-3606,-13677,17127.18683847409
1735581099095,213,-100,925,954.4600567860344,9571,-3677,-15257,18382.067865177738
1735581099125,213,-100,925,954.4600567860344,9514,-3763,-16840,19704.364110521303
1735581099155,-30,-199,954,974.9958974272661,9673,-3864,17387,20268.32982759063
1735581099185,-30,-199,954,974.9958974272661,10026,-3876,15386,18768.938382337983
1735581099215,-30,-199,954,974.9958974272661,10310,-3804,13396,17326.838488310554
1735581099245,-39,-117,1002,1009.561290858559,10537,-3655,11392,15942.55493953212
1735581099275,-39,-117,1002,1009.561290858559,10647,-3438,9340,14574.431481193358
1735581099305,-39,-117,1002,1009.561290858559,10664,-3196,7308,13316.988248098742
1735581099335,-39,-117,1002,1009.561290858559,10603,-2956,5288,12211.65381920074
1735581099365,169,-247,1190,1227.0574558674912,10358,-2842,3509,11299.478262291583
1735581099395,169,-247,1190,1227.0574558674912,10141,-2799,1787,10670.87864236118
1735581099425,169,-247,1190,1227.0574558674912,9956,-2807,61,10344.317570531175
1735581099455,87,-291,899,948.9209661505008,9703,-2824,-1579,10228.21714669766
1735581099485,87,-291,899,948.9209661505008,9484,-2873,-3218,10419.016700245758
1735581099515,87,-291,899,948.9209661505008,9315,-2969,-4858,10917.158513093047
1735581099545,63,-114,772,782.910595151196,9205,-3099,-6487,11679.768619283517
1735581099575,63,-114,772,782.910595151196,9024,-3268,-8121,12572.312476231253
1735581099605,63,-114,772,782.910595151196,8910,-3469,-9753,13658.077097454092
1735581099635,63,-114,772,782.910595151196,8861,-3686,-11387,14891.866437757222
1735581099665,-167,-203,972,1006.9170770227308,9095,-3911,-13292,16573.8411359588
1735581099695,-167,-203,972,1006.9170770227308,9423,-4050,-15304,18423.02486021229
1735581099725,-167,-203,972,1006.9170770227308,9732,-4105,-17327,20292.55474305786
1735581099755,57,-273,1021,1058.4039871429056,10014,-4128,16700,19905.039060499228
1735581099785,57,-273,1021,1058.4039871429056,10216,-4134,14880,18516.776501324413
1735581099815,57,-273,1021,1058.4039871429056,10381,-4097,13064,17181.928471507497
1735581099845,97,-208,1011,1036.722720885387,10494,-4014,11274,15916.636202414127
1735581099875,97,-208,1011,1036.722720885387,10468,-3911,9567,14710.623168309356
1735581099905,97,-208,1011,1036.722720885387,10421,-3813,7864,13600.687703200894
1735581099935,97,-208,1011,1036.722720885387,10359,-3725,6163,12616.143428163774
1735581099965,55,-157,842,858.2761793269111,10228,-3617,4397,11705.90799553798
1735581099995,55,-157,842,858.2761793269111,10090,-3539,2615,11007.762988000786
1735581100025,55,-157,842,858.2761793269111,9959,-3493,831,10586.46735223795
1735581100055,125,-161,1018,1038.205182032916,9860,-3513,-914,10506.957932722487
1735581100085,125,-161,1018,1038.205182032916,9778,-3578,-2607,10733.490438808803
1735581100115,125,-161,1018,1038.205182032916,9727,-3659,-4303,11248.049564257797
1735581100145,43,-350,1013,1072.6220210307076,9664,-3744,-5986,11968.401229905354
1735581100175,43,-350,1013,1072.6220210307076,9761,-3795,-7728,13015.418932942574
1735581100205,43,-350,1013,1072.6220210307076,9853,-3825,-9471,14191.972202622157
1735581100235,43,-350,1013,1072.6220210307076,9936,-3835,-11214,15465.610786516
1735581100264,145,-166,810,839.452797958289,9783,-3827,-12850,16597.455166380176
1735581100295,145,-166,810,839.452797958289,9589,-3869,-14454,17771.780946207953
1735581100325,145,-166,810,839.452797958289,9439,-3948,-16060,19042.190656539493
1735581100355,210,-168,1016,1050.9900094672641,9402,-4079,-17700,20453.015547835483
1735581100385,210,-168,1016,1050.9900094672641,9416,-4228,16674,19610.183986898235
1735581100415,210,-168,1016,1050.9900094672641,9462,-4372,15039,18297.96024151326
1735581100445,153,-93,954,970.6564788842652,9569,-4495,13353,17031.541180997097
1735581100475,153,-93,954,970.6564788842652,9732,-4568,11507,15747.68227390939
1735581100505,153,-93,954,970.6564788842652,9888,-4606,9655,14567.319760340266
1735581100535,153,-93,954,970.6564788842652,10025,-4612,7802,13514.524519937799
1735581100565,239,-95,1050,1081.0393147337427,10124,-4606,6033,12653.367180320027
1735581100596,239,-95,1050,1081.0393147337427,10182,-4591,4301,11968.66767856807
1735581100626,239,-95,1050,1081.0393147337427,10226,-4566,2573,11490.855538209502
1735581100655,129,-120,1002,1017.3716135218242,10232,-4506,881,11214.901738312288
1735581100685,129,-120,1002,1017.3716135218242,10258,-4414,-851,11199.73932732365
1735581100715,129,-120,1002,1017.3716135218242,10254,-4318,-2575,11420.169219411768
1735581100745,83,-86,871,879.1621010939905,10197,-4217,-4263,11829.415327901883
1735581100775,83,-86,871,879.1621010939905,10076,-4110,-5944,12399.556927568017
1735581100805,83,-86,871,879.1621010939905,9952,-4029,-7624,13168.163159681762
1735581100835,83,-86,871,879.1621010939905,9832,-3973,-9304,14107.351594115744
1735581100865,92,-62,872,879.0290097602012,9824,-3928,-11068,15311.459238100071
1735581100895,92,-62,872,879.0290097602012,9798,-3889,-12827,16602.92305589591
1735581100925,92,-62,872,879.0290097602012,9767,-3856,-14585,17971.790394949527
1735581100955,130,-63,1085,1094.574803291214,9727,-3838,-16347,19405.390539744363
1735581100985,130,-63,1085,1094.574803291214,9676,-3836,17907,20712.32775426268
1735581101015,130,-63,1085,1094.574803291214,9635,-3845,16161,19204.04048631433
1735581101045,129,-82,1041,1052.1625349726153,9590,-3852,14431,17749.92295757928
1735581101075,129,-82,1041,1052.1625349726153,9542,-3848,12733,16370.28274038051
1735581101105,129,-82,1041,1052.1625349726153,9501,-3854,11034,15062.253251090953
1735581101135,63,-59,950,953.9129939360298,9449,-3860,9365,13852.307605594095
1735581101165,63,-59,950,953.9129939360298,9390,-3857,7685,12732.155120010124
1735581101195,63,-59,950,953.9129939360298,9341,-3865,6004,11757.572963839093
1735581101225,63,-59,950,953.9129939360298,9303,-3884,4322,10968.634782870657
1735581101256,148,-28,837,850.4451775393873,9265,-3891,2635,10388.615451541173
1735581101285,148,-28,837,850.4451775393873,9212,-3914,978,10056.680565673745
1735581101315,148,-28,837,850.4451775393873,9174,-3946,-680,10009.774822642115
1735581101345,158,-8,1106,1117.2573562076018,9197,-3991,-2379,10304.005580355632
1735581101375,158,-8,1106,1117.2573562076018,9294,-4035,-4147,10947.934508390155
1735581101405,158,-8,1106,1117.2573562076018,9385,-4057,-5915,11812.057356785905
1735581101435,94,-31,1057,1061.6242273045582,9451,-4055,-7677,12833.57919677905
1735581101465,94,-31,1057,1061.6242273045582,9540,-4017,-9496,14047.131557723804
1735581101495,94,-31,1057,1061.6242273045582,9600,-3961,-11309,15353.92464485872
1735581101525,94,-31,1057,1061.6242273045582,9634,-3893,-13116,16733.166496512247
1735581101555,91,-22,1008,1012.3383821628023,9593,-3812,-14879,18109.15884297225
1735581101585,91,-22,1008,1012.3383821628023,9538,-3743,-16641,19542.42497746889
1735581101615,91,-22,1008,1012.3383821628023,9476,-3687,17598,20324.324072401523
1735581101645,166,-28,986,1000.2679640976212,9387,-3652,15893,18815.959236775572
1735581101675,166,-28,986,1000.2679640976212,9276,-3647,14255,17393.959008805326
1735581101705,166,-28,986,1000.2679640976212,9185,-3664,12614,16028.166364247658
1735581101735,54,-18,940,941.7218272929645,9102,-3692,10956,14714.319692055084
1735581101765,54,-18,940,941.7218272929645,9078,-3714,9144,13409.571805244193
1735581101795,54,-18,940,941.7218272929645,9064,-3740,7330,12242.2463624941
1735581101825,54,-18,940,941.7218272929645,9059,-3768,5514,11254.665743592743
1735581101855,70,-3,1014,1016.4177290858321,9066,-3817,3744,10525.178430791566
1735581101885,70,-3,1014,1016.4177290858321,9078,-3865,1977,10062.64567596415
1735581101915,70,-3,1014,1016.4177290858321,9100,-3907,207,9905.42770404186
1735581101945,138,-37,967,977.4978260845392,9136,-3946,-1555,10072.508972445743
1735581101975,138,-37,967,977.4978260845392,9171,-3978,-3279,10520.625741846347
1735581102005,138,-37,967,977.4978260845392,9207,-4003,-5003,11217.079254422695
1735581102035,68,-66,973,977.6037029389772,9235,-4019,-6726,12111.014078102626
1735581102065,68,-66,973,977.6037029389772,9316,-4019,-8521,13249.43991269065
1735581102095,68,-66,973,977.6037029389772,9381,-4002,-10315,14505.80538956731
1735581102125,68,-66,973,977.6037029389772,9429,-3971,-12105,15849.476552870761
1735581102155,72,-110,945,954.1011476777502,9440,-3966,-13782,17169.341280317076
1735581102185,72,-110,945,954.1011476777502,9458,-3957,-15456,18547.224832842243
1735581102215,72,-110,945,954.1011476777502,9470,-3945,-17130,19966.99338909091
1735581102245,109,-73,948,957.0339596900415,9469,-3942,17194,20020.863143231363
1735581102275,109,-73,948,957.0339596900415,9440,-3951,15539,18606.034558712396
1735581102305,109,-73,948,957.0339596900415,9418,-3966,13883,17238.490914230282
1735581102335,130,-100,974,987.7125087797563,9426,-3991,12217,15938.401613712713
1735581102365,130,-100,974,987.7125087797563,9487,-4021,10556,14751.296417603437
1735581102395,130,-100,974,987.7125087797563,9544,-4038,8895,13657.02767808574
1735581102425,130,-100,974,987.7125087797563,9595,-4044,7233,12678.101198523382
1735581102455,99,-45,972,978.0644150565953,9607,-4034,5511,11787.227239686184
1735581102485,99,-45,972,978.0644150565953,9608,-4023,3778,11080.229104129572
1735581102516,99,-45,972,978.0644150565953,9606,-4012,2046,10609.311759016227
1735581102545,194,-149,982,1012.0083991746313,9641,-4018,334,10450.108181258222
1735581102575,194,-149,982,1012.0083991746313,9700,-4025,-1316,10584.067318380019
1735581102605,194,-149,982,1012.0083991746313,9750,-4020,-2965,10955.095846226084
1735581102635,85,-61,963,968.6666093140611,9810,-4000,-4641,11566.113478606372
1735581102665,85,-61,963,968.6666093140611,9885,-3938,-6488,12462.552427171571
1735581102695,85,-61,963,968.6666093140611,9929,-3861,-8328,13522.128013001504
1735581102725,85,-61,963,968.6666093140611,9942,-3777,-10161,14709.01131959589
1735581102755,-33,-125,862,871.6409811384501,10000,-3680,-12069,16099.7876072947
1735581102785,-33,-125,862,871.6409811384501,10052,-3557,-14006,17602.925580709587
1735581102815,-33,-125,862,871.6409811384501,10057,-3424,-15935,19151.794955042726
1735581102845,202,-224,1024,1067.4998829039748,10014,-3337,-17728,20632.444086922907
1735581102875,202,-224,1024,1067.4998829039748,9939,-3303,16660,19678.64654898807
1735581102906,202,-224,1024,1067.4998829039748,9871,-3285,15048,18293.992729855338
1735581102935,141,-5,973,983.1759761100757,9780,-3281,13451,16951.187628010022
1735581102965,141,-5,973,983.1759761100757,9503,-3318,11823,15527.377821126141
1735581102996,141,-5,973,983.1759761100757,9283,-3412,10194,14203.290780660656
1735581103026,141,-5,973,983.1759761100757,9123,-3549,8565,13007.065579906945
1735581103056,12,-149,974,985.4039780719378,9166,-3723,6825,12019.022838816807
1735581103086,12,-149,974,985.4039780719378,9306,-3865,5030,11262.360365394103
1735581103116,12,-149,974,985.4039780719378,9460,-3971,3226,10754.88340243631
1735581103145,157,-129,1020,1040.0432683306979,9537,-4055,1501,10471.408453498507
1735581103175,157,-129,1020,1040.0432683306979,9534,-4148,-104,10397.782263540625
1735581103205,157,-129,1020,1040.0432683306979,9552,-4240,-1715,10590.539599095035
1735581103235,66,-176,893,912.5683536042657,9590,-4320,-3347,11037.794571380644
1735581103265,66,-176,893,912.5683536042657,9745,-4353,-5119,11837.136266851032
1735581103295,66,-176,893,912.5683536042657,9880,-4354,-6891,12808.497062497223
1735581103325,66,-176,893,912.5683536042657,9990,-4328,-8659,13910.785923160489
1735581103354,164,-148,967,991.9117904330002,10040,-4324,-10341,15047.752556445099
1735581103386,164,-148,967,991.9117904330002,10051,-4323,-11985,16228.097701209468
1735581103416,164,-148,967,991.9117904330002,10061,-4319,-13628,17481.414874088423
1735581103445,80,-152,951,966.3876033973118,10131,-4287,-15373,18903.56207173664
1735581103475,80,-152,951,966.3876033973118,10232,-4211,-17209,20459.13062669086
1735581103505,80,-152,951,966.3876033973118,10292,-4114,16966,20265.621530069093
1735581103535,82,-162,1002,1018.3182213826874,10306,-4007,15153,18758.54722519844
1735581103565,82,-162,1002,1018.3182213826874,10285,-3900,13348,17296.251877213166
1735581103595,82,-162,1002,1018.3182213826874,10238,-3799,11549,15894.289729333614
1735581103625,82,-162,1002,1018.3182213826874,10175,-3709,9754,14574.90384187834
1735581103656,61,-115,968,976.7138782673255,10150,-3623,7926,13377.97088500345
1735581103685,61,-115,968,976.7138782673255,10099,-3545,6095,12316.892911769592
1735581103715,61,-115,968,976.7138782673255,10037,-3480,4265,11447.357511670543
1735581103746,63,-125,1068,1077.1341606318128,9954,-3440,2465,10816.281292570011
1735581103776,63,-125,1068,1077.1341606318128,9873,-3426,679,10472.566352141199
1735581103805,63,-125,1068,1077.1341606318128,9804,-3430,-1107,10445.514108936908
1735581103835,90,-138,964,977.9775048537671,9719,-3452,-2868,10705.171133615753
1735581103865,90,-138,964,977.9775048537671,9599,-3509,-4548,11186.51804629126
1735581103895,90,-138,964,977.9775048537671,9513,-3589,-6230,11924.386357377054
1735581103925,90,-138,964,977.9775048537671,9462,-3686,-7915,12874.908349188354
1735581103955,27,-151,926,938.6191986103843,9462,-3777,-9665,14043.05515192474
1735581103985,27,-151,926,938.6191986103843,9501,-3860,-11443,15365.898932376198
1735581104015,27,-151,926,938.6191986103843,9554,-3933,-13225,16782.372597460704
1735581104045,121,-164,930,952.0698503786368,9602,-3999,-14988,18243.644071292336
1735581104075,121,-164,930,952.0698503786368,9627,-4066,-16692,19693.510327008742
1735581104105,121,-164,930,952.0698503786368,9665,-4127,17599,20498.028075890616
1735581104136,175,-97,994,1013.9378679189372,9723,-4179,15867,19072.55774666838
1735581104165,175,-97,994,1013.9378679189372,9711,-4234,14153,17678.735418575616
1735581104195,175,-97,994,1013.9378679189372,9716,-4290,12435,16353.408849533482
1735581104225,175,-97,994,1013.9378679189372,9734,-4345,10713,15112.847183770502
1735581104256,132,-107,1032,1045.8953102485928,9837,-4371,8937,13990.789077103549
1735581104286,132,-107,1032,1045.8953102485928,9941,-4371,7145,12999.236400650616
1735581104316,132,-107,1032,1045.8953102485928,10024,-4351,5356,12169.573246420763
1735581104345,42,-83,1003,1007.3043234296177,10103,-4304,3554,11542.35422260121
1735581104375,42,-83,1003,1007.3043234296177,10181,-4223,1701,11152.573290501166
1735581104405,42,-83,1003,1007.3043234296177,10219,-4127,-139,11021.769866949682
1735581104436,151,-78,1004,1018.283359384803,10236,-4025,-1972,11174.30557126482
1735581104466,151,-78,1004,1018.283359384803,10176,-3950,-3681,11519.689101707563
1735581104495,151,-78,1004,1018.283359384803,10109,-3888,-5389,12097.509909068063
1735581104525,151,-78,1004,1018.283359384803,10040,-3841,-7095,12879.98082296709
1735581104555,65,-169,1035,1050.7192774475968,10048,-3787,-8868,13926.417234881339
1735581104585,65,-169,1035,1050.7192774475968,10077,-3717,-10667,15137.599116108207
1735581104615,65,-169,1035,1050.7192774475968,10082,-3643,-12461,16437.600007300334
1735581104646,107,-20,1010,1015.8489060879083,10005,-3573,-14219,17749.54407865171
1735581104676,107,-20,1010,1015.8489060879083,9831,-3545,-15940,19060.4088623513
1735581104705,107,-20,1010,1015.8489060879083,9682,-3555,-17663,20453.86804494446
1735581104735,134,-117,979,995.030652794174,9546,-3600,16623,19504.10841335743
1735581104766,134,-117,979,995.030652794174,9476,-3676,14962,18087.813466530442
1735581104794,134,-117,979,995.030652794174,9436,-3764,13298,16734.473281224
1735581104826,-8,-102,956,961.4593075112435,9422,-3853,11633,15457.890606418458
1735581104855,-8,-102,956,961.4593075112435,9506,-3911,9812,14210.394118390946
1735581104884,-8,-102,956,961.4593075112435,9589,-3948,7988,13089.834567327427
1735581104914,-8,-102,956,961.4593075112435,9667,-3966,6163,12131.059887742704
1735581104944,76,-128,972,983.3331073446068,9673,-3983,4423,11357.559024720056
1735581104974,76,-128,972,983.3331073446068,9672,-4004,2712,10813.627698418324
1735581105004,76,-128,972,983.3331073446068,9676,-4026,999,10527.661326239555
1735581105034,133,-87,959,972.079729240354,9697,-4044,-723,10531.309225352752
1735581105064,133,-87,959,972.079729240354,9671,-4069,-2406,10764.471097086005
1735581105094,133,-87,959,972.079729240354,9656,-4098,-4090,11258.77613242221
1735581105124,155,-191,1029,1057.9919659430311,9651,-4137,-5764,11978.324841145359
1735581105154,155,-191,1029,1057.9919659430311,9728,-4181,-7392,12913.419725231577
1735581105184,155,-191,1029,1057.9919659430311,9801,-4211,-9022,13970.991589719035
1735581105214,155,-191,1029,1057.9919659430311,9869,-4226,-10652,15123.535995262484
1735581105244,172,-164,956,985.0969495435462,9926,-4200,-12346,16388.690978842696
1735581105274,172,-164,956,985.0969495435462,9956,-4167,-14031,17701.830018390752
1735581105304,172,-164,956,985.0969495435462,9972,-4128,-15713,19062.516544255115
1735581105334,70,-186,1008,1027.4044967781676,9992,-4086,-17405,20480.9542014038
1735581105364,70,-186,1008,1027.4044967781676,10110,-4005,16769,19986.282445717614
1735581105394,70,-186,1008,1027.4044967781676,10182,-3901,14955,18507.915874025362
1735581105425,119,-171,963,985.2771183783778,10190,-3788,13169,17076.522040509302
1735581105455,119,-171,963,985.2771183783778,10093,-3704,11474,15723.897131436595
1735581105484,119,-171,963,985.2771183783778,9995,-3642,9779,14449.672314623609
1735581105546,119,-171,963,985.2771183783778,9900,-3602,8082,13277.918812826052
1735581105547,138,-196,1024,1051.6824615823923,9810,-3584,6425,12262.209466486862
1735581105576,138,-196,1024,1051.6824615823923,9736,-3585,4772,11419.8907612989
1735581105606,138,-196,1024,1051.6824615823923,9675,-3602,3118,10784.33831998978
1735581105635,117,-114,868,883.2377935754334,9610,-3627,1437,10371.701789002613
1735581105665,117,-114,868,883.2377935754334,9528,-3669,-269,10213.555012824869
1735581105695,117,-114,868,883.2377935754334,9470,-3727,-1978,10367.444863610319
1735581105726,84,-140,970,983.6442446331905,9451,-3798,-3699,10836.457262408227
1735581105756,84,-140,970,983.6442446331905,9520,-3864,-5476,11642.485645256344
1735581105786,84,-140,970,983.6442446331905,9593,-3913,-7257,12649.160723146813
1735581105816,84,-140,970,983.6442446331905,9666,-3945,-9039,13809.348355371443
1735581105846,80,-103,1016,1024.3363705346012,9744,-3954,-10863,15119.008598449833
1735581105876,80,-103,1016,1024.3363705346012,9802,-3948,-12687,16511.386283410608
1735581105905,80,-103,1016,1024.3363705346012,9847,-3930,-14509,17969.957985482324
1735581105935,75,-125,961,971.9933127341977,9853,-3909,-16296,19440.203342557917
1735581105965,75,-125,961,971.9933127341977,9851,-3888,17930,20824.112105921828
1735581105995,75,-125,961,971.9933127341977,9843,-3869,16158,19311.519204868375
1735581106026,64,-97,989,995.804197621199,9834,-3845,14378,17838.67890287843
1735581106055,64,-97,989,995.804197621199,9805,-3812,12569,16390.519515866483
1735581106115,64,-97,989,995.804197621199,9773,-3785,10760,15020.497794680441
1735581106116,64,-97,989,995.804197621199,9740,-3767,8952,13754.860704492794
1735581106146,183,-107,956,979.2211190533014,9645,-3789,7269,12657.839744600971
1735581106176,183,-107,956,979.2211190533014,9552,-3838,5625,11730.795923550968
1735581106206,183,-107,956,979.2211190533014,9488,-3905,3978,11004.347004706822
1735581106236,164,-61,1003,1018.1483192541252,9445,-3988,2350,10518.301621459617
1735581106266,164,-61,1003,1018.1483192541252,9413,-4082,719,10285.14725222736
1735581106296,164,-61,1003,1018.1483192541252,9410,-4180,-916,10337.28958673404
1735581106326,97,-67,916,923.5550876910376,9443,-4270,-2584,10680.833534888558
1735581106356,97,-67,916,923.5550876910376,9571,-4323,-4388,11381.867772909682
1735581106386,97,-67,916,923.5550876910376,9689,-4349,-6194,12294.55806444461
1735581106416,97,-67,916,923.5550876910376,9793,-4350,-8000,13372.559553054905
1735581106446,89,-107,1002,1011.6194936832723,9955,-4334,-9812,14634.238107943987
1735581106476,89,-107,1002,1011.6194936832723,10093,-4281,-11620,15975.606717743149
1735581106506,89,-107,1002,1011.6194936832723,10188,-4202,-13418,17363.60768964791
1735581106536,111,-152,981,998.8923865962739,10225,-4110,-15190,18766.428136435552
1735581106566,111,-152,981,998.8923865962739,10233,-4015,-16936,20190.65650245182
1735581106596,111,-152,981,998.8923865962739,10215,-3920,17323,20488.995924642084
1735581106626,152,-161,925,951.1309058168597,10163,-3828,15602,19009.538579355365
1735581106656,152,-161,925,951.1309058168597,10059,-3758,13952,17605.804412181795
1735581106686,152,-161,925,951.1309058168597,9959,-3710,12302,16256.844250960885
1735581106715,152,-161,925,951.1309058168597,9866,-3683,10650,14977.48126355029
1735581106746,263,-141,977,1021.5571447550059,9736,-3705,9077,13816.969638817334
1735581106775,263,-141,977,1021.5571447550059,9609,-3762,7541,12780.931343215956
1735581106805,263,-141,977,1021.5571447550059,9516,-3841,6004,11889.304142799947
1735581106835,119,-119,893,908.7194286467084,9493,-3920,4377,11164.299261485246
1735581106866,119,-119,893,908.7194286467084,9547,-3978,2622,10669.79742075734
1735581106896,119,-119,893,908.7194286467084,9605,-4022,865,10448.95851269398
1735581106926,196,-137,966,995.158781300753,9684,-4061,-902,10539.695488959822
1735581106956,196,-137,966,995.158781300753,9760,-4107,-2603,10904.157830845994
1735581106986,196,-137,966,995.158781300753,9833,-4137,-4305,11503.724744620762
1735581107045,196,-137,966,995.158781300753,9900,-4152,-6009,12302.730794421213
1735581107046,174,-166,987,1015.8745001229237,9951,-4164,-7674,13238.261706130454
1735581107076,174,-166,987,1015.8745001229237,10007,-4161,-9347,14311.54705124502
1735581107105,174,-166,987,1015.8745001229237,10052,-4148,-11019,15481.18112419075
1735581107135,258,-115,898,941.3782449154006,10031,-4129,-12643,16658.782998766746
1735581107165,258,-115,898,941.3782449154006,9938,-4133,-14197,17815.732990814606
1735581107196,258,-115,898,941.3782449154006,9862,-4154,-15752,19043.115921508223
1735581107225,223,-156,925,964.2043351904201,9800,-4183,-17313,20329.226694589244
1735581107256,223,-156,925,964.2043351904201,9803,-4202,17077,20134.03938607452
1735581107285,223,-156,925,964.2043351904201,9811,-4220,15467,18796.06900391675
1735581107316,223,-156,925,964.2043351904201,9821,-4236,13856,17503.84166404621
1735581107346,114,-113,940,953.6063128985671,9852,-4242,12162,16216.371727362444
1735581107375,114,-113,940,953.6063128985671,9892,-4234,10427,14983.349058204578
1735581107405,114,-113,940,953.6063128985671,9922,-4219,8693,13849.703751344287
1735581107435,134,-105,1041,1054.8279480559852,9935,-4202,6990,12853.83713137832
1735581107465,134,-105,1041,1054.8279480559852,9928,-4188,5313,12013.846053616635
1735581107495,134,-105,1041,1054.8279480559852,9918,-4176,3637,11359.28998661448
1735581107526,113,-107,956,968.5835018210872,9904,-4158,1949,10916.81185145187
1735581107556,113,-107,956,968.5835018210872,9895,-4122,211,10721.30728969187
1735581107585,113,-107,956,968.5835018210872,9879,-4089,-1524,10799.867499187201
1735581107615,113,-107,956,968.5835018210872,9857,-4060,-3258,11147.134743959992
1735581107645,54,-128,977,986.8277458604415,9912,-4020,-5050,11828.38298331602
1735581107675,54,-128,977,986.8277458604415,9963,-3962,-6858,12727.5675995062
1735581107705,54,-128,977,986.8277458604415,9987,-3894,-8661,13781.013242864256
1735581107735,46,-89,994,999.0360353861116,9971,-3822,-10458,14946.514275910622
1735581107765,46,-89,994,999.0360353861116,9918,-3758,-12255,16207.230269234777
1735581107795,46,-89,994,999.0360353861116,9859,-3708,-14052,17561.544607465483
1735581107826,50,-85,961,966.0465827277689,9795,-3673,-15840,18982.58554570478
1735581107856,50,-85,961,966.0465827277689,9725,-3660,-17612,20448.80849829642
1735581107886,50,-85,961,966.0465827277689,9665,-3663,16615,19567.52460072556
1735581107915,50,-85,961,966.0465827277689,9617,-3679,14841,18063.139566531616
1735581107946,22,-130,982,990.8117883836466,9654,-3697,13010,16617.08834302809
1735581107975,22,-130,982,990.8117883836466,9705,-3701,11169,15252.245310117458
1735581108005,22,-130,982,990.8117883836466,9748,-3693,9329,13988.9954607184
1735581108036,23,-153,971,983.2492054408181,9770,-3675,7493,12849.263558663586
1735581108066,23,-153,971,983.2492054408181,9788,-3651,5660,11881.512740387901
1735581108096,23,-153,971,983.2492054408181,9796,-3623,3829,11124.25215463943
1735581108125,35,-105,950,956.4256374648267,9787,-3601,2014,10621.147113188857
1735581108156,35,-105,950,956.4256374648267,9717,-3605,238,10366.906867528038
1735581108185,35,-105,950,956.4256374648267,9661,-3625,-1538,10432.688531725655
1735581108215,35,-105,950,956.4256374648267,9620,-3656,-3316,10812.335177934507
1735581108245,39,-121,929,937.658253309808,9587,-3687,-5076,11457.325778732138
1735581108275,39,-121,929,937.658253309808,9571,-3724,-6835,12336.50850119271
1735581108305,39,-121,929,937.658253309808,9568,-3763,-8597,13402.059617834864
1735581108335,35,-100,947,952.908180256629,9573,-3806,-10365,14613.73292488952
1735581108364,35,-100,947,952.908180256629,9580,-3849,-12141,15937.223158379882
1735581108396,35,-100,947,952.908180256629,9598,-3890,-13918,17348.32637461032
1735581108425,118,-125,1014,1028.4673062377822,9643,-3930,-15707,18845.216846722673
1735581108456,118,-125,1014,1028.4673062377822,9696,-3974,-17426,20333.975705700053
1735581108485,118,-125,1014,1028.4673062377822,9750,-4006,16852,19877.13359617025
1735581108515,118,-125,1014,1028.4673062377822,9802,-4026,15130,18471.72920979517
1735581108545,118,-141,945,962.7201047033349,9817,-4050,13439,17128.418199004835
1735581108575,118,-141,945,962.7201047033349,9839,-4069,11748,15854.910469630537
1735581108606,118,-141,945,962.7201047033349,9861,-4083,10055,14663.329601424091
1735581108635,94,-112,922,933.5223618103639,9916,-4090,8312,13569.985261598482
1735581108665,94,-112,922,933.5223618103639,9974,-4081,6533,12602.195284949365
1735581108695,94,-112,922,933.5223618103639,10018,-4061,4755,11809.405996916186
1735581108725,80,-187,1020,1040.0812468264198,10042,-4035,2979,11224.857682839458
1735581108756,80,-187,1020,1040.0812468264198,10114,-4001,1189,10941.42211963326
1735581108785,80,-187,1020,1040.0812468264198,10162,-3952,-596,10919.696149618816
1735581108815,145,-81,956,970.3205655864458,10152,-3900,-2348,11125.925040193288
1735581108846,145,-81,956,970.3205655864458,9941,-3901,-3972,11393.77312394801
1735581108876,145,-81,956,970.3205655864458,9769,-3944,-5599,11930.519603101953
1735581108906,145,-81,956,970.3205655864458,9637,-4020,-7230,12700.59325386023
1735581108935,58,-157,895,910.5152387522133,9640,-4076,-8976,13788.109079928256
1735581108965,58,-157,895,910.5152387522133,9694,-4118,-10758,15055.435031907913
1735581108995,58,-157,895,910.5152387522133,9749,-4147,-12543,16418.509646128055
1735581109025,-31,-128,1010,1018.550440577196,9837,-4163,-14355,17893.103783301543
1735581109056,-31,-128,1010,1018.550440577196,10011,-4129,-16320,19585.994026344437
1735581109086,-31,-128,1010,1018.550440577196,10140,-4056,17726,20820.22603143395
1735581109116,131,-143,1042,1059.8933908653266,10202,-3963,15809,19227.86139954207
1735581109146,131,-143,1042,1059.8933908653266,10111,-3919,14121,17804.311921554283
1735581109176,131,-143,1042,1059.8933908653266,10027,-3895,12432,16439.780351330734
1735581109206,131,-143,1042,1059.8933908653266,9952,-3888,10742,15150.888158784619
1735581109235,197,-139,998,1026.7102804589033,9916,-3883,9043,13970.704849791939
1735581109265,197,-139,998,1026.7102804589033,9872,-3892,7367,12918.077914302887
1735581109295,197,-139,998,1026.7102804589033,9838,-3910,5689,12018.280451046232
1735581109325,153,-141,1023,1043.9439640133946,9828,-3934,4006,11318.744453339337
1735581109355,153,-141,1023,1043.9439640133946,9878,-3944,2266,10874.960965447186
1735581109386,153,-141,1023,1043.9439640133946,9921,-3943,526,10688.786928365633
1735581109416,95,-110,1109,1118.4837951441227,9939,-3930,-1206,10755.605840676759
1735581109446,95,-110,1109,1118.4837951441227,9929,-3899,-2988,11077.69768498852
1735581109475,95,-110,1109,1118.4837951441227,9913,-3870,-4768,11660.973072604189
1735581109505,95,-110,1109,1118.4837951441227,9892,-3846,-6548,12470.753144858574
1735581109535,113,-108,944,956.8536983259248,9791,-3825,-8270,13374.872186305183
1735581109565,113,-108,944,956.8536983259248,9701,-3827,-9988,14440.06488905088
1735581109596,113,-108,944,956.8536983259248,9628,-3848,-11707,15638.39304404388
1735581109625,146,-72,987,1000.3344440735808,9565,-3889,-13426,16937.267253013397
1735581109656,146,-72,987,1000.3344440735808,9496,-3952,-15128,18293.406025122822
1735581109686,146,-72,987,1000.3344440735808,9455,-4027,-16834,19723.014728991104
1735581109716,102,-135,1003,1017.1715686156392,9443,-4112,17461,20272.279447560897
1735581109745,102,-135,1003,1017.1715686156392,9543,-4187,15714,18855.49293972449
1735581109775,102,-135,1003,1017.1715686156392,9644,-4241,13963,17491.660470064013
1735581109805,102,-135,1003,1017.1715686156392,9741,-4273,12209,16192.754274674831
1735581109835,70,-69,986,990.8869764004369,9840,-4269,10381,14926.993066254168
1735581109865,70,-69,986,990.8869764004369,9910,-4245,8545,13756.640214819896
1735581109895,70,-69,986,990.8869764004369,9959,-4207,6713,12725.757305559462
1735581109925,32,-47,1029,1030.5697453350745,9992,-4167,4896,11881.698910509389
1735581109956,32,-47,1029,1030.5697453350745,10012,-4121,3069,11253.512607181812
1735581109986,32,-47,1029,1030.5697453350745,10016,-4071,1247,10883.395885476188
1735581110015,132,-99,1019,1032.2722509105822,9995,-4024,-559,10789.118685045596
1735581110045,132,-99,1019,1032.2722509105822,9925,-4007,-2232,10933.594925732341
1735581110075,132,-99,1019,1032.2722509105822,9863,-4005,-3905,11338.775022020676
1735581110105,132,-99,1019,1032.2722509105822,9813,-4014,-5580,11980.966780690113
1735581110135,74,-71,933,938.6191986103843,9799,-4015,-7320,12873.345563605446
1735581110165,74,-71,933,938.6191986103843,9793,-4016,-9082,13946.821465839448
1735581110195,74,-71,933,938.6191986103843,9788,-4018,-10844,15150.630481930446
1735581110225,58,-118,972,980.8526902649551,9836,-4016,-12659,16526.506981210518
1735581110256,58,-118,972,980.8526902649551,9920,-3992,-14508,18022.88900259889
1735581110285,58,-118,972,980.8526902649551,9981,-3951,-16352,19560.640735926827
1735581110315,82,-50,958,962.8021603631765,10006,-3896,17821,20805.934081410524
1735581110345,82,-50,958,962.8021603631765,9919,-3852,16049,19256.034534659517
1735581110375,82,-50,958,962.8021603631765,9838,-3827,14278,17756.504639145624
1735581110405,82,-50,958,962.8021603631765,9766,-3820,12506,16320.759541148813
1735581110435,151,-73,972,986.3640301633064,9664,-3850,10838,15022.571018304423
1735581110466,151,-73,972,986.3640301633064,9580,-3905,9192,13839.013295751976
1735581110495,151,-73,972,986.3640301633064,9523,-3975,7544,12782.804465374567
1735581110526,145,-64,972,984.8375500558456,9482,-4056,5917,11889.9263664667
1735581110556,145,-64,972,984.8375500558456,9460,-4144,4296,11185.703017691825
1735581110585,145,-64,972,984.8375500558456,9462,-4235,2670,10704.838578885718
1735581110645,103,-155,941,959.2262506833307,9483,-4321,1028,10471.633778928674
1735581110646,103,-155,941,959.2262506833307,9619,-4378,-692,10591.076857430504
1735581110675,103,-155,941,959.2262506833307,9745,-4407,-2416,10964.658225407666
1735581110705,103,-155,941,959.2262506833307,9856,-4411,-4139,11564.124610189912
1735581110735,207,-96,1011,1036.4294476711862,9929,-4426,-5809,12325.542503273437
1735581110765,207,-96,1011,1036.4294476711862,9955,-4441,-7439,13197.091611411963
1735581110795,207,-96,1011,1036.4294476711862,9979,-4451,-9069,14199.950809773954
1735581110825,243,-172,1026,1068.320644750442,9994,-4451,-10706,15307.183705698446
1735581110856,243,-172,1026,1068.320644750442,10019,-4446,-12323,16492.531825041297
1735581110886,243,-172,1026,1068.320644750442,10039,-4437,-13940,17742.381181791807
1735581110915,208,-130,975,1005.380027651236,10042,-4419,-15567,19044.705668505354
1735581110945,208,-130,975,1005.380027651236,10012,-4385,-17254,20424.712605077213
1735581110976,208,-130,975,1005.380027651236,9979,-4358,17059,20238.134449597866
1735581111005,208,-130,975,1005.380027651236,9946,-4338,15375,18818.38954321012
1735581111035,216,-103,1035,1062.3040995873075,9890,-4342,13716,17458.34241845428
1735581111065,216,-103,1035,1062.3040995873075,9837,-4360,12058,16160.802362506634
1735581111095,216,-103,1035,1062.3040995873075,9797,-4387,10398,14944.74429356354
1735581111125,38,-103,829,836.2380043982694,9801,-4381,8636,13777.999056466799
1735581111156,38,-103,829,836.2380043982694,9872,-4329,6725,12705.205626041634
1735581111185,38,-103,829,836.2380043982694,9914,-4263,4823,11820.401600622545
1735581111215,-40,-176,971,987.6320164919725,9971,-4205,2934,11212.101587124513
1735581111245,-40,-176,971,987.6320164919725,10192,-4122,976,11037.224469947143
1735581111275,-40,-176,971,987.6320164919725,10342,-3991,-961,11126.929765213763
1735581111305,-40,-176,971,987.6320164919725,10419,-3829,-2879,11467.58226480194
1735581111335,106,-118,977,989.792402476398,10287,-3721,-4621,11875.262144474958
1735581111365,106,-118,977,989.792402476398,10115,-3661,-6315,12473.787355891554
1735581111395,106,-118,977,989.792402476398,9961,-3638,-8012,13290.925814253875
1735581111427,213,-43,912,937.5297328618437,9810,-3654,-9687,14262.741146077075
1735581111456,213,-43,912,937.5297328618437,9622,-3723,-11295,15297.733100038058
1735581111485,213,-43,912,937.5297328618437,9481,-3827,-12906,16465.118462981067
1735581111519,228,-155,1011,1047.9169814446182,9396,-3969,-14521,17745.34355824085
1735581111545,228,-155,1011,1047.9169814446182,9453,-4133,-16127,19144.738885657334
1735581111576,228,-155,1011,1047.9169814446182,9538,-4284,-17743,20594.663119361772
1735581111606,228,-155,1011,1047.9169814446182,9646,-4415,16630,19725.476952408528
1735581111666,157,-126,1008,1027.9051512663996,9783,-4509,14910,18394.191202659604
1735581111667,157,-126,1008,1027.9051512663996,9930,-4569,13154,17102.876278567885
1735581111696,157,-126,1008,1027.9051512663996,10067,-4600,11394,15884.826879761706
1735581111725,55,-130,958,968.3434308136757,10212,-4590,9562,14723.616675260193
1735581111755,55,-130,958,968.3434308136757,10373,-4525,7642,13655.581935604208
1735581111785,55,-130,958,968.3434308136757,10481,-4428,5739,12743.416574843655
1735581111815,-22,-164,1029,1042.2192667572406,10540,-4314,3861,12025.36972404591
1735581111846,-22,-164,1029,1042.2192667572406,10639,-4166,1931,11587.607086883814
1735581111875,-22,-164,1029,1042.2192667572406,10672,-3997,22,11395.96757629645
1735581111906,-22,-164,1029,1042.2192667572406,10647,-3823,-1870,11466.073347053036
1735581111937,106,-95,883,894.3992397134515,10454,-3724,-3593,11664.644915298537
1735581111966,106,-95,883,894.3992397134515,10236,-3686,-5277,12091.692230618508
1735581111996,106,-95,883,894.3992397134515,10049,-3693,-6964,12771.763621364122
1735581112026,141,-188,962,990.2873320405548,9931,-3739,-8663,13698.629529993137
1735581112056,141,-188,962,990.2873320405548,9887,-3805,-10349,14809.88166731929
1735581112087,141,-188,962,990.2873320405548,9867,-3878,-12039,16041.636263174652
1735581112116,65,-181,975,993.7861943094199,9890,-3954,-13764,17403.847620569424
1735581112146,65,-181,975,993.7861943094199,10011,-3999,-15639,18994.484541571535
1735581112175,65,-181,975,993.7861943094199,10122,-4016,-17516,20625.06717564818
1735581112205,65,-181,975,993.7861943094199,10216,-4008,16608,19906.189590175214
1735581112236,191,-104,1055,1077.1824358018469,10195,-4006,14827,18434.369802084366
1735581112265,191,-104,1055,1077.1824358018469,10135,-4027,13090,17037.695090592508
1735581112297,191,-104,1055,1077.1824358018469,10092,-4060,11351,15721.872184953038
1735581112325,166,-155,989,1014.7423318261636,10045,-4111,9664,14532.55799919615
1735581112356,166,-155,989,1014.7423318261636,10039,-4167,7987,13488.423888653559
1735581112386,166,-155,989,1014.7423318261636,10047,-4225,6307,12592.501062140118
1735581112416,175,-64,915,933.7804881234133,10064,-4273,4622,11870.36263136051
1735581112446,175,-64,915,933.7804881234133,10001,-4321,2944,11285.308059596779
1735581112476,175,-64,915,933.7804881234133,9961,-4379,1262,10953.985849908699
1735581112506,175,-64,915,933.7804881234133,9942,-4445,-424,10898.67721331355
1735581112536,117,-148,944,962.6676477372655,10033,-4511,-2140,11206.685950806332
1735581112566,117,-148,944,962.6676477372655,10160,-4549,-3883,11789.685746448036
1735581112596,117,-148,944,962.6676477372655,10273,-4562,-5627,12570.183053559722
1735581112626,72,-126,961,971.895570521854,10390,-4543,-7423,13553.297679900637
1735581112656,72,-126,961,971.895570521854,10495,-4490,-9265,14701.882532519432
1735581112686,72,-126,961,971.895570521854,10563,-4415,-11097,15944.046004700313
1735581112716,50,-120,966,974.7081614514162,10602,-4329,-12922,17266.172969132447
1735581112746,50,-120,966,974.7081614514162,10626,-4231,-14770,18680.63534786759
1735581112776,50,-120,966,974.7081614514162,10618,-4129,-16607,20139.091687561286
1735581112806,113,-130,974,989.113239219858,10575,-4029,17575,20903.207672508062
1735581112837,113,-130,974,989.113239219858,10474,-3962,15853,19409.269151619286
1735581112867,113,-130,974,989.113239219858,10374,-3916,14132,17962.971803128792
1735581112896,113,-130,974,989.113239219858,10282,-3891,12411,16579.8771406787
1735581112926,112,-153,984,1002.1022901879827,10207,-3883,10695,15285.403592970648
1735581112956,112,-153,984,1002.1022901879827,10149,-3889,8979,14097.835401223834
1735581112986,112,-153,984,1002.1022901879827,10104,-3906,7261,13041.080208326302
1735581113016,152,-99,877,895.5635097523793,10071,-3930,5525,12140.657560445397
1735581113047,152,-99,877,895.5635097523793,9983,-3971,3799,11395.680365822833
1735581113076,152,-99,877,895.5635097523793,9920,-4030,2070,10905.604063966379
1735581113107,122,-163,1024,1044.0445392798144,9890,-4108,348,10714.890013434575
1735581113136,122,-163,1024,1044.0445392798144,9969,-4191,-1387,10902.715762597867
1735581113167,122,-163,1024,1044.0445392798144,10055,-4256,-3128,11357.858292829684
1735581113196,122,-163,1024,1044.0445392798144,10143,-4303,-4874,12047.909943222518
1735581113227,49,-107,1029,1035.707970424096,10218,-4314,-6688,12951.73594542446
1735581113256,49,-107,1029,1035.707970424096,10283,-4304,-8528,14035.358527661487
1735581113286,49,-107,1029,1035.707970424096,10332,-4281,-10365,15248.292035503517
1735581113316,40,-116,1000,1007.4998759305134,10384,-4236,-12219,16585.388539313753
1735581113346,40,-116,1000,1007.4998759305134,10426,-4171,-14082,18011.147686918786
1735581113374,40,-116,1000,1007.4998759305134,10441,-4098,-15938,19489.174661847537
1735581113406,152,-136,981,1001.9785426844229,10429,-4028,-17784,21006.17721052548
1735581113436,152,-136,981,1001.9785426844229,10344,-4007,16496,19878.943659057943
1735581113466,152,-136,981,1001.9785426844229,10270,-4002,14776,18434.182379481874
1735581113496,152,-136,981,1001.9785426844229,10209,-4012,13055,17051.476475660398
1735581113526,154,-137,931,953.543916136011,10127,-4047,11416,15787.950912008815
1735581113556,154,-137,931,953.543916136011,10068,-4098,9775,14618.78425177689
1735581113586,154,-137,931,953.543916136011,10031,-4159,8131,13565.817446803565
1735581113616,65,-165,868,885.931148566298,10007,-4217,6468,12639.547539370229
1735581113646,65,-165,868,885.931148566298,10036,-4259,4744,11889.739820534342
1735581113676,65,-165,868,885.931148566298,10071,-4294,3017,11356.309523784565
1735581113706,85,-105,850,860.6683449505971,10108,-4323,1292,11069.293428218443
1735581113736,85,-105,850,860.6683449505971,10082,-4358,-405,10991.037849084134
1735581113765,85,-105,850,860.6683449505971,10069,-4398,-2106,11187.600323572522
1735581113795,85,-105,850,860.6683449505971,10069,-4439,-3810,11644.980978945392
1735581113825,127,-178,995,1018.7433435365357,10191,-4474,-5618,12467.360626852822
1735581113856,127,-178,995,1018.7433435365357,10308,-4484,-7411,13464.176209482703
1735581113886,127,-178,995,1018.7433435365357,10407,-4470,-9201,14592.633415528535
1735581113915,140,-73,1005,1017.3268894509769,10506,-4411,-11074,15889.192333155263
1735581113946,140,-73,1005,1017.3268894509769,10531,-4329,-12971,17259.46241920646
1735581113976,140,-73,1005,1017.3268894509769,10526,-4242,-14859,18697.088570149095
1735581114006,170,-101,1085,1102.8717060474441,10492,-4156,-16721,20172.908590483425
1735581114036,170,-101,1085,1102.8717060474441,10435,-4083,17485,20767.410502997238
1735581114066,170,-101,1085,1102.8717060474441,10369,-4023,15696,19237.076337115264
1735581114096,170,-101,1085,1102.8717060474441,10300,-3977,13909,17758.570043784493
1735581114126,117,-83,1063,1072.6355392210348,10206,-3932,12135,16336.501614482826
1735581114156,117,-83,1063,1072.6355392210348,10124,-3903,10342,14989.52130656613
1735581114186,117,-83,1063,1072.6355392210348,10051,-3892,8548,13756.401019161953
1735581114216,107,-145,1025,1040.7204235528386,9987,-3901,6804,12698.519047511012
1735581114246,107,-145,1025,1040.7204235528386,9963,-3919,5077,11848.875853852129
1735581114276,107,-145,1025,1040.7204235528386,9948,-3942,3349,11212.398003995399
1735581114306,-1,-155,979,991.1947336421839,9938,-3964,1628,10822.547019994878
1735581114336,-1,-155,979,991.1947336421839,10001,-3955,-191,10756.324046810787
1735581114366,-1,-155,979,991.1947336421839,10050,-3932,-2009,10977.212988732614
1735581114396,-1,-155,979,991.1947336421839,10083,-3899,-3824,11466.998997122133
1735581114426,117,-23,975,982.264221072925,9989,-3906,-5522,12063.558388800546
1735581114456,117,-23,975,982.264221072925,9860,-3952,-7179,12820.91825884558
1735581114486,117,-23,975,982.264221072925,9764,-4023,-8840,13771.921616099911
1735581114516,161,-13,958,971.521487153012,9709,-4098,-10546,14908.93695070175
1735581114546,161,-13,958,971.521487153012,9667,-4180,-12251,16155.81288576963
1735581114575,161,-13,958,971.521487153012,9653,-4269,-13963,17503.43220628457
1735581114606,16,-20,887,887.3697087460221,9666,-4348,-15680,18926.14752135257
1735581114636,16,-20,887,887.3697087460221,9811,-4369,-17568,20590.738354901216
1735581114666,16,-20,887,887.3697087460221,9934,-4359,16545,19784.394405692583
1735581114696,16,-20,887,887.3697087460221,10030,-4323,14664,18284.477706513797
1735581114726,39,-109,997,1003.6986599572602,10165,-4276,12804,16898.33769931232
1735581114756,39,-109,997,1003.6986599572602,10277,-4199,10964,15603.128724714155
1735581114786,39,-109,997,1003.6986599572602,10344,-4099,9135,14396.123158684077
1735581114816,146,-92,1019,1033.509071077753,10338,-3992,7356,13301.167016468893
1735581114846,146,-92,1019,1033.509071077753,10254,-3912,5658,12347.518941066663
1735581114876,146,-92,1019,1033.509071077753,10166,-3849,3960,11569.094908418721
1735581114906,135,-118,955,971.6861633264107,10056,-3804,2275,10989.503036989434
1735581114936,135,-118,955,971.6861633264107,9940,-3777,597,10650.152017694396
1735581114966,135,-118,955,971.6861633264107,9839,-3775,-1080,10593.53321607102
1735581114996,135,-118,955,971.6861633264107,9757,-3794,-2761,10826.661812396285
1735581115026,110,-58,889,897.6552790464723,9682,-3816,-4490,11334.155460377275
1735581115056,110,-58,889,897.6552790464723,9616,-3855,-6231,12089.41032474289
1735581115086,110,-58,889,897.6552790464723,9572,-3907,-7975,13057.122883698385
1735581115116,16,-122,998,1005.5565623076606,9601,-3954,-9784,14266.74360181748
1735581115146,16,-122,998,1005.5565623076606,9714,-3968,-11678,15699.76127207035
1735581115176,16,-122,998,1005.5565623076606,9808,-3956,-13570,17204.409318543894
1735581115206,8,-60,1008,1009.815824791828,9879,-3925,-15440,18745.502553946106
1735581115236,8,-60,1008,1009.815824791828,9879,-3890,-17279,20280.300342943643
1735581115266,8,-60,1008,1009.815824791828,9869,-3856,16884,19933.27251105548
1735581115296,8,-60,1008,1009.815824791828,9852,-3824,15050,18389.87166893777
1735581115326,24,-135,1042,1050.9828733143086,9881,-3790,13209,16925.600196152573
1735581115356,24,-135,1042,1050.9828733143086,9910,-3746,11378,15546.687750128644
1735581115386,24,-135,1042,1050.9828733143086,9922,-3697,9549,14258.236005901992
1735581115416,61,-46,982,984.9675121545888,9884,-3646,7738,13071.47336760474
1735581115446,61,-46,982,984.9675121545888,9782,-3619,5952,12008.787990467648
1735581115475,61,-46,982,984.9675121545888,9693,-3616,4166,11152.814039514871
1735581115506,107,-118,914,927.7763739177669,9626,-3633,2375,10559.317686290151
1735581115536,107,-118,914,927.7763739177669,9617,-3662,627,10309.707173339115
1735581115566,107,-118,914,927.7763739177669,9617,-3692,-1120,10362.043862095934
1735581115596,107,-118,914,927.7763739177669,9625,-3721,-2871,10711.167396693976
1735581115626,-26,-45,949,950.4220115296152,9645,-3749,-4677,11355.851134987637
1735581115655,-26,-45,949,950.4220115296152,9674,-3765,-6532,12264.930696909787
1735581115686,-26,-45,949,950.4220115296152,9702,-3774,-8388,13369.009836184578
1735581115716,102,-13,1067,1071.9430955046075,9672,-3783,-10197,14554.637817548055
1735581115745,102,-13,1067,1071.9430955046075,9577,-3821,-11916,15757.856008988025
1735581115776,102,-13,1067,1071.9430955046075,9508,-3878,-13638,17071.496478047844
1735581115806,64,-111,873,882.3525372548095,9464,-3945,-15369,18475.293827162805
1735581115836,64,-111,873,882.3525372548095,9544,-3993,-17155,20033.122821966623
1735581115896,64,-111,873,882.3525372548095,9621,-4024,17055,19990.72890116816
1735581115897,64,-111,873,882.3525372548095,9693,-4037,15265,18527.596795051428
1735581115926,33,-103,1093,1098.3382903277113,9840,-4044,13406,17114.332356244577
1735581115956,33,-103,1093,1098.3382903277113,9965,-4015,11540,15766.83386098807
1735581115986,33,-103,1093,1098.3382903277113,10057,-3960,9679,14508.890033355412
1735581116015,86,-184,1094,1112.6940280238769,10084,-3892,7854,13361.139023301868
1735581116046,86,-184,1094,1112.6940280238769,10090,-3827,6076,12384.337083590708
1735581116075,86,-184,1094,1112.6940280238769,10078,-3760,4302,11584.942295928797
1735581116106,98,-73,923,931.0542411696539,10045,-3702,2552,11005.431976983002
1735581116134,98,-73,923,931.0542411696539,9899,-3677,855,10594.411498521284
1735581116166,98,-73,923,931.0542411696539,9775,-3683,-843,10479.778766748848
1735581116196,98,-73,923,931.0542411696539,9675,-3715,-2545,10671.638815102393
1735581116226,115,-20,956,963.0996833142456,9535,-3783,-4240,11099.7708985366
1735581116256,115,-20,956,963.0996833142456,9420,-3884,-5934,11791.276945267633
1735581116286,115,-20,956,963.0996833142456,9349,-4006,-7632,12716.102429596893
1735581116316,146,-117,1017,1034.0667289880282,9350,-4143,-9329,13842.58610231484
1735581116346,146,-117,1017,1034.0667289880282,9425,-4273,-11013,15112.09194651753
1735581116376,146,-117,1017,1034.0667289880282,9521,-4386,-12707,16472.834789434393
1735581116406,-64,-102,930,937.7632963600144,9641,-4473,-14428,17919.92728779891
1735581116436,-64,-102,930,937.7632963600144,9933,-4477,-16437,19720.116302902476
1735581116466,-64,-102,930,937.7632963600144,10166,-4416,17563,20767.945998581563
1735581116496,-64,-102,930,937.7632963600144,10331,-4306,15585,19187.585100788478
1735581116526,-4,-90,956,960.2353878086352,10365,-4211,13741,17719.504140917714
1735581116556,-4,-90,956,960.2353878086352,10351,-4119,11927,16320.621648699536
1735581116586,-4,-90,956,960.2353878086352,10314,-4030,10121,15001.804458131028
1735581116616,77,-99,901,909.6873089144423,10223,-3952,8359,13784.08190631498
1735581116646,77,-99,901,909.6873089144423,10093,-3908,6659,12707.611656011526
1735581116675,77,-99,901,909.6873089144423,9976,-3891,4958,11800.09410979421
1735581116706,151,-114,928,947.0908087401123,9879,-3904,3265,11112.879104894464
1735581116736,151,-114,928,947.0908087401123,9773,-3964,1669,10677.564609966075
1735581116766,151,-114,928,947.0908087401123,9699,-4043,70,10508.156355898022
1735581116796,86,-105,985,994.3067937010186,9674,-4130,-1555,10633.024075962585
1735581116827,86,-105,985,994.3067937010186,9746,-4195,-3305,11113.305808804147
1735581116856,86,-105,985,994.3067937010186,9822,-4245,-5060,11836.186421309863
1735581116886,86,-105,985,994.3067937010186,9898,-4278,-6817,12757.083404916659
1735581116916,117,-113,987,1000.3134508742747,9986,-4293,-8616,13870.31005421292
1735581116946,117,-113,987,1000.3134508742747,10057,-4292,-10402,15091.922243372446
1735581116976,117,-113,987,1000.3134508742747,10115,-4276,-12187,16404.888600658036
1735581117006,35,-83,1058,1061.8276696338253,10159,-4247,-13975,17791.65295862079
1735581117036,35,-83,1058,1061.8276696338253,10220,-4184,-15865,19330.092627817383
1735581117067,35,-83,1058,1061.8276696338253,10250,-4109,-17745,20900.512098989344
1735581117097,145,-67,1028,1040.3355228002165,10247,-4032,16389,19744.805747335173
1735581117126,145,-67,1028,1040.3355228002165,10136,-3998,14661,18266.565659696407
1735581117156,145,-67,1028,1040.3355228002165,10038,-3987,12933,16849.92884257972
1735581117186,145,-67,1028,1040.3355228002165,9955,-3997,11202,15510.08826538392
1735581117216,94,-88,974,982.4744271481065,9908,-4012,9459,14273.657169765567
1735581117246,94,-88,974,982.4744271481065,9889,-4030,7695,13162.303977647682
1735581117275,94,-88,974,982.4744271481065,9879,-4052,5929,12213.369150238603
1735581117306,-19,-88,890,894.5417821432378,9887,-4067,4139,11464.05595764431
1735581117336,-19,-88,890,894.5417821432378,9936,-4060,2274,10971.726026473683
1735581117366,-19,-88,890,894.5417821432378,9974,-4043,412,10770.15640554955
1735581117396,62,-28,990,992.3346209822572,10006,-4022,-1440,10879.803307045582
1735581117426,62,-28,990,992.3346209822572,9938,-4030,-3189,11188.139478930356
1735581117456,62,-28,990,992.3346209822572,9885,-4051,-4940,11769.76745734596
1735581117486,62,-28,990,992.3346209822572,9848,-4084,-6694,12588.558138246017
1735581117516,-6,-76,876,879.3110939821014,9857,-4103,-8517,13657.757758870963
1735581117546,-6,-76,876,879.3110939821014,9895,-4110,-10366,14908.289003101596
1735581117576,-6,-76,876,879.3110939821014,9928,-4109,-12214,16267.47863069136
1735581117607,30,-50,1031,1032.6475681470422,9960,-4113,-14053,17708.90109521198
1735581117636,30,-50,1031,1032.6475681470422,9968,-4122,-15868,19187.11369643699
1735581117667,30,-50,1031,1032.6475681470422,9978,-4129,-17683,20719.49840126445
1735581117697,115,-44,1028,1035.3477676607024,9998,-4133,16495,19726.295090563763
1735581117726,115,-44,1028,1035.3477676607024,9974,-4151,14754,18286.38818903285
1735581117757,115,-44,1028,1035.3477676607024,9959,-4174,13012,16909.053817408
1735581117786,115,-44,1028,1035.3477676607024,9953,-4199,11268,15609.664762575781
1735581117817,-8,-180,985,1001.3435973730495,10107,-4170,9379,14405.068205322736
1735581117846,-8,-180,985,1001.3435973730495,10278,-4085,7456,13338.532340553813
1735581117877,-8,-180,985,1001.3435973730495,10388,-3963,5549,12426.073957610264
1735581117906,14,-76,967,970.0829861408765,10411,-3834,3685,11690.49622556716
1735581117936,14,-76,967,970.0829861408765,10336,-3724,1853,11141.574439907494
1735581117996,14,-76,967,970.0829861408765,10246,-3632,24,10870.718283535822
1735581117997,64,-117,1002,1010.8357927972278,10146,-3563,-1794,10902.051229011906
1735581118027,64,-117,1002,1010.8357927972278,10045,-3527,-3548,11221.856263559965
1735581118056,64,-117,1002,1010.8357927972278,9955,-3514,-5303,11814.060690550054
1735581118086,64,-117,1002,1010.8357927972278,9878,-3521,-7060,12641.832343454014
1735581118116,115,-76,959,968.8560264559436,9777,-3555,-8804,13628.579162920836
1735581118146,115,-76,959,968.8560264559436,9685,-3617,-10534,14759.643288372521
1735581118176,115,-76,959,968.8560264559436,9624,-3698,-12266,16023.462047884657
1735581118206,184,-166,965,996.3116982149713,9591,-3795,-13967,17362.787650604958
1735581118236,184,-166,965,996.3116982149713,9599,-3900,-15617,18741.43777835628
1735581118266,184,-166,965,996.3116982149713,9632,-4000,-17272,20176.65502505309
1735581118296,145,-127,937,956.6206144548632,9681,-4091,17065,20041.76307114721
1735581118326,145,-127,937,956.6206144548632,9735,-4163,15352,18648.986514017324
1735581118356,145,-127,937,956.6206144548632,9798,-4223,13634,17312.43740782909
1735581118385,145,-127,937,956.6206144548632,9866,-4269,11912,16045.499711757187
1735581118416,202,-99,896,923.8078804600012,9871,-4308,10251,14868.708955386812
1735581118446,202,-99,896,923.8078804600012,9866,-4354,8609,13798.918544581673
1735581118476,202,-99,896,923.8078804600012,9872,-4399,6964,12857.094578480785
1735581118506,208,-157,1074,1105.1646936090567,9904,-4449,5320,12090.707878366758
1735581118536,208,-157,1074,1105.1646936090567,9971,-4492,3678,11538.049618544721
1735581118566,208,-157,1074,1105.1646936090567,10036,-4522,2034,11194.058066670907
1735581118596,193,-132,994,1021.1312354442988,10084,-4532,384,11062.257274173297
1735581118626,193,-132,994,1021.1312354442988,10092,-4518,-1294,11132.619817455368
1735581118656,193,-132,994,1021.1312354442988,10095,-4503,-2971,11446.085575427085
1735581118686,193,-132,994,1021.1312354442988,10094,-4488,-4647,11984.3893878662
1735581118716,145,-79,984,997.7584878115546,10084,-4464,-6342,12721.451017867419
1735581118746,145,-79,984,997.7584878115546,10067,-4441,-8055,13636.348301506529
1735581118776,145,-79,984,997.7584878115546,10048,-4421,-9767,14693.598402025285
1735581118805,248,-53,1002,1033.5942143800921,9992,-4415,-11427,15808.498284150839
1735581118836,248,-53,1002,1033.5942143800921,9882,-4442,-13005,16926.763216870495
1735581118866,248,-53,1002,1033.5942143800921,9797,-4488,-14586,18134.90416296706
1735581118896,133,-108,1004,1018.5131319722883,9739,-4546,-16176,19421.050769718924
1735581118926,133,-108,1004,1018.5131319722883,9843,-4577,-17922,20953.08239853984
1735581118955,133,-108,1004,1018.5131319722883,9937,-4587,16330,19658.41901069361
1735581118986,133,-108,1004,1018.5131319722883,10016,-4580,14584,18275.38541317255
1735581119016,167,-172,930,960.402519780118,10119,-4566,12873,16998.72483452803
1735581119046,167,-172,930,960.402519780118,10207,-4532,11180,15802.350236594555
1735581119076,167,-172,930,960.402519780118,10270,-4483,9492,14685.64785768745
1735581119106,302,-40,994,1039.634551176518,10235,-4442,7869,13653.122353513134
1735581119136,302,-40,994,1039.634551176518,10065,-4452,6355,12708.680261931213
1735581119166,302,-40,994,1039.634551176518,9926,-4490,4837,11919.821517120128
1735581119196,205,-112,1031,1057.1329150111635,9829,-4544,3294,11318.463367436412
1735581119226,205,-112,1031,1057.1329150111635,9912,-4567,1584,11027.886878273643
1735581119256,205,-112,1031,1057.1329150111635,9987,-4574,-126,10985.332084192994
1735581119285,205,-112,1031,1057.1329150111635,10049,-4567,-1834,11189.43457016484
1735581119316,68,44,940,943.4829092251751,10069,-4532,-3629,11622.969758198633
1735581119345,68,44,940,943.4829092251751,10068,-4488,-5473,12306.928820790345
1735581119376,68,44,940,943.4829092251751,10055,-4446,-7312,13203.608786994562
1735581119406,107,-110,912,924.8205231286771,10071,-4426,-9125,14292.660424147773
1735581119436,107,-110,912,924.8205231286771,10144,-4405,-10903,15529.976497084597
1735581119466,107,-110,912,924.8205231286771,10198,-4370,-12676,16845.684313793845
1735581119496,126,-57,924,934.2917103346256,10209,-4319,-14428,18194.631790723328
1735581119526,126,-57,924,934.2917103346256,10106,-4268,-16122,19500.408816227417
1735581119556,126,-57,924,934.2917103346256,10011,-4239,-17815,20870.157330504244
1735581119587,126,-57,924,934.2917103346256,9926,-4227,16489,19704.82494213029
1735581119616,141,-59,958,970.1164878508148,9886,-4239,14794,18291.10584409811
1735581119646,141,-59,958,970.1164878508148,9853,-4260,13102,16937.875102857502
1735581119676,141,-59,958,970.1164878508148,9832,-4287,11408,15658.51388223033
1735581119706,199,-83,869,895.3496523705138,9812,-4320,9734,14480.62498651215
1735581119736,199,-83,869,895.3496523705138,9790,-4365,8101,13435.904361076704
1735581119766,199,-83,869,895.3496523705138,9782,-4413,6465,12528.300682854
1735581119796,149,0,1017,1027.8569939441966,9815,-4462,4809,11805.513542408902
1735581119826,149,0,1017,1027.8569939441966,9873,-4498,3057,11271.795864013862
1735581119856,149,0,1017,1027.8569939441966,9931,-4522,1303,10989.588436333728
1735581119886,149,0,1017,1027.8569939441966,9984,-4535,-451,10974.966150289485
1735581119916,42,17,997,998.0290576932117,10077,-4511,-2287,11274.99086474131
1735581119946,42,17,997,998.0290576932117,10164,-4458,-4157,11851.637397423194
1735581119976,42,17,997,998.0290576932117,10218,-4388,-6017,12643.826833676583
1735581120006,131,-36,1052,1060.7360651924682,10256,-4305,-7865,13622.657082962927
1735581120036,131,-36,1052,1060.7360651924682,10261,-4224,-9653,14707.505090939116
1735581120066,131,-36,1052,1060.7360651924682,10244,-4142,-11434,15900.693569778647
1735581120096,-18,-117,930,937.5035999930881,10200,-4062,-13214,17179.919673851797
1735581120126,-18,-117,930,937.5035999930881,10285,-3931,-15157,18734.156906570417
1735581120156,-18,-117,930,937.5035999930881,10313,-3783,-17085,20311.727720703624
1735581120186,-18,-117,930,937.5035999930881,10291,-3632,16999,20200.547170807033
1735581120216,315,-93,1081,1129.7942290523526,10051,-3585,15394,18730.992018577126
1735581120246,315,-93,1081,1129.7942290523526,9782,-3618,13901,17378.585932117723
1735581120276,315,-93,1081,1129.7942290523526,9567,-3702,12406,16097.861006978535
1735581120306,232,-21,1022,1048.212287659327,9401,-3809,10870,14867.55467452533
1735581120336,232,-21,1022,1048.212287659327,9281,-3935,9265,13691.65479407073
1735581120366,232,-21,1022,1048.212287659327,9210,-4082,7657,12653.71380267469
1735581120396,125,-19,951,959.368021147255,9166,-4229,6048,11767.680357657578
1735581120426,125,-19,951,959.368021147255,9207,-4352,4317,11060.97834732534
1735581120456,125,-19,951,959.368021147255,9273,-4463,2576,10608.613198717352
1735581120486,125,-19,951,959.368021147255,9358,-4558,825,10441.65470603199
1735581120516,67,-112,948,956.9414820144437,9493,-4645,-990,10614.762079293158
1735581120546,67,-112,948,956.9414820144437,9668,-4693,-2837,11114.991767878193
1735581120576,67,-112,948,956.9414820144437,9823,-4706,-4687,11857.728871921468
1735581120606,34,-104,1176,1181.0791675412788,10041,-4677,-6567,12877.169681261485
1735581120636,34,-104,1176,1181.0791675412788,10253,-4588,-8469,14067.612235201821
1735581120666,34,-104,1176,1181.0791675412788,10394,-4459,-10348,15329.677785263459
1735581120696,13,-225,1011,1035.8161033697054,10450,-4311,-12196,16629.180286472332
1735581120726,13,-225,1011,1035.8161033697054,10534,-4155,-14030,18029.699969772097
1735581120756,13,-225,1011,1035.8161033697054,10556,-3983,-15847,19453.04176729182
1735581120787,240,197,802,860.0075581063227,10529,-3789,-17650,20898.29806467503
1735581120817,240,197,802,860.0075581063227,9999,-3691,16778,19877.242414379314
1735581120847,240,197,802,860.0075581063227,9548,-3696,15192,18319.977729244107
1735581120876,240,197,802,860.0075581063227,9178,-3788,13601,16839.591117363867
1735581120906,113,13,795,803.0958846862559,9015,-3949,12004,15522.913450766902
1735581120936,113,13,795,803.0958846862559,8988,-4118,10353,14315.260284046532
1735581120966,113,13,795,803.0958846862559,9005,-4286,8693,13229.817459058157
1735581120996,232,-46,1032,1058.75587365549,9109,-4464,6995,12321.980441471249
1735581121026,232,-46,1032,1058.75587365549,9284,-4655,5371,11692.276168479772
1735581121055,232,-46,1032,1058.75587365549,9479,-4810,3727,11264.016601550265
1735581121086,36,-30,954,955.1502499607064,9699,-4908,2025,11057.11038201211
1735581121116,36,-30,954,955.1502499607064,10090,-4874,-8,11205.536131752018
1735581121146,36,-30,954,955.1502499607064,10387,-4760,-2015,11602.051284147989
1735581121176,36,-30,954,955.1502499607064,10579,-4586,-3984,12199.134928346353
1735581121206,85,-24,1027,1030.7909584391978,10631,-4408,-5845,12907.852261317526
1735581121236,85,-24,1027,1030.7909584391978,10608,-4228,-7667,13754.582400058534
1735581121266,85,-24,1027,1030.7909584391978,10539,-4054,-9474,14739.813872637606
1735581121296,204,-136,1042,1070.4559776095418,10423,-3905,-11204,15792.959507324775
1735581121327,204,-136,1042,1070.4559776095418,10296,-3797,-12835,16886.74184086439
1735581121356,204,-136,1042,1070.4559776095418,10169,-3714,-14467,18069.21265578553
1735581121386,152,-55,1003,1015.9419274742036,10039,-3659,-16094,19318.03918621142
1735581121416,152,-55,1003,1015.9419274742036,9871,-3633,-17766,20646.212388716725
1735581121446,152,-55,1003,1015.9419274742036,9728,-3642,16558,19546.496156600548
1735581121476,152,-55,1003,1015.9419274742036,9614,-3681,14881,18094.831250940144
1735581121506,231,-89,1006,1036.0106177062087,9510,-3763,13264,16749.148187295974
1735581121536,231,-89,1006,1036.0106177062087,9436,-3867,11673,15500.023032240952
1735581121566,231,-89,1006,1036.0106177062087,9398,-3983,10080,14345.490336687693
1735581121596,96,-86,906,915.121849810177,9438,-4102,8387,13275.692712623322
1735581121626,96,-86,906,915.121849810177,9566,-4193,6561,12334.355516199457
1735581121656,96,-86,906,915.121849810177,9696,-4254,4729,11596.222359027099
1735581121686,152,-110,906,925.2242971301607,9791,-4283,2915,11077.228669662823
1735581121716,152,-110,906,925.2242971301607,9803,-4301,1205,10772.624332074334
1735581121746,152,-110,906,925.2242971301607,9818,-4317,-506,10737.115487876621
1735581121776,152,-110,906,925.2242971301607,9834,-4329,-2218,10971.20417274239
1735581121806,96,-151,1040,1055.280531422806,9854,-4372,-3829,11440.146021795352
1735581121836,96,-151,1040,1055.280531422806,9904,-4403,-5464,12137.994933266367
1735581121866,96,-151,1040,1055.280531422806,9952,-4426,-7101,13002.15293711007
1735581121896,153,-115,895,915.2371277434062,9944,-4433,-8732,13956.448294605616
1735581121926,153,-115,895,915.2371277434062,9880,-4451,-10326,14968.369216451068
1735581121956,153,-115,895,915.2371277434062,9832,-4481,-11924,16091.282142825039
1735581121986,561,417,1009,1227.4734213008444,9884,-4528,-13580,17395.765001861804
1735581122016,561,417,1009,1227.4734213008444,9302,-4720,-14816,18119.587743654654
1735581122046,561,417,1009,1227.4734213008444,8824,-4986,-16033,18967.874446020567
1735581122076,561,417,1009,1227.4734213008444,8435,-5304,-17228,19901.900034921287
1735581122106,-3,-77,1117,1119.6548575342315,8990,-5601,16860,19911.074832866256
1735581122135,-3,-77,1117,1119.6548575342315,9929,-5710,14555,18521.262537958908
1735581122166,-3,-77,1117,1119.6548575342315,10725,-5629,12257,17232.101293806278
1735581122196,236,-48,1160,1184.7362575695909,11129,-5455,10229,16069.975326676766
1735581122226,236,-48,1160,1184.7362575695909,11195,-5308,8503,15026.772707404607
1735581122256,236,-48,1160,1184.7362575695909,11202,-5147,6805,14081.350716461826
1735581122286,214,-194,816,865.6142327850207,11101,-4977,5158,13213.920462905777
1735581122316,214,-194,816,865.6142327850207,11001,-4796,3549,12514.752015121994
1735581122346,214,-194,816,865.6142327850207,10877,-4629,1951,11980.950337932296
1735581122377,214,-194,816,865.6142327850207,10737,-4480,360,11639.723751017462
1735581122406,218,-156,877,917.0545240060702,10683,-4344,-1273,11602.471891799609
1735581122436,218,-156,877,917.0545240060702,10596,-4219,-2900,11767.972510165037
1735581122466,218,-156,877,917.0545240060702,10497,-4110,-4523,12146.466070425588
1735581122496,-20,2,958,958.2108327502878,10435,-3995,-6260,12807.687144836103
1735581122526,-20,2,958,958.2108327502878,10378,-3853,-8173,13760.320563126428
1735581122556,-20,2,958,958.2108327502878,10292,-3726,-10079,14879.334024075137
1735581122586,-37,-18,922,922.9176561319,10161,-3634,-11983,16125.884967963773
1735581122616,-37,-18,922,922.9176561319,10013,-3598,-13907,17510.29474337882
1735581122646,-37,-18,922,922.9176561319,9884,-3598,-15834,19009.32970938218
1735581122676,-37,-18,922,922.9176561319,9781,-3629,-17764,20600.905271370964
1735581122706,70,-41,874,877.7568000306235,9665,-3715,16477,19460.343753387297
1735581122736,70,-41,874,877.7568000306235,9579,-3831,14753,18002.355706962353
1735581122766,70,-41,874,877.7568000306235,9537,-3962,13023,16620.7804269234
1735581122796,268,-84,1099,1134.3196198602932,9533,-4101,11297,15340.0944912344
1735581122826,268,-84,1099,1134.3196198602932,9514,-4256,9680,14224.349967573211
1735581122856,268,-84,1099,1134.3196198602932,9535,-4411,8055,13238.43536827521
1735581122886,-6,-232,1150,1173.1837025802906,9565,-4554,6440,12397.650624211024
1735581122916,-6,-232,1150,1173.1837025802906,9920,-4602,4524,11834.330568308458
1735581122946,-6,-232,1150,1173.1837025802906,10222,-4576,2611,11499.84265109745
1735581122976,-6,-232,1150,1173.1837025802906,10455,-4488,715,11400.017280688657
1735581123006,3,-197,925,945.7499669574406,10641,-4353,-1166,11555.909570431919
1735581123036,3,-197,925,945.7499669574406,10736,-4183,-3018,11910.814791608507
1735581123065,3,-197,925,945.7499669574406,10761,-3993,-4849,12460.175400049551
1735581123095,47,-35,937,938.8306556562796,10698,-3820,-6651,13163.411601860667
1735581123126,47,-35,937,938.8306556562796,10517,-3695,-8421,13970.452927518134
1735581123156,47,-35,937,938.8306556562796,10340,-3611,-10194,14962.371369538987
1735581123186,209,-131,1013,1042.5981968140939,10185,-3581,-11949,16103.924583777707
1735581123216,209,-131,1013,1042.5981968140939,10061,-3642,-13502,17227.648969026504
1735581123246,209,-131,1013,1042.5981968140939,9971,-3725,-15057,18439.352347628697
1735581123276,209,-131,1013,1042.5981968140939,9914,-3826,-16613,19720.989858523837
1735581123306,82,-23,998,1001.6271761488903,9875,-3901,17677,20620.614806547354
1735581123336,82,-23,998,1001.6271761488903,9860,-3978,15919,19143.109595883318
1735581123365,82,-23,998,1001.6271761488903,9867,-4057,14155,17725.150577639673
1735581123396,-4,-95,957,961.7120151063934,9917,-4110,12263,16297.857466550626
1735581123426,-4,-95,957,961.7120151063934,10037,-4119,10261,14933.038907067777
1735581123456,-4,-95,957,961.7120151063934,10135,-4100,8262,13703.607882597926
1735581123486,-14,-116,1032,1038.5932793928525,10219,-4061,6267,12656.815199725403
1735581123516,-14,-116,1032,1038.5932793928525,10321,-3998,4265,11861.58800498483
1735581123546,-14,-116,1032,1038.5932793928525,10382,-3913,2275,11325.772291548157
1735581123576,-14,-116,1032,1038.5932793928525,10403,-3816,295,11084.732292662733
1735581123606,108,-114,1023,1034.982608549535,10252,-3734,-1497,11013.049940865609
1735581123636,108,-114,1023,1034.982608549535,10088,-3701,-3249,11225.914038509292
1735581123666,108,-114,1023,1034.982608549535,9948,-3702,-5004,11734.884916350906
1735581123696,31,-109,899,906.1142312092885,9827,-3725,-6757,12494.102728887738
1735581123726,31,-109,899,906.1142312092885,9750,-3760,-8551,13502.581271742081
1735581123756,31,-109,899,906.1142312092885,9697,-3810,-10348,14684.311798650968
1735581123786,25,-113,874,881.629173745969,9684,-3877,-12148,16012.023263785248
1735581123816,25,-113,874,881.629173745969,9729,-3953,-13961,17469.6643070209
1735581123846,25,-113,874,881.629173745969,9786,-4017,-15778,18995.982970091336
1735581123876,25,-113,874,881.629173745969,9850,-4067,-17600,20574.814434157117
1735581123906,35,-127,939,948.1956549151657,9983,-4125,16577,19785.67266988919
1735581123936,35,-127,939,948.1956549151657,10109,-4154,14756,18362.655935348786
1735581123966,35,-127,939,948.1956549151657,10220,-4156,12934,17000.26740966153
1735581123996,124,-192,1009,1034.5631928500065,10300,-4142,11153,15736.440925444356
1735581124027,124,-192,1009,1034.5631928500065,10355,-4125,9442,14607.977751899816
1735581124056,124,-192,1009,1034.5631928500065,10395,-4097,7734,13588.825924265864
1735581124086,159,-119,936,956.8374992651574,10413,-4054,6020,12692.74930816803
1735581124116,159,-119,936,956.8374992651574,10319,-4018,4331,11890.48552414913
1735581124146,159,-119,936,956.8374992651574,10234,-4000,2640,11300.635203385693
1735581124176,159,-119,936,956.8374992651574,10160,-3999,949,10959.84498065552
1735581124206,155,-144,1053,1074.0437607472054,10177,-4010,-803,10967.964168431623
1735581124236,155,-144,1053,1074.0437607472054,10201,-4015,-2557,11256.94785454743
1735581124266,155,-144,1053,1074.0437607472054,10222,-4015,-4311,11798.060433817078
1735581124295,62,-123,979,988.6425036381958,10232,-3997,-6118,12573.772584232625
1735581124326,62,-123,979,988.6425036381958,10250,-3958,-7999,13590.88904376752
1735581124356,62,-123,979,988.6425036381958,10253,-3917,-9876,14764.900067389552
1735581124387,163,-173,1026,1053.1733000793365,10242,-3885,-11719,16041.407357211523
1735581124416,163,-173,1026,1053.1733000793365,10206,-3898,-13393,17283.786882509285
1735581124446,163,-173,1026,1053.1733000793365,10181,-3919,-15068,18602.579014749543
1735581124476,118,-123,944,959.2648226636896,10150,-3943,-16724,19956.500820534646
1735581124506,118,-123,944,959.2648226636896,10091,-3969,17611,20681.599623820202
1735581124536,118,-123,944,959.2648226636896,10049,-4007,15945,19268.665625828893
1735581124566,118,-123,944,959.2648226636896,10024,-4053,14276,17908.421510563123
1735581124597,117,-127,978,993.1273835717149,10015,-4075,12560,16572.852802097772
1735581124627,117,-127,978,993.1273835717149,10014,-4099,10842,15317.668262500007
1735581124655,117,-127,978,993.1273835717149,10020,-4123,9122,14163.70054046611
1735581124686,193,-125,1014,1039.7451610851574,10028,-4144,7399,13133.11543389458
1735581124717,193,-125,1014,1039.7451610851574,9982,-4182,5755,12257.62917533403
1735581124746,193,-125,1014,1039.7451610851574,9954,-4227,4108,11568.288940029117
1735581124776,113,-102,963,974.957434968317,9947,-4270,2450,11098.567880587116
1735581124806,113,-102,963,974.957434968317,9997,-4280,684,10896.158267940127
1735581124836,113,-102,963,974.957434968317,10040,-4280,-1080,10967.515671290377
1735581124866,113,-102,963,974.957434968317,10075,-4271,-2845,11306.683465985947
1735581124896,110,-119,1021,1033.780440906095,10180,-4268,-4660,11981.812216856013
1735581124925,110,-119,1021,1033.780440906095,10269,-4243,-6473,12859.048915063664
1735581124956,110,-119,1021,1033.780440906095,10334,-4199,-8280,13891.780195496904
1735581124986,230,-147,1053,1087.8042103246337,10328,-4169,-10014,14977.59463331813
1735581125016,230,-147,1053,1087.8042103246337,10271,-4173,-11648,16080.524680494726
1735581125046,230,-147,1053,1087.8042103246337,10225,-4187,-13283,17277.72215889583
1735581125076,48,-150,924,937.3259838498024,10180,-4207,-14919,18544.751548618817
1735581125106,48,-150,924,937.3259838498024,10252,-4179,-16756,20083.104366606276
1735581125136,48,-150,924,937.3259838498024,10302,-4135,17411,20648.785678581684
1735581125166,48,-150,924,937.3259838498024,10330,-4082,15585,19138.021031444187
1735581125196,63,-75,974,978.9126620899333,10300,-4043,13790,17680.496288283313
1735581125226,63,-75,974,978.9126620899333,10245,-4018,12002,16283.49940891085
1735581125256,63,-75,974,978.9126620899333,10194,-4004,10214,14975.828791756401
1735581125286,192,-93,988,1010.7704981844296,10110,-4024,8504,13810.238665569832
1735581125316,192,-93,988,1010.7704981844296,9997,-4090,6902,12818.179004835281
1735581125346,192,-93,988,1010.7704981844296,9918,-4177,5296,11994.234823447472
1735581125376,228,-159,956,995.5907793867921,9868,-4276,3679,11366.470032512292
1735581125406,228,-159,956,995.5907793867921,9866,-4382,2084,10994.67762146758
1735581125436,228,-159,956,995.5907793867921,9888,-4487,481,10869.088002219873
1735581125466,228,-159,956,995.5907793867921,9933,-4588,-1128,10999.39166499675
1735581125496,64,-103,961,968.6206687862901,10125,-4639,-2962,11524.295640081436
1735581125526,64,-103,961,968.6206687862901,10322,-4636,-4862,12315.649556560142
1735581125556,64,-103,961,968.6206687862901,10479,-4593,-6755,13286.651760319452
1735581125586,116,-161,962,982.2530223929067,10623,-4534,-8633,14419.915880475864
1735581125616,116,-161,962,982.2530223929067,10741,-4458,-10469,15647.453658662806
1735581125646,116,-161,962,982.2530223929067,10813,-4358,-12290,16939.812070976466
1735581125676,287,-194,1078,1132.2936898172663,10849,-4246,-14109,18297.354945455914
1735581125706,287,-194,1078,1132.2936898172663,10781,-4192,-15757,19547.017010275507
1735581125736,287,-194,1078,1132.2936898172663,10712,-4151,-17404,20853.703771752393
1735581125766,287,-194,1078,1132.2936898172663,10646,-4123,16949,20435.387101789875
1735581125796,239,-223,1052,1101.6142700600788,10570,-4095,15339,19072.98733811775
1735581125826,239,-223,1052,1101.6142700600788,10518,-4074,13711,17754.360619295756
1735581125856,239,-223,1052,1101.6142700600788,10470,-4062,12083,16496.049011808856
1735581125886,238,-136,982,1019.5410732285385,10320,-4065,10530,15294.035602155502
1735581125916,238,-136,982,1019.5410732285385,10112,-4109,9012,14154.595331552224
1735581125946,238,-136,982,1019.5410732285385,9949,-4190,7492,13140.348739664409
1735581125976,19,-108,794,801.5366491932855,9819,-4305,5977,12274.783704815332
1735581126006,19,-108,794,801.5366491932855,9855,-4406,4220,11590.61089848158
1735581126037,19,-108,794,801.5366491932855,9913,-4498,2453,11158.708796272085
1735581126066,19,-108,794,801.5366491932855,9985,-4578,676,11005.238979685993
1735581126096,65,-77,807,813.2668688690078,9995,-4643,-1040,11069.736853240911
1735581126126,65,-77,807,813.2668688690078,10001,-4711,-2745,11390.721970094784
1735581126156,65,-77,807,813.2668688690078,10025,-4778,-4458,11966.773708899153
1735581126186,279,-22,846,891.0897822329689,10112,-4884,-6185,12820.305183575
1735581126216,279,-22,846,891.0897822329689,10127,-5030,-7793,13732.730172838903
1735581126246,279,-22,846,891.0897822329689,10177,-5174,-9419,14800.647485836556
1735581126276,-154,-156,938,963.2735852290356,10286,-5268,-11106,16028.002246069222
1735581126306,-154,-156,938,963.2735852290356,10942,-5081,-13431,18053.688985910885
1735581126336,-154,-156,938,963.2735852290356,11352,-4754,-15639,19900.923119292733
1735581126366,-154,-156,938,963.2735852290356,11529,-4339,-17735,21593.40146896732
1735581126396,246,-90,957,992.2020963493275,11361,-4163,16578,20523.96097248287
1735581126426,246,-90,957,992.2020963493275,11101,-4083,15025,19122.07402454033
1735581126456,246,-90,957,992.2020963493275,10870,-4050,13467,17774.124141571647
1735581126486,145,-215,906,942.3831492551212,10725,-3981,11834,16459.572959223457
1735581126516,145,-215,906,942.3831492551212,10683,-3870,10114,15211.71867344384
1735581126546,145,-215,906,942.3831492551212,10622,-3768,8399,14055.885208694614
1735581126577,151,-178,998,1024.9336563895245,10554,-3689,6696,13031.962745496166
1735581126607,151,-178,998,1024.9336563895245,10465,-3652,5020,12167.733108512859
1735581126636,151,-178,998,1024.9336563895245,10383,-3633,3343,11497.000782812882
1735581126666,151,-178,998,1024.9336563895245,10312,-3632,1665,11058.97793650028
1735581126696,164,-141,970,993.819400092391,10201,-3644,-35,10832.375639720034
1735581126726,164,-141,970,993.819400092391,10103,-3684,-1733,10892.46317414018
1735581126756,164,-141,970,993.819400092391,10032,-3744,-3434,11245.039617538037
1735581126786,65,-183,996,1014.7561283382328,10029,-3796,-5219,11925.955643050162
1735581126816,65,-183,996,1014.7561283382328,10102,-3816,-7098,12922.610572171554
1735581126845,65,-183,996,1014.7561283382328,10166,-3819,-8977,14089.67160724479
1735581126876,149,-154,979,1002.1766311384436,10189,-3815,-10829,15350.47839645397
1735581126905,149,-154,979,1002.1766311384436,10083,-3855,-12543,16548.55773171789
1735581126936,149,-154,979,1002.1766311384436,10006,-3916,-14260,17855.046681540767
1735581126966,149,-154,979,1002.1766311384436,9958,-3992,-15982,19248.95197147107
1735581126996,196,-132,988,1015.8661329131905,9901,-4092,-17615,20617.043677501388
1735581127026,196,-132,988,1015.8661329131905,9862,-4207,16764,19899.487154195707
1735581127056,196,-132,988,1015.8661329131905,9857,-4328,15136,18573.920668507228
1735581127086,147,-149,841,866.655064024898,9864,-4444,13500,17300.220576628497
1735581127117,147,-149,841,866.655064024898,9916,-4547,11827,16089.754317577383
1735581127146,147,-149,841,866.655064024898,9985,-4639,10144,14970.680746044918
1735581127176,98,-150,995,1011.0039564709923,10094,-4715,8434,13973.27509927433
1735581127206,98,-150,995,1011.0039564709923,10293,-4744,6624,13127.404960615788
1735581127236,98,-150,995,1011.0039564709923,10464,-4735,4815,12453.904849483955
1735581127266,98,-150,995,1011.0039564709923,10598,-4693,3014,11976.061497838093
1735581127296,202,-200,956,997.3665324242638,10602,-4648,1285,11647.211382987774
1735581127326,202,-200,956,997.3665324242638,10582,-4613,-398,11550.623229938721
1735581127356,202,-200,956,997.3665324242638,10556,-4582,-2079,11693.848853136422
1735581127386,267,-17,1089,1121.3826287222396,10416,-4557,-3730,11965.458829480798
1735581127416,267,-17,1089,1121.3826287222396,10150,-4589,-5332,12349.560518496195
1735581127446,267,-17,1089,1121.3826287222396,9938,-4665,-6941,12988.593072384707
1735581127476,112,-74,1109,1117.094893014913,9833,-4766,-8575,13890.042116566818
1735581127506,112,-74,1109,1117.094893014913,10045,-4800,-10450,15269.070862367495
1735581127536,112,-74,1109,1117.094893014913,10227,-4793,-12324,16716.619095977512
1735581127566,112,-74,1109,1117.094893014913,10371,-4751,-14191,18207.52929422331
1735581127596,184,-68,1052,1070.1327020514793,10410,-4716,-15929,19604.637130026153
1735581127626,184,-68,1052,1070.1327020514793,10414,-4683,-17635,21008.929292089113
1735581127656,184,-68,1052,1070.1327020514793,10408,-4649,16662,20188.162595937254
1735581127686,129,4,776,786.6593926217369,10268,-4577,15037,18774.773553894065
1735581127716,129,4,776,786.6593926217369,10069,-4512,13416,17370.433529420043
1735581127746,129,4,776,786.6593926217369,9893,-4481,11793,16032.019804129484
1735581127776,107,-17,771,778.5749803326588,9765,-4505,10180,14808.19536608023
1735581127806,107,-17,771,778.5749803326588,9750,-4581,8558,13758.176659717668
1735581127836,107,-17,771,778.5749803326588,9755,-4658,6930,12840.634291186709
1735581127866,107,-17,771,778.5749803326588,9779,-4734,5295,12086.216198628916
1735581127896,151,-68,869,884.6389093861969,9962,-4817,3534,11616.113334502208
1735581127926,151,-68,869,884.6389093861969,10138,-4867,1784,11386.368560695724
1735581127956,151,-68,869,884.6389093861969,10296,-4885,30,11396.128333780733
1735581127986,59,-157,1050,1063.3108670562904,10485,-4840,-1795,11686.866560374512
1735581128016,59,-157,1050,1063.3108670562904,10712,-4715,-3693,12272.588072611254
1735581128046,59,-157,1050,1063.3108670562904,10851,-4546,-5559,13012.025130624364
1735581128076,185,18,1108,1123.4825321294497,10916,-4362,-7385,13882.51868358188
1735581128106,185,18,1108,1123.4825321294497,10712,-4258,-9040,14649.201616470435
1735581128136,185,18,1108,1123.4825321294497,10522,-4193,-10697,15579.458976485672
1735581128166,185,18,1108,1123.4825321294497,10352,-4163,-12356,16648.279460652982
1735581128196,103,-126,929,943.1468602503006,10271,-4102,-14052,17882.35300512771
1735581128226,103,-126,929,943.1468602503006,10241,-4039,-15774,19235.661621062063
1735581128256,103,-126,929,943.1468602503006,10200,-3982,-17494,20638.22569893061
1735581128286,217,-3,940,964.7269043620583,10068,-3935,16858,20026.008414059954
1735581128316,217,-3,940,964.7269043620583,9829,-3944,15304,18611.20074041436
1735581128346,217,-3,940,964.7269043620583,9634,-3997,13748,17256.809351673328
1735581128375,1,-58,859,860.9564448913777,9492,-4078,12171,15964.378753963463
1735581128406,1,-58,859,860.9564448913777,9599,-4121,10313,14679.28509839631
1735581128465,1,-58,859,860.9564448913777,9698,-4140,8454,13515.210690181637
1735581128466,1,-58,859,860.9564448913777,9784,-4137,6596,12503.945017473485
1735581128496,149,-71,909,923.8630850943229,9821,-4158,4811,11699.86008463349
1735581128526,149,-71,909,923.8630850943229,9829,-4185,3080,11117.997391616891
1735581128556,149,-71,909,923.8630850943229,9843,-4209,1347,10789.566210001216
1735581128586,131,-74,882,894.7407445735329,9924,-4230,-385,10794.762665292832
1735581128616,131,-74,882,894.7407445735329,10000,-4233,-2124,11064.793942952576
1735581128646,131,-74,882,894.7407445735329,10063,-4220,-3862,11575.293214428739
1735581128676,199,-140,877,910.1263648527055,10060,-4193,-5578,12243.321975673105
1735581128706,199,-140,877,910.1263648527055,9967,-4183,-7178,12975.448431557192
1735581128736,199,-140,877,910.1263648527055,9889,-4190,-8779,13871.527024808769
1735581128796,213,40,1033,1055.4894599189515,9852,-4206,-10402,14931.642374501205
1735581128797,213,40,1033,1055.4894599189515,9719,-4236,-12052,16051.584376627748
1735581128827,213,40,1033,1055.4894599189515,9617,-4290,-13705,17283.454920819506
1735581128856,213,40,1033,1055.4894599189515,9546,-4362,-15364,18606.602484064628
1735581128886,72,-98,1046,1053.045108245606,9658,-4412,-17134,20157.298033218638
1735581128916,72,-98,1046,1053.045108245606,9829,-4416,17039,20160.303023516288
1735581128946,72,-98,1046,1053.045108245606,9968,-4387,15217,18712.666351965985
1735581128977,68,-88,1028,1033.998065762214,10111,-4332,13359,17304.953799418246
1735581129006,68,-88,1028,1033.998065762214,10225,-4248,11488,15955.25847487279
1735581129036,68,-88,1028,1033.998065762214,10290,-4141,9630,14689.073524222009
1735581129066,11,-66,934,936.3936138184625,10341,-4013,7754,13533.845203784475
1735581129096,11,-66,934,936.3936138184625,10409,-3837,5772,12505.432179656967
1735581129126,11,-66,934,936.3936138184625,10408,-3649,3808,11668.013069927545
1735581129156,11,-66,934,936.3936138184625,10351,-3465,1857,11072.3924695614
1735581129186,20,-231,1129,1152.5632303695968,10301,-3312,-30,10820.390242500498
1735581129216,20,-231,1129,1152.5632303695968,10257,-3163,-1911,10902.409779493706
1735581129247,20,-231,1129,1152.5632303695968,10180,-3028,-3790,11276.758576825168
1735581129277,150,4,1002,1013.1732329666038,9926,-2934,-5572,11755.04215220005
1735581129306,150,4,1002,1013.1732329666038,9511,-2957,-7253,12321.07864596278
1735581129336,150,4,1002,1013.1732329666038,9177,-3071,-8935,13171.279170984115
1735581129396,134,-31,997,1006.4422487157423,8923,-3255,-10590,14225.436864996449
1735581129397,134,-31,997,1006.4422487157423,8780,-3482,-12210,15436.865744055689
1735581129427,134,-31,997,1006.4422487157423,8710,-3728,-13830,16763.978764004685
1735581129456,134,-31,997,1006.4422487157423,8706,-3978,-15456,18179.847524113065
1735581129486,103,-40,894,900.8024200677971,8747,-4209,-17115,19676.100096309736
1735581129516,103,-40,894,900.8024200677971,8847,-4421,17196,19837.264579573464
1735581129546,103,-40,894,900.8024200677971,8984,-4606,15489,18488.824002623856
1735581129576,105,-76,1034,1042.0926062495598,9232,-4764,13704,17196.660606059537
1735581129606,105,-76,1034,1042.0926062495598,9536,-4865,11870,15984.380532257108
1735581129637,105,-76,1034,1042.0926062495598,9816,-4905,10026,14863.833859405184
1735581129666,166,-62,1011,1026.4117107671755,10057,-4890,8174,13851.70115906346
1735581129696,166,-62,1011,1026.4117107671755,10186,-4846,6390,12964.197314141744
1735581129726,166,-62,1011,1026.4117107671755,10276,-4779,4617,12237.307955592194
1735581129756,166,-62,1011,1026.4117107671755,10329,-4695,2856,11699.914615073052
1735581129786,117,-94,1057,1067.6019857606111,10391,-4613,1112,11423.186683233362
1735581129816,117,-94,1057,1067.6019857606111,10436,-4512,-639,11387.561679306067
1735581129846,117,-94,1057,1067.6019857606111,10445,-4402,-2378,11581.472833797954
1735581129876,80,-77,965,971.3670778855952,10390,-4267,-4131,11967.645967357155
1735581129906,80,-77,965,971.3670778855952,10300,-4129,-5908,12571.519597884737
1735581129936,80,-77,965,971.3670778855952,10191,-4010,-7680,13376.059995379805
1735581129966,113,-103,881,894.1694470289175,10064,-3923,-9432,14340.036575964512
1735581129996,113,-103,881,894.1694470289175,9926,-3886,-11117,15401.758373640329
1735581130026,113,-103,881,894.1694470289175,9804,-3878,-12804,16586.130229803453
1735581130056,113,-103,881,894.1694470289175,9703,-3894,-14493,17870.604186764365
1735581130086,13,-65,995,997.2055956521704,9719,-3909,-16329,19400.399042287765
1735581130116,13,-65,995,997.2055956521704,9745,-3913,17797,20664.21551862059
1735581130146,13,-65,995,997.2055956521704,9767,-3912,15925,19086.74037126298
1735581130176,105,-95,1037,1046.6226636185554,9756,-3925,14123,17608.074568220116
1735581130206,105,-95,1037,1046.6226636185554,9723,-3959,12404,16250.219260059232
1735581130236,105,-95,1037,1046.6226636185554,9704,-4000,10683,14976.451682558189
1735581130266,186,-64,963,982.8840216424317,9701,-4040,8950,13803.387301673456
1735581130296,186,-64,963,982.8840216424317,9635,-4094,7285,12754.0301865724
1735581130326,186,-64,963,982.8840216424317,9594,-4160,5616,11869.704798351137
1735581130356,186,-64,963,982.8840216424317,9576,-4233,3943,11187.730511591706
1735581130386,33,-44,887,888.7035501223116,9693,-4287,2119,10808.45867827601
1735581130416,33,-44,887,888.7035501223116,9831,-4302,235,10733.638246186612
1735581130446,33,-44,887,888.7035501223116,9947,-4288,-1646,10956.234252698325
1735581130476,18,-147,962,973.3329337898723,10063,-4269,-3514,11482.008796373568
1735581130506,18,-147,962,973.3329337898723,10210,-4222,-5379,12288.328812332456
1735581130536,18,-147,962,973.3329337898723,10313,-4144,-7234,13261.276748488435
1735581130566,146,-144,958,979.701995506797,10374,-4054,-9069,14363.201349281433
1735581130596,146,-144,958,979.701995506797,10322,-4009,-10741,15426.757468761865
1735581130626,146,-144,958,979.701995506797,10268,-3974,-12413,16592.379847387776
1735581130656,146,-144,958,979.701995506797,10216,-3949,-14084,17841.533370201116
1735581130686,182,-123,884,910.8836369152758,10124,-3951,-15737,19124.82538482378
1735581130715,182,-123,884,910.8836369152758,10038,-3976,-17379,20459.70823350128
1735581130746,182,-123,884,910.8836369152758,9972,-4018,16976,20094.02110081504
1735581130776,140,-103,957,972.6551290154183,9951,-4060,15280,18681.124189941034
1735581130806,140,-103,957,972.6551290154183,9959,-4095,13535,17295.864563530788
1735581130836,140,-103,957,972.6551290154183,9974,-4128,11788,15983.679301087093
1735581130866,72,-101,1016,1023.5433552126651,9988,-4161,10051,14768.096221246664
1735581130896,72,-101,1016,1023.5433552126651,10038,-4182,8263,13657.515769714491
1735581130926,72,-101,1016,1023.5433552126651,10084,-4192,6474,12695.376953836385
1735581130956,72,-101,1016,1023.5433552126651,10125,-4192,4685,11917.957627043319
1735581130986,184,-89,1035,1054.9890994697528,10079,-4209,3010,11329.696465483972
1735581131016,184,-89,1035,1054.9890994697528,10019,-4246,1375,10968.112964407323
1735581131046,184,-89,1035,1054.9890994697528,9979,-4294,-263,10866.832381149532
1735581131077,192,-96,994,1016.9149423624377,9954,-4346,-1900,11026.324500938652
1735581131106,192,-96,994,1016.9149423624377,9943,-4400,-3533,11432.643526324084
1735581131136,192,-96,994,1016.9149423624377,9948,-4455,-5170,12063.939199117343
1735581131166,2,-98,1003,1007.7782494179958,9982,-4504,-6846,12914.877312618963
1735581131196,2,-98,1003,1007.7782494179958,10196,-4479,-8813,14201.719121289507
1735581131226,2,-98,1003,1007.7782494179958,10358,-4408,-10768,15577.81923120178
1735581131256,2,-98,1003,1007.7782494179958,10464,-4304,-12706,17013.58715850364
1735581131286,9,-142,954,964.5522277201998,10526,-4186,-14594,18474.41766335275
1735581131316,9,-142,954,964.5522277201998,10550,-4055,-16465,19971.02275798613
1735581131346,9,-142,954,964.5522277201998,10531,-3919,17675,20944.358357323817
1735581131376,203,-126,998,1026.2012473194525,10437,-3834,15934,19429.948044191988
1735581131406,203,-126,998,1026.2012473194525,10265,-3824,14348,18051.5457786861
1735581131466,203,-126,998,1026.2012473194525,10122,-3849,12760,16735.8084656822
1735581131467,221,-35,939,965.2911477891009,9999,-3888,11159,15479.658458764521
1735581131497,221,-35,939,965.2911477891009,9798,-3945,9555,14242.95804950643
1735581131526,221,-35,939,965.2911477891009,9645,-4039,7947,13133.710633328268
1735581131556,221,-35,939,965.2911477891009,9539,-4161,6336,12184.06081731374
1735581131585,82,-97,923,931.6984490702987,9598,-4285,4602,11474.37288046715
1735581131616,82,-97,923,931.6984490702987,9726,-4379,2805,11028.995511831528
1735581131646,82,-97,923,931.6984490702987,9857,-4445,999,10858.935260880782
1735581131676,44,-162,980,994.2736041955453,10036,-4484,-832,11023.600863601694
1735581131706,44,-162,980,994.2736041955453,10256,-4473,-2696,11509.199841865637
1735581131736,44,-162,980,994.2736041955453,10429,-4416,-4550,12205.228264969075
1735581131766,191,-107,1028,1051.053756950614,10558,-4322,-6396,13078.985587575207
1735581131796,191,-107,1028,1051.053756950614,10506,-4252,-8076,13916.799775810528
1735581131826,191,-107,1028,1051.053756950614,10447,-4191,-9753,14893.800690220076
1735581131855,191,-107,1028,1051.053756950614,10383,-4143,-11428,15986.566923514254
1735581131886,210,-82,1026,1050.4760825454332,10266,-4114,-13080,17128.98572595587
1735581131916,210,-82,1026,1050.4760825454332,10153,-4111,-14728,18354.773602526402
1735581131946,210,-82,1026,1050.4760825454332,10061,-4130,-16377,19659.266263011956
1735581131976,111,-14,995,1001.2701933044846,9987,-4162,17961,20968.06939133882
1735581132006,111,-14,995,1001.2701933044846,9939,-4199,16237,19495.011951778844
1735581132036,111,-14,995,1001.2701933044846,9909,-4244,14510,18075.94857815213
1735581132066,98,-86,996,1004.4978845174339,9874,-4296,12792,16720.84794500566
1735581132096,98,-86,996,1004.4978845174339,9887,-4350,11082,15475.3349882967
1735581132126,98,-86,996,1004.4978845174339,9912,-4401,9367,14330.290785605155
1735581132156,98,-86,996,1004.4978845174339,9945,-4446,7648,13310.215813426918
1735581132186,38,-145,898,910.4246262047177,9984,-4468,5917,12436.002935026994
1735581132216,38,-145,898,910.4246262047177,10049,-4473,4161,11760.27427401249
1735581132246,38,-145,898,910.4246262047177,10104,-4466,2407,11306.176232484615
1735581132276,171,-132,1038,1060.2400671546043,10147,-4467,700,11108.811727633158
1735581132306,171,-132,1038,1060.2400671546043,10133,-4490,-907,11120.271489491612
1735581132366,171,-132,1038,1060.2400671546043,10127,-4516,-2516,11370.164510683211
1735581132367,208,-104,1005,1031.5546519695406,10151,-4534,-4166,11872.468698632143
1735581132396,208,-104,1005,1031.5546519695406,10166,-4539,-5849,12576.202845056214
1735581132427,208,-104,1005,1031.5546519695406,10179,-4542,-7532,13452.614206911607
1735581132456,180,-51,1037,1053.740954884074,10223,-4542,-9246,14513.028939542566
1735581132486,180,-51,1037,1053.740954884074,10297,-4524,-11052,15768.369890384993
1735581132517,180,-51,1037,1053.740954884074,10352,-4492,-12853,17103.84684800469
1735581132546,180,-51,1037,1053.740954884074,10387,-4449,-14649,18500.71812119735
1735581132577,82,-156,1044,1058.77098562437,10531,-4359,-16531,20079.263009383587
1735581132606,82,-156,1044,1058.77098562437,10662,-4220,17570,20980.742217567044
1735581132636,82,-156,1044,1058.77098562437,10724,-4054,15695,19436.360693298528
1735581132666,147,-146,997,1018.2995629970584,10700,-3876,13858,17932.025540914223
1735581132696,147,-146,997,1018.2995629970584,10549,-3734,12140,16510.716429034812
1735581132726,147,-146,997,1018.2995629970584,10393,-3624,10420,15156.656128579285
1735581132756,103,-97,1000,1009.9594051247802,10227,-3547,8716,13897.531939160996
1735581132786,103,-97,1000,1009.9594051247802,10033,-3503,7000,12725.254339304971
1735581132816,103,-97,1000,1009.9594051247802,9865,-3501,5279,11723.611516934532
1735581132846,103,-97,1000,1009.9594051247802,9729,-3535,3556,10945.081178319328
1735581132877,170,-76,977,994.5878543396757,9599,-3604,1871,10422.584036600521
1735581132906,170,-76,977,994.5878543396757,9492,-3705,206,10191.54183624833
1735581132936,170,-76,977,994.5878543396757,9427,-3826,-1461,10278.186902367557
1735581132966,108,-66,995,1003.0179460009676,9434,-3958,-3163,10708.440082477
1735581132996,108,-66,995,1003.0179460009676,9504,-4078,-4923,11453.908896093071
1735581133026,108,-66,995,1003.0179460009676,9594,-4180,-6691,12421.220431181471
1735581133057,62,-92,965,971.3562683176549,9679,-4259,-8456,13539.79534557299
1735581133086,62,-92,965,971.3562683176549,9793,-4305,-10257,14820.32128531632
1735581133116,62,-92,965,971.3562683176549,9898,-4326,-12060,16190.376153752573
1735581133146,62,-92,965,971.3562683176549,9990,-4326,-13863,17626.60333132847
1735581133177,70,-128,977,987.8324756759114,10070,-4320,-15655,19108.802291090877
1735581133206,70,-128,977,987.8324756759114,10141,-4297,-17441,20627.471270129066
1735581133236,70,-128,977,987.8324756759114,10192,-4260,16777,20087.115098988208
1735581133266,59,-93,922,928.5547910597414,10218,-4203,14973,18608.155792555048
1735581133296,59,-93,922,928.5547910597414,10211,-4138,13155,17159.300393664074
1735581133326,59,-93,922,928.5547910597414,10187,-4075,11343,15781.13566889278
1735581133356,61,-103,891,899.0055617180575,10156,-4018,9521,14489.24087038379
1735581133385,61,-103,891,899.0055617180575,10132,-3964,7679,13316.82248135793
1735581133416,61,-103,891,899.0055617180575,10097,-3917,5840,12304.38531581322
1735581133446,61,-103,891,899.0055617180575,10057,-3879,4002,11498.082187912903
1735581133476,125,-124,1038,1052.827146306553,10024,-3873,2224,10973.918215478006
1735581133506,125,-124,1038,1052.827146306553,9989,-3878,468,10725.578259469277
1735581133536,125,-124,1038,1052.827146306553,9962,-3892,-1288,10772.560141396287
1735581133566,109,-57,1046,1053.2074819331658,9919,-3911,-3038,11086.565112784032
1735581133596,109,-57,1046,1053.2074819331658,9856,-3945,-4793,11648.030305592443
1735581133626,109,-57,1046,1053.2074819331658,9813,-3992,-6551,12455.78716902308
1735581133656,118,-99,905,918.0141611108186,9773,-4048,-8298,13444.502110528303
1735581133687,118,-99,905,918.0141611108186,9753,-4112,-10010,14568.103960364917
1735581133717,118,-99,905,918.0141611108186,9752,-4180,-11727,15814.4374860442
1735581133746,118,-99,905,918.0141611108186,9768,-4246,-13448,17154.913115489686
1735581133776,110,-101,961,972.5338040397362,9862,-4309,-15192,18617.82449697064
1735581133806,110,-101,961,972.5338040397362,9959,-4352,-16943,20129.253190319803
1735581133836,110,-101,961,972.5338040397362,10049,-4374,17304,20482.741344849328
1735581133866,99,-117,994,1005.7464889324744,10156,-4366,15501,19039.099059566866
1735581133896,99,-117,994,1005.7464889324744,10260,-4324,13673,17632.79628986849
1735581133926,99,-117,994,1005.7464889324744,10332,-4262,11853,16291.362036367616
1735581133957,154,-115,940,959.4482789603617,10356,-4189,10061,15033.90095750268
1735581133986,154,-115,940,959.4482789603617,10291,-4140,8374,13898.494774614983
1735581134016,154,-115,940,959.4482789603617,10226,-4103,6687,12888.818952875396
1735581134046,154,-115,940,959.4482789603617,10164,-4079,5000,12039.316301185878
1735581134076,110,-158,1000,1018.3633929005892,10176,-4055,3259,11428.695551111685
1735581134106,110,-158,1000,1018.3633929005892,10198,-4020,1504,11064.4303965455
1735581134137,110,-158,1000,1018.3633929005892,10207,-3982,-247,10959.022857901155
1735581134167,70,-125,961,971.6202962062906,10205,-3945,-1992,11120.841425000179
1735581134196,70,-125,961,971.6202962062906,10193,-3906,-3754,11543.249152643288
1735581134227,70,-125,961,971.6202962062906,10174,-3871,-5514,12202.422423437078
1735581134256,208,-53,976,999.3242716956294,10136,-3840,-7269,13050.764613615556
1735581134286,208,-53,976,999.3242716956294,9935,-3867,-8871,13869.12235867865
1735581134316,208,-53,976,999.3242716956294,9776,-3932,-10477,14859.284269439091
1735581134346,208,-53,976,999.3242716956294,9659,-4026,-12087,15987.511563717475
1735581134376,202,-149,954,986.4689554162361,9668,-4125,-13762,17317.000115493447
1735581134406,202,-149,954,986.4689554162361,9724,-4214,-15445,18731.31060550756
1735581134436,202,-149,954,986.4689554162361,9793,-4291,-17134,20196.274062311593
1735581134467,25,-165,909,924.1920796025034,9926,-4342,17098,20241.54253015318
1735581134496,25,-165,909,924.1920796025034,10139,-4330,15193,18771.666681464383
1735581134526,25,-165,909,924.1920796025034,10306,-4272,13297,17357.241399485116
1735581134556,29,-111,945,951.93854843682,10405,-4183,11435,16016.264826731605
1735581134586,29,-111,945,951.93854843682,10384,-4092,9628,14740.091722916788
1735581134616,29,-111,945,951.93854843682,10342,-4007,7828,13575.367287848974
1735581134646,29,-111,945,951.93854843682,10285,-3931,6033,12555.12146496401
1735581134676,111,-82,1002,1011.4588474080397,10196,-3877,4285,11719.674483534089
1735581134706,111,-82,1002,1011.4588474080397,10089,-3853,2565,11100.124098405387
1735581134736,111,-82,1002,1011.4588474080397,9996,-3851,843,10745.271797400008
1735581134766,183,-125,966,991.0953536365712,9914,-3871,-864,10677.946104003335
1735581134796,183,-125,966,991.0953536365712,9845,-3914,-2528,10891.933024032052
1735581134825,183,-125,966,991.0953536365712,9798,-3970,-4195,11373.641852986228
1735581134856,76,-104,1029,1037.0308577858232,9798,-4033,-5882,12118.73825940638
1735581134886,76,-104,1029,1037.0308577858232,9914,-4066,-7723,13208.5003312261
1735581134916,76,-104,1029,1037.0308577858232,10018,-4072,-9565,14437.130358904431
1735581134946,76,-104,1029,1037.0308577858232,10103,-4056,-11405,15766.920117765549
1735581134976,62,-130,981,991.5165152431905,10185,-4011,-13285,17213.761093962006
1735581135005,62,-130,981,991.5165152431905,10246,-3945,-15163,18720.57985213065
1735581135036,62,-130,981,991.5165152431905,10276,-3867,-17033,20265.067332728013
1735581135066,167,-106,1043,1061.5903164592262,10231,-3800,17162,20338.328471140394
1735581135096,167,-106,1043,1061.5903164592262,10118,-3774,15443,18844.183426192816
1735581135126,167,-106,1043,1061.5903164592262,10021,-3772,13722,17405.22073976656
1735581135156,108,-135,1028,1042.4360891680603,9921,-3791,12019,16039.148449964543
1735581135186,108,-135,1028,1042.4360891680603,9867,-3818,10290,14758.689406583499
1735581135216,108,-135,1028,1042.4360891680603,9830,-3856,8558,13591.798997925183
1735581135247,108,-135,1028,1042.4360891680603,9810,-3901,6824,12570.635505017239
1735581135277,48,-114,869,877.7590785631328,9809,-3924,5041,11705.807874726119
1735581135306,48,-114,869,877.7590785631328,9821,-3943,3235,11066.368645585597
1735581135366,48,-114,869,877.7590785631328,9835,-3959,1428,10697.667502778351
1735581135367,-157,-218,815,858.1363528018144,9851,-3955,-455,10625.02945878269
1735581135397,-157,-218,815,858.1363528018144,9960,-3903,-2484,10982.04284275016
1735581135426,-157,-218,815,858.1363528018144,10030,-3826,-4504,11641.528765587447
1735581135456,153,-124,996,1015.2837041930694,10132,-3758,-6491,12606.072703264883
1735581135486,153,-124,996,1015.2837041930694,10076,-3794,-8105,13476.321345233646
1735581135516,153,-124,996,1015.2837041930694,10039,-3841,-9721,14492.502992927068
1735581135546,153,-124,996,1015.2837041930694,10019,-3894,-11339,15624.22855695602
1735581135576,93,142,1224,1235.7139636663494,9862,-3899,-13209,16939.271708075292
1735581135606,93,142,1224,1235.7139636663494,9683,-3952,-15106,18373.078919985077
1735581135636,93,142,1224,1235.7139636663494,9554,-4044,-17010,19924.180083506573
1735581135667,98,-156,1006,1022.7296808052458,9515,-4167,17218,20108.67071688231
1735581135696,98,-156,1006,1022.7296808052458,9647,-4274,15511,18759.605699481
1735581135726,98,-156,1006,1022.7296808052458,9783,-4352,13796,17463.579501350803
1735581135756,145,-128,961,980.27037086714,9933,-4392,12045,16218.390117394512
1735581135786,145,-128,961,980.27037086714,10038,-4394,10285,15028.303463797902
1735581135815,145,-128,961,980.27037086714,10123,-4376,8528,13940.993113835184
1735581135846,145,-128,961,980.27037086714,10187,-4341,6775,12981.520519569347
1735581135876,177,-120,981,1004.036851913315,10193,-4308,5069,12171.724364279697
1735581135906,177,-120,981,1004.036851913315,10181,-4278,3378,11548.373435250525
1735581135936,177,-120,981,1004.036851913315,10163,-4251,1688,11144.815565993005
1735581135965,131,-71,912,924.0919867632226,10105,-4228,18,10953.872968041942
1735581135996,131,-71,912,924.0919867632226,10031,-4217,-1668,11008.463743865444
1735581136026,131,-71,912,924.0919867632226,9968,-4220,-3356,11332.7913595901
1735581136056,61,-128,921,931.8508464341276,9912,-4236,-5041,11899.710962876366
1735581136086,61,-128,921,931.8508464341276,9955,-4243,-6797,12779.056420565643
1735581136116,61,-128,921,931.8508464341276,9992,-4240,-8553,13819.242851907626
1735581136146,61,-128,921,931.8508464341276,10021,-4230,-10308,14985.59992125774
1735581136176,167,-49,945,960.892814001645,9961,-4244,-12010,16170.131632117285
1735581136206,167,-49,945,960.892814001645,9874,-4284,-13675,17402.705450590147
1735581136236,167,-49,945,960.892814001645,9812,-4339,-15343,18721.909998715408
1735581136266,181,-104,969,991.2305483589577,9797,-4405,-17025,20130.47090855055
1735581136296,181,-104,969,991.2305483589577,9827,-4469,17289,20382.62522345932
1735581136326,181,-104,969,991.2305483589577,9869,-4526,15600,19006.36306608921
1735581136356,122,-123,964,979.4432091754989,9940,-4570,13883,17675.58171602847
1735581136386,122,-123,964,979.4432091754989,10109,-4566,12048,16376.646207328287
1735581136416,122,-123,964,979.4432091754989,10244,-4529,10219,15161.77225788595
1735581136446,162,-57,979,993.9486908286564,10360,-4466,8391,14060.001315789412
1735581136476,162,-57,979,993.9486908286564,10387,-4401,6605,13072.28346540879
1735581136506,162,-57,979,993.9486908286564,10391,-4331,4826,12248.294493520312
1735581136535,162,-57,979,993.9486908286564,10374,-4260,3054,11623.011313768906
1735581136566,159,-86,995,1011.2872984468854,10354,-4195,1325,11249.842932236876
1735581136597,159,-86,995,1011.2872984468854,10328,-4132,-401,11131.118946449184
1735581136627,159,-86,995,1011.2872984468854,10291,-4075,-2123,11270.20119607454
1735581136656,193,-113,978,1003.2457326099125,10249,-4022,-3853,11664.651473576054
1735581136686,193,-113,978,1003.2457326099125,10205,-3977,-5563,12284.360911337635
