Timestamp,Acc_X,Acc_Y,Acc_Z,Acc_Betrag,Ori_X,Ori_Y,Ori_Z,Ori_Betrag
1735562041349,-83,277,964,1006.4362871041565,-10272,4578,3556,11794.795631972604
1735562041349,-83,277,964,1006.4362871041565,-10280,4604,6853,13184.79522025276
1735562041354,-83,277,964,1006.4362871041565,-10263,4627,10171,15171.932605966847
1735562041384,-18,255,805,844.6147050578743,-10242,4635,13478,17551.019144197868
1735562041414,-18,255,805,844.6147050578743,-10246,4633,16734,20161.14979360056
1735562041444,-18,255,805,844.6147050578743,-10251,4632,-16010,19566.770939529088
1735562041474,-125,323,888,953.1516143825179,-10248,4636,-12736,16991.753764694215
1735562041504,-125,323,888,953.1516143825179,-10188,4651,-9285,14547.796053010916
1735562041534,-125,323,888,953.1516143825179,-10135,4644,-5832,12581.620921010139
1735562041565,-125,323,888,953.1516143825179,-10108,4621,-2394,11369.10467011365
1735562041594,-104,222,992,1021.8434322341168,-10081,4584,944,11114.438942204864
1735562041624,-104,222,992,1021.8434322341168,-10081,4535,4237,11838.283448203121
1735562041684,-104,222,992,1021.8434322341168,-10122,4497,7495,13373.590318235414
1735562041684,-40,178,868,886.9656137641414,-10193,4479,10694,15437.62695494356
1735562041714,-40,178,868,886.9656137641414,-10270,4484,13832,17801.780248053845
1735562041744,-40,178,868,886.9656137641414,-10319,4513,16985,20379.871319515245
1735562041774,-81,261,948,986.6032637286378,-10325,4549,-15818,19429.56896073611
1735562041804,-81,261,948,986.6032637286378,-10322,4593,-12509,16855.693815444087
1735562041834,-81,261,948,986.6032637286378,-10282,4627,-9167,14531.432895623198
1735562041863,-81,261,948,986.6032637286378,-10226,4641,-5805,12641.518184142284
1735562041924,8,255,1001,1033.0004840269921,-10193,4631,-2431,11456.5776303397
1735562041925,8,255,1001,1033.0004840269921,-10202,4616,895,11233.40042017554
1735562041955,8,255,1001,1033.0004840269921,-10220,4607,4211,11975.19811944671
1735562041984,-78,224,1135,1159.519296950249,-10199,4607,7524,13485.348567982957
1735562042014,-78,224,1135,1159.519296950249,-10123,4588,10882,15554.510503387755
1735562042044,-78,224,1135,1159.519296950249,-10089,4548,14213,18013.37264367781
1735562042074,-69,213,839,868.3611000039097,-10108,4506,17495,20701.466735475533
1735562042104,-69,213,839,868.3611000039097,-10167,4478,-15291,18900.662792611267
1735562042134,-69,213,839,868.3611000039097,-10229,4474,-12087,16454.32119535777
1735562042164,22,167,963,977.6205807980926,-10292,4491,-8890,14322.236033524932
1735562042194,22,167,963,977.6205807980926,-10396,4523,-5811,12739.78280819575
1735562042224,22,167,963,977.6205807980926,-10442,4581,-2694,11716.593404228039
1735562042254,22,167,963,977.6205807980926,-10426,4642,469,11422.329053218526
1735562042284,-10,234,906,935.7841631487466,-10356,4691,3687,11951.827726335416
1735562042314,-10,234,906,935.7841631487466,-10272,4718,6962,13275.652601661433
1735562042344,-10,234,906,935.7841631487466,-10192,4713,10244,15199.63055472073
1735562042374,-28,293,880,927.9186386747493,-10158,4687,13492,17526.750896843372
1735562042404,-28,293,880,927.9186386747493,-10205,4675,16709,20129.29037497348
1735562042434,-28,293,880,927.9186386747493,-10246,4681,-16074,19628.187715629785
1735562042465,3,271,906,945.6669604041372,-10251,4695,-12832,17081.751959327827
1735562042495,3,271,906,945.6669604041372,-10229,4692,-9597,14790.189789181206
1735562042524,3,271,906,945.6669604041372,-10218,4682,-6368,12918.206996328863
1735562042554,3,271,906,945.6669604041372,-10219,4671,-3149,11668.864683421434
1735562042584,-57,216,867,895.3178206648184,-10163,4662,146,11182.22379493453
1735562042614,-57,216,867,895.3178206648184,-10106,4630,3449,11638.888993370458
1735562042644,-57,216,867,895.3178206648184,-10097,4586,6718,12965.813857988245
1735562042674,19,219,880,907.0402416651644,-10122,4547,9967,14915.467877341294
1735562042704,19,219,880,907.0402416651644,-10227,4525,13129,17246.38498352626
1735562042734,19,219,880,907.0402416651644,-10316,4539,16292,19810.392247504842
1735562042764,-83,263,1060,1095.289002957667,-10366,4580,-16522,20035.14012928285
1735562042794,-83,263,1060,1095.289002957667,-10316,4638,-13173,17362.56976947825
1735562042824,-83,263,1060,1095.289002957667,-10232,4667,-9788,14909.046146551429
1735562042854,-83,263,1060,1095.289002957667,-10151,4663,-6395,12871.767361166842
1735562042884,-100,281,1041,1082.8859589079545,-10077,4633,-2944,11475.092766509559
1735562042914,-100,281,1041,1082.8859589079545,-10054,4586,477,11060.824607595945
1735562042944,-100,281,1041,1082.8859589079545,-10078,4543,3861,11709.494182072938
1735562042974,-63,227,976,1004.0288840466692,-10127,4511,7171,13203.351506341109
1735562043004,-63,227,976,1004.0288840466692,-10184,4490,10415,15242.905923740394
1735562043034,-63,227,976,1004.0288840466692,-10237,4492,13654,17646.69796307513
1735562043064,35,247,859,894.4914756441226,-10271,4511,16905,20288.45945359085
1735562043094,35,247,859,894.4914756441226,-10373,4544,-15934,19548.38665977323
1735562043124,35,247,859,894.4914756441226,-10415,4602,-12735,17083.05751322052
1735562043154,35,247,859,894.4914756441226,-10394,4663,-9488,14825.685447897511
1735562043184,-86,293,910,959.8671783116662,-10316,4719,-6164,12910.604672129033
1735562043215,-86,293,910,959.8671783116662,-10193,4737,-2759,11573.612184620668
1735562043244,-86,293,910,959.8671783116662,-10097,4712,638,11160.618128042908
1735562043274,-71,176,790,812.475845794815,-10024,4658,3975,11746.41072838848
1735562043305,-71,176,790,812.475845794815,-9977,4573,7229,13141.96709020381
1735562043334,-71,176,790,812.475845794815,-10016,4491,10415,15131.475869854863
1735562043364,-105,256,889,931.0649816205097,-10111,4441,13562,17489.501022041768
1735562043394,-105,256,889,931.0649816205097,-10247,4457,16759,20142.739113635962
1735562043424,-105,256,889,931.0649816205097,-10325,4513,-16010,19577.867452815182
1735562043454,-105,256,889,931.0649816205097,-10330,4584,-12729,17022.026818214097
1735562043484,-91,247,909,946.3461311803414,-10285,4625,-9415,14690.611798015765
1735562043514,-91,247,909,946.3461311803414,-10222,4643,-6083,12769.088534425628
1735562043544,-91,247,909,946.3461311803414,-10165,4637,-2748,11505.672427111767
1735562043574,-33,261,1000,1034.0261118559822,-10122,4608,599,11137.654555605503
1735562043605,-33,261,1000,1034.0261118559822,-10142,4574,3898,11788.810118073834
1735562043634,-33,261,1000,1034.0261118559822,-10183,4553,7176,13263.418639249838
1735562043664,-87,236,988,1019.5140999515406,-10227,4552,10440,15307.051740946066
1735562043694,-87,236,988,1019.5140999515406,-10190,4560,13763,17721.452226045134
1735562043724,-87,236,988,1019.5140999515406,-10160,4555,17086,20393.749557155985
1735562043754,-87,236,988,1019.5140999515406,-10145,4540,-15600,19154.441390967266
1735562043783,-153,263,1018,1062.4979999981176,-10165,4526,-12295,16582.488534595766
1735562043814,-153,263,1018,1062.4979999981176,-10179,4520,-8971,14301.093734396682
1735562043844,-153,263,1018,1062.4979999981176,-10193,4521,-5648,12499.463748497374
1735562043875,-47,261,1007,1041.3352005958504,-10214,4525,-2307,11407.17625006294
1735562043904,-47,261,1007,1041.3352005958504,-10270,4541,986,11272.345674259639
1735562043934,-47,261,1007,1041.3352005958504,-10294,4572,4301,12056.874429137926
1735562043964,-35,302,946,993.6523536931818,-10296,4608,7616,13610.464209570517
1735562043994,-35,302,946,993.6523536931818,-10326,4657,10899,15719.48237061259
1735562044024,-35,302,946,993.6523536931818,-10304,4706,14225,18184.319536347793
1735562044054,-35,302,946,993.6523536931818,-10247,4737,17584,20895.86643334035
1735562044084,-86,229,944,975.1784452088756,-10094,4718,-14973,18663.844432484966
1735562044114,-86,229,944,975.1784452088756,-9985,4643,-11557,15963.142641723152
1735562044144,-86,229,944,975.1784452088756,-9980,4550,-8218,13705.415863810918
1735562044175,-78,242,982,1014.3825708281861,-10067,4478,-4959,12082.576463652113
1735562044204,-78,242,982,1014.3825708281861,-10196,4454,-1746,11262.550688010244
1735562044235,-78,242,982,1014.3825708281861,-10301,4475,1469,11326.702388603666
1735562044264,12,229,974,1000.6303013600977,-10367,4532,4687,12246.700861864798
1735562044294,12,229,974,1000.6303013600977,-10449,4611,7792,13825.996745262166
1735562044324,12,229,974,1000.6303013600977,-10441,4700,10966,15854.262423714325
1735562044354,12,229,974,1000.6303013600977,-10359,4769,14206,18217.09850662284
1735562044384,-133,223,901,937.6667851641115,-10158,4798,17601,20880.63622114997
1735562044414,-133,223,901,937.6667851641115,-9961,4747,-14958,18587.55750495476
1735562044444,-133,223,901,937.6667851641115,-9880,4645,-11593,15924.448938660327
1735562044474,-60,213,1028,1051.5479066595112,-9918,4528,-8304,13704.959832119173
1735562044504,-60,213,1028,1051.5479066595112,-10067,4446,-5127,12140.738610150538
1735562044534,-60,213,1028,1051.5479066595112,-10231,4427,-1982,11322.544502010138
1735562044565,-57,289,979,1022.3556132774936,-10329,4460,1207,11315.329867043205
1735562044595,-57,289,979,1022.3556132774936,-10381,4521,4500,12184.194762067784
1735562044624,-57,289,979,1022.3556132774936,-10364,4587,7847,13785.081573933467
1735562044654,-57,289,979,1022.3556132774936,-10296,4633,11240,15931.412523690422
1735562044684,-40,231,907,936.8084115762412,-10193,4639,14610,18408.41302231129
1735562044714,-40,231,907,936.8084115762412,-10114,4604,17957,21117.378175332276
1735562044744,-40,231,907,936.8084115762412,-10093,4551,-14735,18430.96511309161
1735562044774,-67,301,998,1044.5544504715874,-10178,4514,-11489,15998.906243865547
1735562044804,-67,301,998,1044.5544504715874,-10299,4530,-8244,13948.255697398152
1735562044834,-67,301,998,1044.5544504715874,-10366,4583,-4967,12374.527627348043
1735562044864,-131,337,919,987.5682254912822,-10377,4647,-1654,11489.667271074477
1735562044894,-131,337,919,987.5682254912822,-10318,4711,1764,11478.95208631868
1735562044924,-131,337,919,987.5682254912822,-10222,4742,5223,12419.96686791072
1735562044954,-131,337,919,987.5682254912822,-10132,4734,8691,14163.391578290844
1735562044984,-106,362,874,951.9222657339201,-10157,4725,12053,16454.940990474563
1735562045014,-106,362,874,951.9222657339201,-10193,4728,15403,19065.771476654176
1735562045044,-106,362,874,951.9222657339201,-10213,4743,-17237,20589.21045110764
1735562045074,5,280,912,954.0277773733844,-10231,4757,-13931,17926.939811356537
1735562045104,5,280,912,954.0277773733844,-10259,4766,-10720,15584.615394676892
1735562045134,5,280,912,954.0277773733844,-10271,4782,-7498,13586.057890352153
1735562045164,-95,305,997,1046.9283643115225,-10243,4795,-4236,12077.034818199374
1735562045195,-95,305,997,1046.9283643115225,-10111,4782,-796,11213.09328419237
1735562045225,-95,305,997,1046.9283643115225,-10036,4731,2609,11397.830407581961
1735562045254,-95,305,997,1046.9283643115225,-10033,4668,5962,12569.676089700959
1735562045284,-53,222,953,979.9499987244247,-10057,4601,9236,14408.891213414028
1735562045314,-53,222,953,979.9499987244247,-10123,4548,12446,16675.20161797152
1735562045344,-53,222,953,979.9499987244247,-10209,4527,15629,19208.931542384133
1735562045374,-62,336,914,975.7745641284159,-10305,4542,-17138,20506.921587600613
1735562045404,-62,336,914,975.7745641284159,-10399,4605,-13842,17914.971113568674
1735562045434,-62,336,914,975.7745641284159,-10406,4685,-10483,15496.043043306248
1735562045464,-125,294,954,1006.0700770821086,-10333,4750,-7061,13386.228370978884
1735562045494,-125,294,954,1006.0700770821086,-10131,4759,-3527,11735.628274617427
1735562045524,-125,294,954,1006.0700770821086,-9995,4700,-25,11044.937754464712
1735562045555,-125,294,954,1006.0700770821086,-9962,4610,3405,11492.935612801457
1735562045584,-36,296,901,949.0590076491557,-10054,4519,6680,12889.013810218376
1735562045615,-36,296,901,949.0590076491557,-10210,4481,9874,14893.60053848632
1735562045644,-36,296,901,949.0590076491557,-10345,4499,13065,17261.351366564555
1735562045674,-27,312,854,909.6092567690811,-10410,4548,16302,19869.766178795362
1735562045704,-27,312,854,909.6092567690811,-10420,4605,-16416,19981.678633187952
1735562045734,-27,312,854,909.6092567690811,-10378,4653,-13091,17341.49860882848
1735562045764,-45,312,1028,1075.2455533504894,-10306,4681,-9718,14918.609888324047
1735562045794,-45,312,1028,1075.2455533504894,-10210,4687,-6273,12867.113040616376
1735562045824,-45,312,1028,1075.2455533504894,-10143,4660,-2841,11518.130490665575
1735562045854,-45,312,1028,1075.2455533504894,-10123,4618,557,11140.525212035562
1735562045884,-42,259,929,965.3424262923494,-10147,4582,3879,11789.95224757081
1735562045914,-42,259,929,965.3424262923494,-10183,4556,7175,13263.90779521631
1735562045944,-42,259,929,965.3424262923494,-10229,4547,10457,15318.5018523353
1735562045975,-125,344,902,973.429504381288,-10294,4563,13729,17755.924250795844
1735562046005,-125,344,902,973.429504381288,-10329,4613,17072,20479.77524290733
1735562046034,-125,344,902,973.429504381288,-10308,4664,-15540,19222.36613947409
1735562046064,-63,346,904,970.0005154637805,-10263,4698,-12140,16576.48856060897
1735562046094,-63,346,904,970.0005154637805,-10280,4720,-8837,14354.419841985951
1735562046124,-63,346,904,970.0005154637805,-10271,4743,-5515,12585.89349231909
1735562046154,-62,297,932,980.1413163416794,-10243,4759,-2169,11500.943048289562
1735562046184,-62,297,932,980.1413163416794,-10167,4752,1193,11285.948874596234
1735562046214,-62,297,932,980.1413163416794,-10124,4723,4537,12057.631359433743
1735562046244,-62,297,932,980.1413163416794,-10122,4686,7852,13640.651890580597
1735562046274,-57,284,956,998.9199167100434,-10136,4646,11172,15784.08679651756
1735562046304,-57,284,956,998.9199167100434,-10178,4618,14463,18278.292507780916
1735562046334,-57,284,956,998.9199167100434,-10229,4610,17739,20989.441679091895
1735562046364,0,335,930,988.4963328207141,-10261,4617,-14959,18718.34637461333
1735562046394,0,335,930,988.4963328207141,-10347,4641,-11672,16273.748000998417
1735562046424,0,335,930,988.4963328207141,-10383,4688,-8353,14126.451854588257
1735562046484,-80,353,987,1051.274464638041,-10356,4733,-4989,12431.33725710955
1735562046485,-80,353,987,1051.274464638041,-10227,4748,-1490,11373.43980508975
1735562046515,-80,353,987,1051.274464638041,-10131,4718,1997,11352.739493179608
1735562046544,-80,353,987,1051.274464638041,-10096,4663,5443,12381.398709354287
1735562046574,-49,343,972,1031.9079416304537,-10155,4614,8754,14179.052753974787
1735562046604,-49,343,972,1031.9079416304537,-10242,4594,12026,16450.77736765044
1735562046634,-49,343,972,1031.9079416304537,-10316,4606,15297,19016.658512998543
1735562046664,-43,295,852,902.6505414610906,-10356,4644,-17430,20799.48008965609
1735562046695,-43,295,852,902.6505414610906,-10335,4684,-14138,18128.296251992353
1735562046724,-43,295,852,902.6505414610906,-10286,4709,-10820,15654.037083129706
1735562046754,-59,279,885,929.8101956851194,-10230,4711,-7485,13523.004325962482
1735562046784,-59,279,885,929.8101956851194,-10162,4686,-4131,11928.537253158913
1735562046814,-59,279,885,929.8101956851194,-10140,4645,-809,11182.580471429661
1735562046844,-59,279,885,929.8101956851194,-10160,4605,2478,11426.815348118653
1735562046874,-33,289,857,905.0187843354413,-10176,4568,5767,12556.90602815837
1735562046904,-33,289,857,905.0187843354413,-10226,4545,9021,14373.814455460319
1735562046934,-33,289,857,905.0187843354413,-10277,4543,12268,16636.08734047763
1735562046964,14,363,993,1057.3618113020727,-10366,4562,15520,19212.917529620532
1735562046994,14,363,993,1057.3618113020727,-10475,4626,-17222,20681.459933960174
1735562047024,14,363,993,1057.3618113020727,-10494,4711,-13902,18043.92310446927
1735562047054,-108,363,961,1032.9346542739283,-10445,4788,-10530,15585.373559847707
1735562047084,-108,363,961,1032.9346542739283,-10256,4838,-6983,13317.434775511387
1735562047114,-108,363,961,1032.9346542739283,-10088,4814,-3430,11692.187135006008
1735562047144,-108,363,961,1032.9346542739283,-10004,4742,70,11071.200476913062
1735562047174,-66,332,917,977.4809461058563,-10019,4651,3449,11571.852185367734
1735562047204,-66,332,917,977.4809461058563,-10112,4583,6744,12989.917975106695
1735562047234,-66,332,917,977.4809461058563,-10229,4559,10006,15017.887934060502
1735562047263,-105,362,894,970.2087404265126,-10321,4581,13279,17431.019562836824
1735562047294,-105,362,894,970.2087404265126,-10354,4632,16614,20116.802330390383
1735562047324,-105,362,894,970.2087404265126,-10331,4683,-16007,19618.463217082015
1735562047354,-56,327,919,977.0496404993966,-10275,4714,-12603,16930.240104617536
1735562047384,-56,327,919,977.0496404993966,-10237,4712,-9271,14592.82542895652
1735562047414,-56,327,919,977.0496404993966,-10214,4699,-5946,12718.542094123839
1735562047444,-56,327,919,977.0496404993966,-10211,4681,-2636,11537.971138809457
1735562047474,-64,345,1017,1075.8299122073154,-10241,4688,691,11284.188318173354
1735562047504,-64,345,1017,1075.8299122073154,-10255,4706,4035,11983.01656512249
1735562047534,-64,345,1017,1075.8299122073154,-10249,4724,7395,13492.375698890095
1735562047564,-103,379,893,975.5506137561495,-10210,4729,10801,15597.087612756428
1735562047594,-103,379,893,975.5506137561495,-10170,4718,14243,18125.988883368544
1735562047624,-103,379,893,975.5506137561495,-10153,4697,17669,20912.6463892067
1735562047654,-61,332,821,887.6857552084522,-10151,4674,-14915,18637.22892492336
1735562047684,-61,332,821,887.6857552084522,-10150,4645,-11557,16067.444538569287
1735562047714,-61,332,821,887.6857552084522,-10175,4622,-8221,13873.656691730555
1735562047744,-61,332,821,887.6857552084522,-10212,4611,-4898,12228.518675620528
1735562047772,-43,406,825,920.494432356872,-10295,4631,-1574,11397.8358472124
1735562047804,-43,406,825,920.494432356872,-10351,4683,1775,11498.883206642287
1735562047834,-43,406,825,920.494432356872,-10343,4742,5174,12499.379544601405
1735562047864,-44,350,937,1001.2017778649816,-10265,4775,8621,14229.98562894566
1735562047895,-44,350,937,1001.2017778649816,-10159,4761,12076,16483.390973947076
1735562047925,-44,350,937,1001.2017778649816,-10104,4716,15501,19094.82843599282
1735562047954,-107,332,898,963.3675311115691,-10110,4667,-17126,20427.747428436647
1735562047984,-107,332,898,963.3675311115691,-10092,4628,-13731,17658.063568806177
1735562048014,-107,332,898,963.3675311115691,-10113,4592,-10369,15194.584364173967
1735562048044,-107,332,898,963.3675311115691,-10158,4571,-7029,13171.40258286869
1735562048074,-139,382,939,1023.2135651954582,-10226,4578,-3650,11783.533425929592
1735562048104,-139,382,939,1023.2135651954582,-10265,4612,-238,11255.99453624601
1735562048134,-139,382,939,1023.2135651954582,-10262,4651,3205,11713.772662980959
1735562048164,-55,336,1020,1075.3236722029326,-10244,4681,6613,13060.745231417694
1735562048194,-55,336,1020,1075.3236722029326,-10234,4697,9955,15029.923153496162
1735562048224,-55,336,1020,1075.3236722029326,-10213,4707,13308,17423.09048360824
1735562048254,-123,366,891,971.0643644990789,-10185,4707,16676,20099.23008475698
1735562048284,-123,366,891,971.0643644990789,-10122,4698,-15853,19386.688654847687
1735562048314,-123,366,891,971.0643644990789,-10090,4671,-12401,16655.663961547736
1735562048344,-123,366,891,971.0643644990789,-10092,4640,-8976,14280.988761286804
1735562048374,-71,375,977,1048.9018066530346,-10166,4615,-5615,12496.959870304458
1735562048405,-71,375,977,1048.9018066530346,-10250,4623,-2278,11472.746532543984
1735562048433,-71,375,977,1048.9018066530346,-10297,4657,1077,11352.34720223091
1735562048464,-84,389,943,1023.5360277000512,-10293,4706,4468,12167.798034155563
1735562048494,-84,389,943,1023.5360277000512,-10241,4747,7907,13781.608723222409
1735562048524,-84,389,943,1023.5360277000512,-10170,4762,11371,15981.401221419854
1735562048554,-108,327,824,893.0671867222533,-10117,4750,14820,18562.02006786977
1735562048584,-108,327,824,893.0671867222533,-10038,4708,-17750,20928.191704014946
1735562048614,-108,327,824,893.0671867222533,-10024,4649,-14368,18125.484848687498
1735562048644,-108,327,824,893.0671867222533,-10066,4600,-11033,15627.266075676833
1735562048674,-11,337,841,906.074500248186,-10178,4575,-7773,13599.332263019387
1735562048704,-11,337,841,906.074500248186,-10299,4596,-4551,12161.587807519214
1735562048734,-11,337,841,906.074500248186,-10362,4652,-1294,11431.823301643532
1735562048764,-83,291,854,906.0275933987882,-10318,4713,2044,11526.119425027662
1735562048794,-83,291,854,906.0275933987882,-10174,4732,5479,12486.854728073038
1735562048824,-83,291,854,906.0275933987882,-10064,4699,8903,14234.749945116704
1735562048854,-124,351,894,968.4074555681611,-10021,4645,12290,16523.93917926352
1735562048884,-124,351,894,968.4074555681611,-10045,4609,15703,19202.32056289031
1735562048914,-124,351,894,968.4074555681611,-10090,4591,-16904,20214.613451659174
1735562048944,-124,351,894,968.4074555681611,-10135,4591,-13519,17508.822547504446
1735562048974,-70,275,932,974.242782883199,-10160,4583,-10176,15092.39758951506
1735562049004,-70,275,932,974.242782883199,-10181,4579,-6860,13102.6562955761
1735562049034,-70,275,932,974.242782883199,-10199,4582,-3543,11728.903358797019
1735562049064,-150,285,903,958.714764671954,-10193,4595,-218,11182.969104848677
1735562049095,-150,285,903,958.714764671954,-10143,4601,3166,11578.998488643134
1735562049124,-150,285,903,958.714764671954,-10106,4589,6546,12885.661527449804
1735562049154,-169,303,890,955.2329558803967,-10094,4571,9914,14868.432096223192
1735562049184,-169,303,890,955.2329558803967,-10101,4563,13299,17312.266489399935
1735562049214,-169,303,890,955.2329558803967,-10112,4559,16679,20030.62819783743
1735562049244,-169,303,890,955.2329558803967,-10122,4560,-15941,19425.85815350251
1735562049274,-64,330,900,960.7268082030396,-10230,4564,-12685,16923.126809192207
1735562049304,-64,330,900,960.7268082030396,-10330,4609,-9449,14738.907082955642
1735562049334,-64,330,900,960.7268082030396,-10359,4677,-6165,12930.214035351464
1735562049364,-151,391,832,931.6147272343864,-10283,4741,-2734,11648.687737251781
1735562049394,-151,391,832,931.6147272343864,-10142,4769,837,11238.509420737253
1735562049424,-151,391,832,931.6147272343864,-10027,4743,4405,11934.85663927305
1735562049454,-84,289,956,1002.2539598325367,-9980,4687,7909,13569.10645547451
1735562049484,-84,289,956,1002.2539598325367,-9980,4612,11231,15716.434232993182
1735562049514,-84,289,956,1002.2539598325367,-10045,4552,14497,18214.986631891883
1735562049544,-84,289,956,1002.2539598325367,-10137,4525,17731,20919.434863303548
1735562049574,-123,287,853,908.3540058809671,-10192,4541,-14969,18669.989448309818
1735562049604,-123,287,853,908.3540058809671,-10204,4571,-11634,16135.848691655485
1735562049634,-123,287,853,908.3540058809671,-10186,4598,-8276,13906.414922617547
1735562049664,-79,345,944,1008.1676447892979,-10164,4599,-4899,12184.330018511482
1735562049694,-79,345,944,1008.1676447892979,-10194,4598,-1548,11289.621074243369
1735562049724,-79,345,944,1008.1676447892979,-10214,4606,1805,11348.96722173432
1735562049754,-173,229,997,1037.4868673867636,-10219,4624,5164,12348.126700030252
1735562049784,-173,229,997,1037.4868673867636,-10036,4614,8633,14019.23610615072
1735562049814,-173,229,997,1037.4868673867636,-9929,4545,12061,16269.904332847198
1735562049844,-29,193,853,875.0422846925742,-9924,4459,15413,18866.08136312361
1735562049874,-29,193,853,875.0422846925742,-10082,4400,-17470,20644.796535689085
1735562049904,-29,193,853,875.0422846925742,-10236,4401,-14370,18183.547426176225
1735562049934,-29,193,853,875.0422846925742,-10339,4450,-11247,15912.02155604372
1735562049964,-121,296,992,1042.2672402028186,-10370,4530,-7974,13843.49941308194
1735562049994,-121,296,992,1042.2672402028186,-10319,4612,-4595,12201.079050641381
1735562050024,-121,296,992,1042.2672402028186,-10214,4659,-1163,11286.480673797301
1735562050054,-88,285,956,1001.4514466513092,-10101,4662,2283,11356.783611568902
1735562050084,-88,285,956,1001.4514466513092,-10037,4630,5667,12421.479702515317
1735562050114,-88,285,956,1001.4514466513092,-10023,4583,9016,14239.124762428342
1735562050144,-74,214,901,929.017222660592,-10062,4542,12323,16544.785794926447
1735562050174,-74,214,901,929.017222660592,-10094,4509,15580,19103.82990397475
1735562050204,-74,214,901,929.017222660592,-10142,4493,-17181,20450.76952097402
1735562050234,-74,214,901,929.017222660592,-10187,4496,-13947,17846.786657547065
1735562050264,-33,242,979,1009.0064420012392,-10280,4528,-10742,15542.578550549455
1735562050294,-33,242,979,1009.0064420012392,-10332,4588,-7515,13574.799924860772
1735562050324,-33,242,979,1009.0064420012392,-10317,4652,-4237,12084.44297433688
1735562050354,-98,188,1019,1040.8213103121977,-10224,4689,-905,11284.321955704738
1735562050384,-98,188,1019,1040.8213103121977,-10077,4671,2475,11379.358285949169
1735562050414,-98,188,1019,1040.8213103121977,-9998,4609,5816,12451.053810822601
1735562050444,-87,288,954,1000.3144505604225,-9998,4537,9103,14262.152081646023
1735562050474,-87,288,954,1000.3144505604225,-10137,4505,12343,16595.28375774274
1735562050504,-87,288,954,1000.3144505604225,-10255,4525,15584,19196.398255922908
1735562050534,-87,288,954,1000.3144505604225,-10316,4578,-17142,20523.793606446154
1735562050564,-57,274,971,1010.5275849772731,-10304,4632,-13827,17855.35687125855
1735562050594,-57,274,971,1010.5275849772731,-10254,4670,-10487,15392.549658844697
1735562050624,-57,274,971,1010.5275849772731,-10189,4684,-7126,13286.664479845947
1735562050654,-77,265,885,927.0269683240073,-10126,4668,-3779,11773.144906948186
1735562050684,-77,265,885,927.0269683240073,-10086,4630,-452,11107.141846577813
1735562050714,-77,265,885,927.0269683240073,-10093,4587,2840,11444.423008609914
1735562050744,-58,228,1054,1079.9370352015899,-10137,4555,6106,12680.30086393852
1735562050774,-58,228,1054,1079.9370352015899,-10185,4539,9342,14546.810990729206
1735562050804,-58,228,1054,1079.9370352015899,-10231,4541,12573,16833.7271868116
1735562050834,-58,228,1054,1079.9370352015899,-10260,4558,15813,19393.14139070821
1735562050864,-67,243,932,965.4853701636291,-10262,4580,-16901,20296.030276879268
1735562050894,-67,243,932,965.4853701636291,-10245,4600,-13596,17634.376683058577
1735562050924,-67,243,932,965.4853701636291,-10217,4610,-10279,15208.452584007355
1735562050954,-24,210,1003,1025.029267874825,-10181,4602,-6948,13156.970357950951
1735562050984,-24,210,1003,1025.029267874825,-10167,4578,-3652,11732.990965648954
1735562051014,-24,210,1003,1025.029267874825,-10179,4554,-376,11157.613230435978
1735562051044,-75,306,1055,1101.038600594911,-10216,4539,2876,11542.987178369383
1735562051074,-75,306,1055,1101.038600594911,-10300,4559,6177,12846.392878936873
1735562051104,-75,306,1055,1101.038600594911,-10337,4603,9506,14778.538967029182
1735562051134,-75,306,1055,1101.038600594911,-10324,4650,12874,17144.892883888195
1735562051164,-68,311,894,948.9894625336996,-10287,4684,16253,19797.025887743846
1735562051194,-68,311,894,948.9894625336996,-10236,4700,-16350,19854.173264077253
1735562051224,-68,311,894,948.9894625336996,-10189,4695,-12951,17134.38493205986
1735562051254,-41,307,893,945.187283029136,-10171,4675,-9580,14733.677952229036
1735562051284,-41,307,893,945.187283029136,-10192,4654,-6253,12831.079027112257
1735562051314,-41,307,893,945.187283029136,-10224,4644,-2938,11607.271686318021
1735562051344,-64,277,891,935.2571838804554,-10255,4645,363,11263.783511769036
1735562051374,-64,277,891,935.2571838804554,-10237,4644,3675,11826.602639811656
1735562051411,-64,277,891,935.2571838804554,-10226,4639,6984,13223.753362793788
1735562051434,-64,277,891,935.2571838804554,-10223,4631,10287,15224.2654666818
1735562051464,43,259,856,895.3580289470799,-10294,4632,13476,17579.09087524153
1735562051495,43,259,856,895.3580289470799,-10365,4657,16632,20143.095541649003
1735562051525,43,259,856,895.3580289470799,-10392,4699,-16181,19796.439730416176
1735562051555,-78,250,745,789.6891793610952,-10353,4745,-12945,17241.596764801106
1735562051584,-78,250,745,789.6891793610952,-10220,4764,-9597,14806.97487672617
1735562051614,-78,250,745,789.6891793610952,-10117,4737,-6257,12804.019173681365
1735562051644,-67,270,883,925.7850722494935,-10059,4676,-2933,11473.924611918976
1735562051674,-67,270,883,925.7850722494935,-10078,4601,362,11084.508514138099
1735562051704,-67,270,883,925.7850722494935,-10154,4547,3607,11695.698953033974
1735562051735,-67,270,883,925.7850722494935,-10248,4528,6827,13119.916806138674
1735562051764,-78,366,936,1008.0357136530431,-10352,4551,10075,15145.333604777414
1735562051794,-78,366,936,1008.0357136530431,-10418,4612,13365,17562.132359141357
1735562051824,-78,366,936,1008.0357136530431,-10409,4683,16711,20236.978307049696
1735562051854,-54,264,979,1015.4077998518625,-10330,4742,-15894,19540.07932430163
1735562051884,-54,264,979,1015.4077998518625,-10194,4752,-12486,16804.741473762697
1735562051914,-54,264,979,1015.4077998518625,-10098,4716,-9095,14385.03684388747
1735562051944,-106,271,1035,1075.12882948975,-10070,4650,-5754,12495.43580672559
1735562051974,-106,271,1035,1075.12882948975,-10082,4575,-2421,11333.075046076417
1735562052004,-106,271,1035,1075.12882948975,-10153,4520,859,11146.824211406583
1735562052034,-106,271,1035,1075.12882948975,-10245,4499,4113,11921.316831625607
1735562052064,-54,305,907,958.4310095150303,-10294,4516,7410,13463.609917106185
1735562052094,-54,305,907,958.4310095150303,-10333,4552,10708,15561.261420591842
1735562052124,-54,305,907,958.4310095150303,-10328,4592,14038,18022.749290826858
1735562052155,-20,306,1003,1048.8303008590094,-10291,4609,17408,20740.9263534684
1735562052184,-20,306,1003,1048.8303008590094,-10271,4605,-15233,18940.53206750011
1735562052214,-20,306,1003,1048.8303008590094,-10260,4595,-11881,16356.64348208397
1735562052244,-89,292,917,966.475038477456,-10278,4596,-8558,14142.130815404022
1735562052274,-89,292,917,966.475038477456,-10238,4622,-5181,12370.217823466166
1735562052304,-89,292,917,966.475038477456,-10189,4630,-1790,11333.874933137387
1735562052334,-89,292,917,966.475038477456,-10150,4620,1597,11265.758252332596
1735562052364,19,238,997,1025.1897385362379,-10251,4596,4797,12215.458485050816
1735562052394,19,238,997,1025.1897385362379,-10357,4606,7950,13845.041892316542
1735562052424,19,238,997,1025.1897385362379,-10419,4647,11127,15936.131870689323
1735562052454,36,275,953,992.5371529570065,-10403,4698,14370,18351.853121687738
1735562052484,36,275,953,992.5371529570065,-10358,4736,17654,21009.08317847307
1735562052514,36,275,953,992.5371529570065,-10295,4753,-15038,18833.997929276728
1735562052544,-43,268,812,856.1641197807813,-10227,4748,-11728,16269.020161029981
1735562052574,-43,268,812,856.1641197807813,-10091,4713,-8334,13910.291370061232
1735562052604,-43,268,812,856.1641197807813,-10033,4643,-4990,12129.247214893428
1735562052634,-43,268,812,856.1641197807813,-10055,4570,-1708,11176.099006361746
1735562052664,-138,283,917,969.5473170505913,-10085,4517,1652,11173.165084254328
1735562052695,-138,283,917,969.5473170505913,-10128,4484,5018,12159.891611359042
1735562052724,-138,283,917,969.5473170505913,-10184,4472,8367,13918.30912862622
1735562052754,-51,276,912,954.2122405419037,-10261,4481,11655,16161.884388894756
1735562052784,-51,276,912,954.2122405419037,-10350,4517,14878,18678.347705297703
1735562052814,-51,276,912,954.2122405419037,-10380,4575,-17858,21156.161962889204
1735562052844,-102,299,1059,1105.1180932370983,-10365,4637,-14555,18460.30928776655
1735562052874,-102,299,1059,1105.1180932370983,-10292,4699,-11151,15885.5489675365
1735562052904,-102,299,1059,1105.1180932370983,-10188,4725,-7710,13622.22702057193
1735562052934,-102,299,1059,1105.1180932370983,-10098,4711,-4268,11932.265040636668
1735562052964,-85,299,944,993.8621634814357,-10051,4663,-859,11113.237647058575
1735562052994,-85,299,944,993.8621634814357,-10065,4612,2499,11349.879735045653
1735562053025,-85,299,944,993.8621634814357,-10118,4577,5822,12538.681629262304
1735562053054,-85,244,913,948.8572073815955,-10168,4562,9102,14389.109492946392
1735562053085,-85,244,913,948.8572073815955,-10192,4553,12359,16653.875044565455
1735562053114,-85,244,913,948.8572073815955,-10215,4553,15613,19205.254567435444
1735562053144,-54,271,898,939.5536174162708,-10224,4559,-17114,20450.028190689616
1735562053174,-54,271,898,939.5536174162708,-10263,4570,-13845,17829.696968821427
1735562053204,-54,271,898,939.5536174162708,-10280,4591,-10562,15437.341902024455
1735562053234,-54,271,898,939.5536174162708,-10274,4613,-7261,13399.886790566554
1735562053264,-28,278,972,1011.3614586289118,-10283,4644,-3987,11966.745338645758
1735562053294,-28,278,972,1011.3614586289118,-10271,4673,-697,11305.581763005388
1735562053324,-28,278,972,1011.3614586289118,-10238,4693,2611,11561.064570358561
1735562053354,-98,329,1048,1102.7914580735562,-10204,4693,5959,12714.38342980107
1735562053384,-98,329,1048,1102.7914580735562,-10171,4686,9362,14596.399590309933
1735562053414,-98,329,1048,1102.7914580735562,-10157,4670,12753,16959.143787349643
1735562053444,-58,279,885,929.747277489964,-10153,4651,16133,19621.133988635826
1735562053474,-58,279,885,929.747277489964,-10150,4623,-16548,19955.72431659648
1735562053504,-58,279,885,929.747277489964,-10174,4599,-13252,17328.490442043705
1735562053534,-98,361,984,1052.7017621339864,-10198,4587,-9940,14961.39609127437
1735562053563,-98,361,984,1052.7017621339864,-10232,4599,-6518,12974.164674459778
1735562053594,-98,361,984,1052.7017621339864,-10242,4620,-3081,11650.55899946436
1735562053624,-98,361,984,1052.7017621339864,-10230,4640,374,11239.322755397676
1735562053654,-57,351,1055,1113.3171156503433,-10256,4660,3720,11863.369504487331
1735562053684,-57,351,1055,1113.3171156503433,-10266,4684,7068,13314.925309591488
1735562053714,-57,351,1055,1113.3171156503433,-10252,4706,10437,15368.17845419554
1735562053744,-78,237,816,853.2930329025311,-10221,4718,13807,17814.646053177705
1735562053774,-78,237,816,853.2930329025311,-10085,4689,17173,20459.860092385774
1735562053805,-78,237,816,853.2930329025311,-10023,4623,-15507,19034.172086014143
1735562053834,-50,281,788,838.0960565472194,-10047,4550,-12255,16487.259748060016
1735562053864,-50,281,788,838.0960565472194,-10192,4513,-9095,14386.210689406715
1735562053894,-50,281,788,838.0960565472194,-10320,4528,-5939,12738.795272709269
1735562053924,-50,281,788,838.0960565472194,-10393,4581,-2753,11686.702657293887
1735562053954,-99,221,858,891.5189285707847,-10318,4655,539,11332.284412244515
1735562053984,-99,221,858,891.5189285707847,-10179,4682,3893,11861.223124113298
1735562054014,-99,221,858,891.5189285707847,-10065,4657,7244,13246.411212098166
1735562054044,-37,228,931,959.2257294297312,-10035,4592,10545,15263.836804683153
1735562054074,-37,228,931,959.2257294297312,-10109,4532,13750,17657.672694893856
1735562054104,-37,228,931,959.2257294297312,-10206,4507,16925,20271.43581495894
1735562054164,-38,253,978,1010.90899689339,-10271,4514,-15866,19431.92200992995
1735562054165,-38,253,978,1010.90899689339,-10294,4534,-12574,16870.953381477884
1735562054195,-38,253,978,1010.90899689339,-10292,4556,-9263,14576.884749492945
1735562054224,-38,253,978,1010.90899689339,-10272,4574,-5937,12715.479896567018
1735562054254,-103,250,980,1016.6164468470889,-10200,4586,-2567,11474.357716229697
1735562054284,-103,250,980,1016.6164468470889,-10126,4568,823,11139.112576861768
1735562054314,-103,250,980,1016.6164468470889,-10094,4530,4189,11830.361659729597
1735562054344,-50,235,953,982.8194137276695,-10145,4500,7473,13379.714271986528
1735562054374,-50,235,953,982.8194137276695,-10234,4500,10691,15468.750337373735
1735562054404,-50,235,953,982.8194137276695,-10293,4529,13923,17897.139967045016
1735562054434,-116,247,1008,1044.2839652125278,-10319,4566,17169,20545.18624885158
1735562054464,-116,247,1008,1044.2839652125278,-10282,4599,-15506,19165.238349678828
1735562054494,-116,247,1008,1044.2839652125278,-10230,4613,-12163,16549.055501749943
1735562054524,-116,247,1008,1044.2839652125278,-10183,4607,-8819,14237.018613459772
1735562054554,-41,284,888,933.2100513817883,-10188,4594,-5486,12449.754053795601
1735562054584,-41,284,888,933.2100513817883,-10229,4593,-2188,11424.33516665193
1735562054614,-41,284,888,933.2100513817883,-10256,4606,1115,11297.964285657838
1735562054643,-72,188,897,919.3133306985166,-10222,4623,4425,12059.935240290471
1735562054674,-72,188,897,919.3133306985166,-10125,4607,7751,13557.952463406855
1735562054704,-72,188,897,919.3133306985166,-10075,4562,11048,15632.522924979192
1735562054734,4,240,876,908.290702363511,-10092,4513,14298,18073.417966726713
1735562054764,4,240,876,908.290702363511,-10263,4500,17418,20711.49181010388
1735562054794,4,240,876,908.290702363511,-10389,4543,-15444,19159.522593217192
1735562054824,4,240,876,908.290702363511,-10439,4617,-12259,16750.298236150902
1735562054855,-48,337,989,1045.9416809746135,-10418,4704,-8936,14509.115617431684
1735562054884,-48,337,989,1045.9416809746135,-10331,4775,-5522,12650.006719365805
1735562054914,-48,337,989,1045.9416809746135,-10211,4801,-2067,11471.120738620093
1735562054944,-85,208,1059,1082.5756324617694,-10068,4778,1385,11229.96585034879
1735562054974,-85,208,1059,1082.5756324617694,-9925,4688,4804,11981.710437162134
1735562055004,-85,208,1059,1082.5756324617694,-9911,4572,8128,13608.654929859895
1735562055034,-13,296,881,929.486955260804,-9997,4477,11374,15790.864890815828
1735562055064,-13,296,881,929.486955260804,-10249,4451,14506,18310.582677784998
1735562055093,-13,296,881,929.486955260804,-10439,4509,17657,21001.74876051992
1735562055125,-13,296,881,929.486955260804,-10519,4617,-15122,18990.548543946803
1735562055155,-36,247,966,997.7279188235639,-10430,4714,-11808,16444.92505303688
1735562055184,-36,247,966,997.7279188235639,-10270,4755,-8426,14109.585429770785
1735562055214,-36,247,966,997.7279188235639,-10129,4736,-5038,12264.085004597775
1735562055244,-138,257,942,986.132344059356,-10023,4669,-1646,11178.971598496884
1735562055274,-138,257,942,986.132344059356,-9963,4572,1755,11101.557458302867
1735562055304,-138,257,942,986.132344059356,-10007,4478,5077,12081.74085138396
1735562055334,-64,242,941,973.7253206115162,-10119,4422,8338,13837.286186243313
1735562055364,-64,242,941,973.7253206115162,-10292,4425,11495,16051.19665320938
1735562055395,-64,242,941,973.7253206115162,-10406,4483,14679,18543.33211696323
1735562055424,-64,242,941,973.7253206115162,-10436,4566,17921,21234.893289112617
1735562055455,-91,218,969,997.3795666645673,-10382,4643,-14817,18678.51337767543
1735562055484,-91,218,969,997.3795666645673,-10269,4682,-11498,16111.408659704464
1735562055514,-91,218,969,997.3795666645673,-10161,4676,-8168,13850.166822100015
1735562055544,-29,246,891,924.7907871513427,-10102,4628,-4864,12129.6036208938
1735562055574,-29,246,891,924.7907871513427,-10144,4575,-1642,11248.445448149712
1735562055604,-29,246,891,924.7907871513427,-10215,4545,1547,11287.003986886866
1735562055634,-81,256,964,1000.6962576126684,-10279,4551,4755,12205.714522304706
1735562055664,-81,256,964,1000.6962576126684,-10261,4588,8102,13855.694461123196
1735562055694,-81,256,964,1000.6962576126684,-10217,4611,11474,16040.607407451876
1735562055724,-81,256,964,1000.6962576126684,-10169,4615,14856,18585.14250685208
1735562055754,-13,267,997,1032.2146094683992,-10172,4598,-17818,21025.99134404844
1735562055784,-13,267,997,1032.2146094683992,-10208,4590,-14531,18341.791760894026
1735562055814,-13,267,997,1032.2146094683992,-10239,4595,-11245,15887.138540341366
1735562055844,-107,296,834,891.4151670237611,-10260,4607,-7964,13781.050213971357
1735562055874,-107,296,834,891.4151670237611,-10239,4623,-4621,12147.546707051593
1735562055904,-107,296,834,891.4151670237611,-10210,4629,-1269,11281.93697908298
1735562055934,-68,257,864,903.9740040510014,-10201,4627,2069,11390.798523369642
1735562055964,-68,257,864,903.9740040510014,-10223,4625,5334,12423.844413063132
1735562055994,-68,257,864,903.9740040510014,-10239,4631,8600,14150.73432723546
1735562056024,-68,257,864,903.9740040510014,-10245,4640,11874,16354.861693086861
1735562056054,-20,280,906,948.4914338042279,-10259,4657,15157,18885.692441634223
1735562056114,-20,280,906,948.4914338042279,-10269,4680,-17562,20875.310895888473
1735562056115,-20,280,906,948.4914338042279,-10257,4702,-14262,18185.694845124835
1735562056145,-38,244,1057,1085.4625742051173,-10196,4705,-10923,15665.483395031255
1735562056174,-38,244,1057,1085.4625742051173,-10122,4674,-7574,13478.376608479228
1735562056204,-38,244,1057,1085.4625742051173,-10100,4626,-4260,11897.792904568478
1735562056235,-26,218,939,964.3241156374759,-10115,4580,-980,11146.74952620718
1735562056264,-26,218,939,964.3241156374759,-10137,4535,2258,11332.41183508612
1735562056295,-26,218,939,964.3241156374759,-10189,4506,5470,12411.31165509915
1735562056325,-26,218,939,964.3241156374759,-10247,4499,8669,14156.043621012193
1735562056354,-138,250,938,980.5039520573081,-10253,4518,11966,16392.726710343217
1735562056385,-138,250,938,980.5039520573081,-10220,4535,15324,18969.438605293515
1735562056415,-138,250,938,980.5039520573081,-10184,4536,-17311,20590.28588922456
1735562056444,-73,294,1000,1044.8755906805366,-10197,4530,-13969,17878.27368623716
1735562056474,-73,294,1000,1044.8755906805366,-10266,4545,-10672,15489.97627499797
1735562056504,-73,294,1000,1044.8755906805366,-10300,4579,-7353,13458.226108963989
1735562056534,-81,233,940,971.8281741130991,-10298,4619,-4015,11979.323436655344
1735562056564,-81,233,940,971.8281741130991,-10218,4642,-665,11242.682642501299
1735562056594,-81,233,940,971.8281741130991,-10146,4633,2688,11473.070600323175
1735562056624,-81,233,940,971.8281741130991,-10107,4604,6023,12634.270616066446
1735562056654,-76,294,990,1035.524987627049,-10125,4566,9350,14518.487558971148
1735562056684,-76,294,990,1035.524987627049,-10181,4548,12654,16865.965166571405
1735562056714,-76,294,990,1035.524987627049,-10233,4552,15954,19492.693733807035
1735562056744,-98,263,1010,1048.2714343146054,-10248,4568,-16749,20159.789904659225
1735562056775,-98,263,1010,1048.2714343146054,-10221,4576,-13436,17490.989480300992
1735562056805,-98,263,1010,1048.2714343146054,-10196,4574,-10122,15077.625011917493
1735562056834,-43,209,924,948.317457394938,-10199,4567,-6830,13096.793118928008
1735562056864,-43,209,924,948.317457394938,-10240,4568,-3637,11787.78999643275
1735562056894,-43,209,924,948.317457394938,-10267,4580,-438,11250.756996753596
1735562056924,-43,209,924,948.317457394938,-10275,4599,2774,11594.028721717055
1735562056954,-86,215,896,925.438814833266,-10228,4616,6072,12758.864526281326
1735562056984,-86,215,896,925.438814833266,-10172,4613,9393,14593.75900856253
1735562057014,-86,215,896,925.438814833266,-10138,4593,12702,16888.324280401535
1735562057044,-105,348,964,1030.254822847241,-10163,4573,16026,19520.030071698147
1735562057074,-105,348,964,1030.254822847241,-10244,4590,-16620,20055.723272921372
1735562057104,-105,348,964,1030.254822847241,-10282,4631,-13241,17392.232921623377
1735562057134,-93,296,1077,1120.800606709329,-10269,4670,-9830,14962.959633708833
1735562057164,-93,296,1077,1120.800606709329,-10200,4679,-6423,12930.118715618972
1735562057194,-93,296,1077,1120.800606709329,-10148,4663,-3022,11569.699952894198
1735562057225,-52,315,831,890.2190741609618,-10127,4635,362,11143.17719503733
1735562057255,-52,315,831,890.2190741609618,-10183,4618,3689,11774.044929419966
1735562057284,-52,315,831,890.2190741609618,-10234,4622,7013,13239.328117393268
1735562057314,-52,315,831,890.2190741609618,-10264,4641,10348,15296.06750115859
1735562057344,-104,309,964,1017.6408993353206,-10236,4667,13711,17735.504108989968
1735562057374,-104,309,964,1017.6408993353206,-10181,4674,17109,20450.352515299095
1735562057404,-104,309,964,1017.6408993353206,-10139,4662,-15496,19096.06192386273
1735562057434,-86,221,976,1004.3968339257149,-10118,4639,-12126,16460.076579408735
1735562057464,-86,221,976,1004.3968339257149,-10064,4594,-8822,14149.792083278115
1735562057494,-86,221,976,1004.3968339257149,-10068,4541,-5560,12365.229678416814
1735562057524,-105,252,922,961.5679903158175,-10121,4499,-2336,11319.56439091187
1735562057554,-105,252,922,961.5679903158175,-10210,4490,890,11189.115246524187
1735562057584,-105,252,922,961.5679903158175,-10276,4511,4125,11956.626698195441
1735562057614,-105,252,922,961.5679903158175,-10303,4550,7385,13468.204557401108
1735562057644,-156,301,901,962.672322236388,-10279,4599,10766,15579.32598028554
1735562057674,-156,301,901,962.672322236388,-10217,4634,14203,18099.344021262208
1735562057705,-156,301,901,962.672322236388,-10146,4639,17656,20885.30519288622
1735562057734,-25,306,865,917.8703612166589,-10126,4615,-14947,18634.56224331551
1735562057762,-25,306,865,917.8703612166589,-10202,4595,-11674,16170.253708584785
1735562057794,-25,306,865,917.8703612166589,-10269,4604,-8404,14045.51148944032
1735562057824,-79,351,1005,1067.4581959027716,-10311,4638,-5111,12407.662390635876
1735562057854,-79,351,1005,1067.4581959027716,-10302,4697,-1702,11449.446143809751
1735562057884,-79,351,1005,1067.4581959027716,-10243,4741,1751,11422.00205743284
1735562057914,-79,351,1005,1067.4581959027716,-10165,4755,5230,12381.039940166576
1735562057944,-39,323,904,960.7632382642458,-10111,4727,8598,14089.089892537417
1735562057974,-39,323,904,960.7632382642458,-10107,4685,11916,16312.318351479043
1735562058004,-39,323,904,960.7632382642458,-10140,4652,15202,18856.338668999346
1735562058034,-88,311,993,1044.2767832332577,-10131,4626,-17428,20682.655076174335
1735562058065,-88,311,993,1044.2767832332577,-10099,4591,-14004,17865.58417740657
1735562058094,-88,311,993,1044.2767832332577,-10110,4553,-10613,15348.53993056017
1735562058125,-72,340,891,956.3812001498147,-10157,4527,-7269,13285.207525665528
1735562058154,-72,340,891,956.3812001498147,-10260,4530,-3996,11906.154542924429
1735562058184,-72,340,891,956.3812001498147,-10325,4567,-704,11311.884458391538
1735562058214,-72,340,891,956.3812001498147,-10338,4617,2624,11622.233391220467
1735562058244,-140,345,906,979.5208012084277,-10276,4676,6060,12813.459798196582
1735562058274,-140,345,906,979.5208012084277,-10166,4700,9558,14723.889431804357
1735562058304,-140,345,906,979.5208012084277,-10075,4681,13055,17142.065540651744
1735562058334,-66,242,840,876.6527248574546,-10048,4634,16470,19841.803345462326
1735562058364,-66,242,840,876.6527248574546,-10073,4576,-16228,19640.597979695016
1735562058394,-66,242,840,876.6527248574546,-10137,4539,-12965,17071.980406502345
1735562058424,-51,310,905,957.9801668093135,-10218,4531,-9726,14816.631229803892
1735562058454,-51,310,905,957.9801668093135,-10357,4567,-6513,13059.253692305698
1735562058484,-51,310,905,957.9801668093135,-10418,4642,-3252,11859.949072403304
1735562058514,-51,310,905,957.9801668093135,-10396,4720,73,11417.554247736247
1735562058544,44,258,907,944.0068855681086,-10335,4766,3343,11861.813942226543
1735562058574,44,258,907,944.0068855681086,-10271,4781,6598,13110.492210439697
1735562058604,44,258,907,944.0068855681086,-10215,4774,9854,14974.599059741133
1735562058634,-92,232,919,952.2861964766685,-10109,4749,13200,17291.17931200761
1735562058664,-92,232,919,952.2861964766685,-9966,4679,16639,19951.70463895253
1735562058694,-92,232,919,952.2861964766685,-9936,4579,-16001,19383.584240279197
1735562058725,-17,299,1015,1058.2603649386099,-9999,4490,-12718,16789.509373415294
1735562058753,-17,299,1015,1058.2603649386099,-10218,4457,-9564,14688.174461109862
1735562058784,-17,299,1015,1058.2603649386099,-10391,4499,-6400,13006.686049874503
1735562058815,-17,299,1015,1058.2603649386099,-10474,4589,-3181,11869.387431540012
1735562058845,-75,322,946,1002.1102733731453,-10440,4691,130,11446.22125419564
1735562058874,-75,322,946,1002.1102733731453,-10316,4761,3542,11900.955465843908
1735562058904,-75,322,946,1002.1102733731453,-10173,4775,6989,13233.921376523287
1735562058934,15,242,954,984.3297211808652,-10096,4738,10367,15226.705126191942
1735562058964,15,242,954,984.3297211808652,-10102,4679,13617,17588.807065858673
1735562058994,15,242,954,984.3297211808652,-10156,4635,16825,20191.78511177256
1735562059024,109,311,880,939.681861057241,-10221,4618,-15977,19520.740098674538
1735562059054,109,311,880,939.681861057241,-10395,4646,-12862,17177.671116888923
1735562059084,109,311,880,939.681861057241,-10490,4721,-9702,15048.479823556929
1735562059114,109,311,880,939.681861057241,-10490,4812,-6472,13231.8641165937
1735562059144,-39,286,936,979.4962991252188,-10269,4862,-3021,11756.608609628884
1735562059174,-39,286,936,979.4962991252188,-10035,4820,489,11143.282550487536
1735562059204,-39,286,936,979.4962991252188,-9925,4713,3921,11665.857662426712
1735562059234,-60,270,893,934.852394766147,-9943,4610,7233,13131.322781806866
1735562059264,-60,270,893,934.852394766147,-10022,4537,10479,15193.231848425141
1735562059295,-60,270,893,934.852394766147,-10134,4504,13686,17615.066505693358
1735562059325,-85,291,1075,1116.929272604134,-10242,4511,16881,20253.785967072923
1735562059355,-85,291,1075,1116.929272604134,-10320,4551,-15889,19485.233434578095
1735562059385,-85,291,1075,1116.929272604134,-10339,4608,-12619,16951.924551507418
1735562059414,-85,291,1075,1116.929272604134,-10302,4660,-9303,14642.151925178212
1735562059444,-80,325,1006,1060.217430530172,-10263,4696,-5941,12754.491993019557
1735562059474,-80,325,1006,1060.217430530172,-10213,4717,-2557,11536.62459300813
1735562059504,-80,325,1006,1060.217430530172,-10162,4717,834,11234.406481875221
1735562059534,-122,347,739,825.478043317931,-10142,4704,4232,11953.978584555018
1735562059564,-122,347,739,825.478043317931,-10135,4691,7653,13538.541834333562
1735562059595,-122,347,739,825.478043317931,-10142,4679,11062,15720.084255499396
1735562059624,-139,413,1126,1207.3798076827359,-10120,4641,14531,18305.825356973117
1735562059653,-139,413,1126,1207.3798076827359,-10142,4555,-17899,21070.88963475439
1735562059684,-139,413,1126,1207.3798076827359,-10230,4497,-14390,18219.440414019307
1735562059714,-139,413,1126,1207.3798076827359,-10335,4483,-10907,15680.311317062553
1735562059744,47,300,850,902.6123198804678,-10407,4537,-7672,13702.175082810758
1735562059774,47,300,850,902.6123198804678,-10438,4595,-4469,12248.993019836365
1735562059804,47,300,850,902.6123198804678,-10410,4652,-1218,11467.027862528284
1735562059834,-72,325,866,927.7742182233778,-10392,4720,2041,11594.729190455464
1735562059864,-72,325,866,927.7742182233778,-10291,4787,5421,12578.047980509535
1735562059894,-72,325,866,927.7742182233778,-10163,4807,8838,14300.491669869256
1735562059924,13,352,866,934.8951812903947,-10078,4777,12244,16562.045435271575
1735562059954,13,352,866,934.8951812903947,-10172,4734,15498,19132.912585385424
1735562059984,13,352,866,934.8951812903947,-10272,4729,-17263,20637.06844491242
1735562060014,13,352,866,934.8951812903947,-10342,4756,-14012,18053.050822506426
1735562060044,-5,308,1002,1048.2809737851776,-10290,4792,-10674,15581.451793719352
1735562060074,-5,308,1002,1048.2809737851776,-10210,4798,-7311,13443.051178954873
1735562060104,-5,308,1002,1048.2809737851776,-10153,4778,-3956,11898.009455366893
1735562060135,-67,271,954,994.0050301683589,-10068,4740,-568,11142.47943682195
1735562060164,-67,271,954,994.0050301683589,-9982,4668,2837,11378.889093404505
1735562060194,-67,271,954,994.0050301683589,-9989,4584,6173,12605.518870716905
1735562060224,-62,280,994,1034.5433775342626,-10073,4520,9433,14521.612100589935
1735562060254,-62,280,994,1034.5433775342626,-10210,4496,12626,16848.56053198611
1735562060284,-62,280,994,1034.5433775342626,-10320,4521,15823,19424.447739897267
1735562060314,-62,280,994,1034.5433775342626,-10373,4575,-16944,20386.978442133106
1735562060344,-10,363,866,939.0553764288877,-10479,4669,-13748,17905.76739489263
1735562060374,-10,363,866,939.0553764288877,-10502,4788,-10483,15591.992720624263
1735562060404,-10,363,866,939.0553764288877,-10410,4889,-7120,13526.448942719593
1735562060434,-34,257,853,891.5234152841977,-10170,4919,-3608,11859.305418109443
1735562060464,-34,257,853,891.5234152841977,-9913,4832,-75,11028.210099558313
1735562060494,-34,257,853,891.5234152841977,-9832,4684,3335,11389.921202536916
1735562060524,-102,335,852,921.1585097039489,-9874,4536,6659,12744.15367923661
1735562060554,-102,335,852,921.1585097039489,-9980,4423,10039,14830.537751544953
1735562060584,-102,335,852,921.1585097039489,-10140,4371,13360,17332.4793667842
1735562060614,-102,335,852,921.1585097039489,-10287,4383,16671,20073.74651130177
1735562060644,-3,269,909,947.9720460013576,-10458,4449,-16184,19775.8747214883
1735562060674,-3,269,909,947.9720460013576,-10533,4553,-13013,17349.699334570614
1735562060704,-3,269,909,947.9720460013576,-10497,4661,-9756,15069.554273434898
1735562060734,-107,270,1031,1071.1255762047697,-10399,4749,-6430,13116.29147282112
1735562060764,-107,270,1031,1071.1255762047697,-10215,4792,-2985,11671.320148123776
1735562060794,-107,270,1031,1071.1255762047697,-10058,4765,459,11139.087485068065
1735562060824,-108,284,1089,1130.5932071262414,-9967,4686,3878,11676.410792705094
1735562060854,-108,284,1089,1130.5932071262414,-9970,4580,7259,13155.621650077963
1735562060884,-108,284,1089,1130.5932071262414,-10062,4498,10563,15266.067502798485
1735562060914,-109,276,655,719.0841397221885,-10162,4463,13816,17721.920578763464
1735562060944,-109,276,655,719.0841397221885,-10207,4452,17038,20354.277118089947
1735562060974,-109,276,655,719.0841397221885,-10246,4457,-15740,19302.66730273306
1735562061005,-109,276,655,719.0841397221885,-10268,4474,-12509,16790.580126964047
1735562061034,304,17,426,523.6229559520858,-10359,4475,-9573,14797.865893432067
1735562061064,304,17,426,523.6229559520858,-10476,4488,-6799,13270.837238094664
1735562061094,304,17,426,523.6229559520858,-10549,4532,-4003,12159.129656352876
1735562061124,-86,212,910,938.3176434449051,-10573,4593,-1139,11583.665179898804
1735562061154,-86,212,910,938.3176434449051,-10351,4692,2322,11599.558138136124
1735562061184,-86,212,910,938.3176434449051,-10114,4698,5828,12582.91635512213
1735562061214,-78,327,915,974.8015182589736,-9971,4627,9280,14385.700191509623
1735562061244,-78,327,915,974.8015182589736,-10048,4557,12623,16765.103101382945
1735562061274,-78,327,915,974.8015182589736,-10155,4529,15930,19426.805347251513
1735562061304,-78,327,915,974.8015182589736,-10249,4541,-16764,20166.66501928368
1735562061334,-57,248,959,992.1864744089188,-10330,4578,-13523,17622.10296758023
1735562061364,-57,248,959,992.1864744089188,-10343,4625,-10254,15281.125285789656
1735562061394,-57,248,959,992.1864744089188,-10311,4666,-6949,13280.695689609034
1735562061424,-54,332,776,845.7635603405954,-10287,4693,-3635,11876.861664598102
1735562061454,-54,332,776,845.7635603405954,-10291,4724,-309,11327.680168507584
1735562061484,-54,332,776,845.7635603405954,-10266,4749,3040,11712.615292922414
1735562061514,-40,399,992,1069.9836447348155,-10231,4760,6427,12986.042122217223
1735562061544,-40,399,992,1069.9836447348155,-10266,4776,9845,15004.164655188239
1735562061574,-40,399,992,1069.9836447348155,-10274,4799,13283,17464.923876158176
1735562061604,-40,399,992,1069.9836447348155,-10257,4820,16741,20216.318408651958
1735562061634,-49,361,1150,1206.3258266322578,-10181,4818,-15758,19369.575343822075
1735562061664,-49,361,1150,1206.3258266322578,-10124,4788,-12272,16613.918983791875
1735562061694,-49,361,1150,1206.3258266322578,-10116,4746,-8821,14236.151621839379
1735562061724,-94,310,882,939.6063005323027,-10087,4708,-5405,12374.443745073957
1735562061754,-94,310,882,939.6063005323027,-10041,4651,-2003,11245.687662388636
1735562061784,-94,310,882,939.6063005323027,-10061,4592,1347,11141.121756807077
1735562061814,44,294,914,961.128503375069,-10130,4546,4646,12036.126120974306
1735562061844,44,294,914,961.128503375069,-10331,4525,7731,13673.827079497532
1735562061874,44,294,914,961.128503375069,-10485,4568,10829,15750.209204959787
1735562061904,44,294,914,961.128503375069,-10555,4652,13981,18125.051448202845
1735562061934,7,281,884,927.6130658846931,-10518,4758,17209,20722.36880764359
1735562061964,7,281,884,927.6130658846931,-10387,4829,-15468,19247.546181266847
1735562061994,7,281,884,927.6130658846931,-10236,4843,-12111,16580.309586976957
1735562062024,-6,285,961,1002.3881483736726,-10107,4798,-8731,14191.638876465255
1735562062054,-6,285,961,1002.3881483736726,-10053,4716,-5384,12340.62077044749
1735562062084,-6,285,961,1002.3881483736726,-10088,4635,-2109,11300.39158613541
1735562062114,-22,277,967,1006.1321980733943,-10182,4587,1109,11222.458465060141
1735562062144,-22,277,967,1006.1321980733943,-10264,4587,4322,12044.498702727316
1735562062174,-22,277,967,1006.1321980733943,-10319,4613,7549,13592.237895210634
1735562062204,-22,277,967,1006.1321980733943,-10334,4651,10803,15656.569419895279
1735562062234,-66,290,959,1004.060257155914,-10282,4678,14120,18082.5221692108
1735562062264,-66,290,959,1004.060257155914,-10215,4682,17467,20769.29074378805
1735562062295,-66,290,959,1004.060257155914,-10168,4664,-15192,18866.318771821916
1735562062324,-121,270,947,992.144142753461,-10132,4643,-11835,16256.75545734757
1735562062354,-121,270,947,992.144142753461,-10087,4612,-8447,13941.661378759707
1735562062384,-121,270,947,992.144142753461,-10085,4573,-5089,12186.774593796343
1735562062414,-51,333,958,1015.506770041441,-10119,4538,-1753,11227.671797839479
1735562062444,-51,333,958,1015.506770041441,-10283,4531,1498,11336.403927171967
1735562062474,-51,333,958,1015.506770041441,-10396,4579,4771,12320.977964431233
1735562062504,-51,333,958,1015.506770041441,-10431,4653,8097,14000.627807352068
1735562062535,-57,274,898,940.6003402083161,-10332,4711,11528,16181.425431648473
1735562062565,-57,274,898,940.6003402083161,-10203,4717,14988,18734.765597679627
1735562062595,-57,274,898,940.6003402083161,-10116,4679,-17571,20807.847990602007
1735562062625,-12,247,917,949.7589167783581,-10100,4624,-14253,18070.400797990067
1735562062654,-12,247,917,949.7589167783581,-10149,4572,-11046,15681.820716995842
1735562062684,-12,247,917,949.7589167783581,-10223,4547,-7867,13677.522692359169
1735562062714,-100,332,877,943.0551415479373,-10292,4551,-4675,12185.749464025592
1735562062745,-100,332,877,943.0551415479373,-10319,4596,-1318,11372.866876913666
1735562062773,-100,332,877,943.0551415479373,-10297,4641,2076,11483.765323272677
1735562062804,-100,332,877,943.0551415479373,-10243,4669,5503,12530.028691108413
1735562062834,9,242,1042,1069.7705361431488,-10236,4650,8773,14260.565381498729
1735562062864,9,242,1042,1069.7705361431488,-10258,4628,11981,16437.4362051994
1735562062894,9,242,1042,1069.7705361431488,-10292,4617,15176,18909.07001943776
1735562062924,-34,318,984,1034.667096219842,-10328,4633,-17583,20911.5796151319
1735562062954,-34,318,984,1034.667096219842,-10344,4673,-14268,18232.144388414654
1735562062984,-34,318,984,1034.667096219842,-10319,4711,-10919,15744.8354389622
1735562063014,-84,320,896,955.129310617154,-10272,4734,-7555,13601.572151777162
1735562063044,-84,320,896,955.129310617154,-10183,4737,-4137,11968.601714486116
1735562063074,-84,320,896,955.129310617154,-10121,4711,-732,11187.671160701855
1735562063104,-84,320,896,955.129310617154,-10105,4672,2642,11441.974174066292
1735562063134,-200,340,898,980.8180259354943,-10039,4634,6145,12649.762922679618
1735562063164,-200,340,898,980.8180259354943,-10006,4580,9653,14638.198147313076
1735562063194,-200,340,898,980.8180259354943,-10031,4528,13116,17121.717232801155
1735562063224,-78,255,840,881.3109553386931,-10085,4486,16480,19834.863775685477
1735562063254,-78,255,840,881.3109553386931,-10173,4457,-16286,19712.650100886993
1735562063285,-78,255,840,881.3109553386931,-10255,4462,-13059,17193.36936147188
1735562063315,-83,313,964,1016.933626152661,-10302,4497,-9801,14913.544649076557
1735562063344,-83,313,964,1016.933626152661,-10334,4559,-6469,13016.297399798454
1735562063374,-83,313,964,1016.933626152661,-10302,4619,-3086,11704.262514144153
1735562063404,-83,313,964,1016.933626152661,-10229,4655,335,11243.384321457663
1735562063434,-132,266,987,1030.7031580430905,-10123,4666,3752,11761.130430362551
1735562063464,-132,266,987,1030.7031580430905,-10023,4631,7174,13167.116844624717
1735562063494,-132,266,987,1030.7031580430905,-9989,4572,10553,15233.158372445288
1735562063524,-58,266,901,941.2337648002222,-10042,4526,13838,17686.624437693023
1735562063554,-58,266,901,941.2337648002222,-10154,4517,17034,20338.73548183367
1735562063584,-58,266,901,941.2337648002222,-10236,4545,-15757,19331.729617393266
1735562063614,-71,294,980,1025.6105498677362,-10275,4590,-12506,16823.90445170205
1735562063644,-71,294,980,1025.6105498677362,-10289,4641,-9178,14547.786292078943
1735562063674,-71,294,980,1025.6105498677362,-10254,4685,-5809,12682.200991941423
1735562063704,-71,294,980,1025.6105498677362,-10192,4709,-2411,11483.22541797382
1735562063734,-75,316,977,1029.567870516558,-10140,4737,922,11229.819811555304
1735562063764,-75,316,977,1029.567870516558,-10086,4744,4270,11935.905160481127
1735562063794,-75,316,977,1029.567870516558,-10045,4732,7615,13464.103163597641
1735562063824,-122,250,962,1001.4130017130794,-9992,4697,11025,15602.964397831587
1735562063854,-122,250,962,1001.4130017130794,-9934,4634,14461,18146.041799797553
1735562063884,-122,250,962,1001.4130017130794,-9951,4566,17839,20930.854688712545
1735562063914,-83,257,963,1000.153488220683,-10023,4520,-14842,18470.947268616193
1735562063944,-83,257,963,1000.153488220683,-10150,4514,-11619,16074.820589978603
1735562063974,-83,257,963,1000.153488220683,-10239,4550,-8381,13992.168595325029
1735562064005,-83,257,963,1000.153488220683,-10269,4607,-5103,12357.888937840477
1735562064035,4,300,751,808.713175359472,-10275,4648,-1782,11417.313738353694
1735562064065,4,300,751,808.713175359472,-10275,4691,1538,11399.410072455505
1735562064094,4,300,751,808.713175359472,-10237,4725,4891,12289.982709507773
1735562064124,-21,198,1030,1049.0686345516199,-10155,4737,8196,13882.99715479334
1735562064154,-21,198,1030,1049.0686345516199,-10037,4699,11471,15950.103792765738
1735562064184,-21,198,1030,1049.0686345516199,-9991,4633,14697,18365.36356841323
1735562064214,-23,281,857,902.1856793365765,-10019,4572,17868,20989.258419486858
1735562064244,-23,281,857,902.1856793365765,-10147,4560,-14987,18664.548695320762
1735562064273,-23,281,857,902.1856793365765,-10242,4590,-11832,16308.368649254897
1735562064304,-23,281,857,902.1856793365765,-10280,4645,-8641,14209.90168861136
1735562064334,-33,263,954,990.1383741679746,-10258,4691,-5345,12482.029882995794
1735562064364,-33,263,954,990.1383741679746,-10195,4719,-2013,11413.113291297866
1735562064394,-33,263,954,990.1383741679746,-10130,4721,1329,11254.820389504224
1735562064424,-83,279,997,1038.6236084357029,-10078,4702,4678,12064.765725035857
1735562064454,-83,279,997,1038.6236084357029,-10042,4668,8041,13685.381580357925
1735562064484,-83,279,997,1038.6236084357029,-10048,4631,11373,15866.74490877067
1735562064514,-125,275,939,986.3929237377973,-10089,4598,14675,18392.529733563028
1735562064544,-125,275,939,986.3929237377973,-10121,4570,17997,21147.376905895446
1735562064575,-125,275,939,986.3929237377973,-10165,4559,-14695,18440.57295747613
1735562064604,-135,363,909,988.0662933224673,-10192,4568,-11366,15935.163758179582
1735562064634,-135,363,909,988.0662933224673,-10236,4607,-7958,13759.720527685145
1735562064664,-135,363,909,988.0662933224673,-10229,4653,-4513,12109.91407896852
1735562064694,-135,363,909,988.0662933224673,-10185,4686,-1033,11258.770359146687
1735562064724,-44,355,873,943.4458119044252,-10182,4691,2384,11461.328936907796
1735562064755,-44,355,873,943.4458119044252,-10198,4698,5768,12623.004079853576
1735562064784,-44,355,873,943.4458119044252,-10202,4708,9161,14497.240737464492
1735562064814,-82,258,963,1000.3284460615923,-10190,4717,12544,16835.62071917754
1735562064844,-82,258,963,1000.3284460615923,-10063,4690,15931,19417.951230755523
1735562064874,-82,258,963,1000.3284460615923,-10005,4628,-16725,20031.07670595867
1735562064904,-182,270,774,839.7023282092291,-9999,4557,-13414,17340.174335917156
1735562064934,-182,270,774,839.7023282092291,-9952,4482,-9992,14797.658328262618
1735562064964,-182,270,774,839.7023282092291,-9984,4408,-6631,12770.312486388108
1735562064994,-182,270,774,839.7023282092291,-10064,4361,-3316,11458.545850150445
1735562065025,-138,325,909,975.1666524240869,-10232,4371,-35,11126.575843447974
1735562065055,-138,325,909,975.1666524240869,-10356,4443,3263,11731.758350733278
1735562065085,-138,325,909,975.1666524240869,-10379,4541,6632,13127.366300975988
1735562065115,-153,271,871,924.9275647314226,-10347,4627,10002,15116.53207584332
1735562065145,-153,271,871,924.9275647314226,-10216,4675,13409,17493.529146515863
1735562065175,-153,271,871,924.9275647314226,-10089,4668,16831,20170.788432780708
1735562065205,-62,310,891,945.4231856687247,-10013,4621,-15759,19234.34144960518
1735562065234,-62,310,891,945.4231856687247,-10106,4575,-12472,16691.693892472387
1735562065264,-62,310,891,945.4231856687247,-10206,4567,-9203,14481.544599938226
1735562065295,-62,310,891,945.4231856687247,-10278,4594,-5924,12721.473813988692
1735562065325,-39,331,1016,1069.2698443330382,-10314,4636,-2569,11596.156820257305
1735562065354,-39,331,1016,1069.2698443330382,-10310,4685,816,11353.905979881989
1735562065384,-39,331,1016,1069.2698443330382,-10264,4721,4239,12066.758388233353
1735562065414,-40,292,927,972.7245242102206,-10199,4728,7646,13595.399994115656
1735562065445,-40,292,927,972.7245242102206,-10139,4702,11027,15700.409357720582
1735562065474,-40,292,927,972.7245242102206,-10122,4663,14377,18190.56299293675
1735562065504,-124,256,930,972.5286628166801,-10154,4630,17678,20905.795847085086
1735562065534,-124,256,930,972.5286628166801,-10119,4609,-14972,18649.338486927627
1735562065564,-124,256,930,972.5286628166801,-10115,4582,-11645,16090.804019687766
1735562065594,-124,256,930,972.5286628166801,-10135,4558,-8338,13893.013819902433
1735562065625,-25,273,888,929.3535387569146,-10219,4536,-5105,12290.821046618488
1735562065655,-25,273,888,929.3535387569146,-10322,4550,-1912,11441.238044897065
1735562065684,-25,273,888,929.3535387569146,-10379,4595,1306,11425.554778652982
1735562065714,-95,253,850,891.9271270681254,-10351,4658,4604,12248.958363877315
1735562065744,-95,253,850,891.9271270681254,-10226,4696,8008,13811.283647800446
1735562065774,-95,253,850,891.9271270681254,-10111,4685,11420,15956.125657564871
1735562065804,-64,233,881,913.5348926012624,-10036,4638,14807,18479.166350244268
1735562065834,-64,233,881,913.5348926012624,-10019,4568,-17885,21002.861947839396
1735562065864,-64,233,881,913.5348926012624,-10067,4508,-14630,18322.21201165405
1735562065894,-64,233,881,913.5348926012624,-10147,4475,-11411,15912.20145045933
1735562065924,-84,253,926,963.6083229196394,-10226,4465,-8207,13851.431333981336
1735562065954,-84,253,926,963.6083229196394,-10285,4484,-4990,12279.559479069272
1735562065984,-84,253,926,963.6083229196394,-10310,4518,-1750,11391.704174529814
1735562066014,-103,271,938,981.7810346508023,-10314,4554,1508,11375.041802120993
1735562066044,-103,271,938,981.7810346508023,-10291,4589,4804,12249.163971471686
1735562066074,-103,271,938,981.7810346508023,-10247,4609,8121,13863.42421626057
1735562066104,-38,214,969,993.076532800972,-10213,4615,11438,16013.476761777874
1735562066134,-38,214,969,993.076532800972,-10213,4614,14662,18454.501049879404
1735562066164,-38,214,969,993.076532800972,-10215,4613,17886,21107.699779938124
1735562066194,-38,214,969,993.076532800972,-10217,4613,-14891,18638.90391090635
1735562066224,-55,335,852,917.1444815294916,-10246,4619,-11622,16167.45375747214
1735562066254,-55,335,852,917.1444815294916,-10280,4645,-8332,14024.145214593294
1735562066284,-55,335,852,917.1444815294916,-10280,4677,-5017,12358.115471219711
1735562066314,-68,271,904,946.1928978807651,-10243,4699,-1679,11393.800551176942
1735562066344,-68,271,904,946.1928978807651,-10169,4692,1671,11323.235668306123
1735562066375,-68,271,904,946.1928978807651,-10128,4663,5004,12221.291625683432
1735562066405,-129,321,837,905.6770947749534,-10121,4627,8324,13897.220801296928
1735562066434,-129,321,837,905.6770947749534,-10128,4600,11720,16158.427646277964
1735562066464,-129,321,837,905.6770947749534,-10153,4583,15099,18763.451148442815
1735562066494,-129,321,837,905.6770947749534,-10185,4578,-17530,20784.44632411458
1735562066524,-105,292,928,978.5054930862677,-10207,4574,-14213,18086.28469310378
1735562066555,-105,292,928,978.5054930862677,-10226,4576,-10905,15634.253324031819
1735562066584,-105,292,928,978.5054930862677,-10237,4584,-7594,13545.407376671992
1735562066614,29,267,966,1002.6395164763854,-10281,4595,-4318,12060.601560452944
1735562066644,29,267,966,1002.6395164763854,-10365,4623,-1129,11405.26172430953
1735562066674,29,267,966,1002.6395164763854,-10398,4673,2093,11590.340029524586
1735562066704,-121,334,885,953.6361989773668,-10365,4725,5366,12591.775331540823
1735562066734,-121,334,885,953.6361989773668,-10192,4762,8881,14332.678361004268
1735562066764,-121,334,885,953.6361989773668,-10047,4734,12395,16642.98621041308
1735562066794,-121,334,885,953.6361989773668,-9980,4666,15860,19310.91805171365
1735562066824,-59,302,888,939.8026388556269,-10012,4582,-16784,20073.30376395475
1735562066854,-59,302,888,939.8026388556269,-10112,4528,-13510,17472.132897846215
1735562066884,-59,302,888,939.8026388556269,-10223,4516,-10258,15170.054350594794
1735562066914,-51,295,932,978.9024466207039,-10319,4547,-7021,13283.50145857635
1735562066944,-51,295,932,978.9024466207039,-10363,4605,-3764,11948.451364088987
1735562066974,-51,295,932,978.9024466207039,-10343,4664,-458,11355.188637799021
1735562067004,-76,239,1017,1047.4664672437013,-10271,4701,2894,11660.535064910186
1735562067034,-76,239,1017,1047.4664672437013,-10124,4682,6293,12806.964862917364
1735562067064,-76,239,1017,1047.4664672437013,-10045,4620,9652,14676.768343201442
1735562067094,-76,239,1017,1047.4664672437013,-10046,4546,12951,17009.310185895254
1735562067124,-130,297,1017,1067.4258756466418,-10119,4507,16248,19664.809025261344
1735562067154,-130,297,1017,1067.4258756466418,-10197,4503,-16447,19868.558754977676
1735562067184,-130,297,1017,1067.4258756466418,-10251,4526,-13133,17263.932518403795
1735562067214,-59,296,992,1036.8997058539462,-10337,4558,-9871,15002.185640765814
1735562067244,-59,296,992,1036.8997058539462,-10427,4616,-6655,13202.984889789126
1735562067274,-59,296,992,1036.8997058539462,-10438,4692,-3381,11933.05782270412
1735562067304,15,332,941,997.9629251630544,-10363,4756,-31,11402.292137986993
1735562067334,15,332,941,997.9629251630544,-10320,4788,3299,11845.283660596735
1735562067364,15,332,941,997.9629251630544,-10263,4800,6647,13135.896543441562
1735562067394,15,332,941,997.9629251630544,-10215,4791,9995,15073.152656295895
1735562067424,-76,365,919,991.746943529447,-10115,4776,13454,17496.671597763958
1735562067454,-76,365,919,991.746943529447,-10047,4731,16920,20238.848040340636
1735562067484,-76,365,919,991.746943529447,-10043,4675,-15660,19182.10296083305
1735562067514,-47,296,928,975.1969031944267,-10080,4623,-12302,16562.54005278176
1735562067544,-47,296,928,975.1969031944267,-10134,4580,-9007,14310.84920610933
1735562067575,-47,296,928,975.1969031944267,-10205,4564,-5733,12563.415538777661
1735562067605,-14,285,972,1013.0177688471215,-10271,4575,-2462,11510.235010632929
1735562067634,-14,285,972,1013.0177688471215,-10335,4607,784,11342.456964873176
1735562067664,-14,285,972,1013.0177688471215,-10351,4652,4063,12053.72448664727
1735562067694,-14,285,972,1013.0177688471215,-10322,4693,7380,13528.944267754228
1735562067725,-57,291,1059,1099.7322401384802,-10260,4722,10732,15580.1382535586
1735562067754,-57,291,1059,1099.7322401384802,-10183,4724,14114,18033.709019500122
1735562067784,-57,291,1059,1099.7322401384802,-10132,4701,17485,20748.061355220638
1735562067814,20,296,895,942.8897072298541,-10151,4657,-15250,18902.194317062767
1735562067844,20,296,895,942.8897072298541,-10252,4628,-12103,16522.847726708613
1735562067874,20,296,895,942.8897072298541,-10343,4636,-8960,14448.243664888823
1735562067904,-61,301,864,916.961285987582,-10389,4671,-5775,12771.068357815646
1735562067934,-61,301,864,916.961285987582,-10308,4712,-2409,11587.10874204605
1735562067964,-61,301,864,916.961285987582,-10218,4718,974,11296.712973250227
1735562067995,-61,301,864,916.961285987582,-10154,4694,4348,12001.768869629177
1735562068025,-45,221,957,983.2166597449415,-10138,4657,7659,13532.441538761585
1735562068054,-45,221,957,983.2166597449415,-10148,4614,10929,15611.340141064124
1735562068084,-45,221,957,983.2166597449415,-10190,4584,14169,18044.658960479137
1735562068114,-79,313,1003,1053.6693029598994,-10250,4581,17437,20738.780822410947
1735562068144,-79,313,1003,1053.6693029598994,-10309,4615,-15239,18968.416565438456
1735562068174,-79,313,1003,1053.6693029598994,-10319,4661,-11880,16411.614241140327
1735562068204,-40,298,828,880.9018106463399,-10270,4696,-8490,14128.178084947825
1735562068234,-40,298,828,880.9018106463399,-10207,4693,-5144,12355.88256661579
1735562068264,-40,298,828,880.9018106463399,-10169,4670,-1812,11335.819555726881
1735562068294,-40,298,828,880.9018106463399,-10164,4640,1496,11272.733120233088
1735562068324,-99,269,928,971.2600063834607,-10121,4609,4839,12128.208565159159
1735562068354,-99,269,928,971.2600063834607,-10099,4565,8173,13770.51033912687
1735562068384,-99,269,928,971.2600063834607,-10122,4523,11471,15952.93872614071
1735562068414,1,307,898,949.027923719845,-10240,4507,14682,18458.921230667842
1735562068444,1,307,898,949.027923719845,-10402,4544,17823,21130.7564701314
1735562068474,1,307,898,949.027923719845,-10482,4625,-14986,18863.80515696661
1735562068504,-65,340,1014,1071.4574186592765,-10471,4713,-11719,16406.985433040405
1735562068534,-65,340,1014,1071.4574186592765,-10359,4782,-8292,14104.38474375965
1735562068564,-65,340,1014,1071.4574186592765,-10222,4800,-4828,12281.647609339718
1735562068594,-17,245,975,1005.4546235410129,-10111,4768,-1370,11262.461764640979
1735562068624,-17,245,975,1005.4546235410129,-10028,4687,1982,11245.313557211288
1735562068653,-17,245,975,1005.4546235410129,-10045,4596,5258,12234.042872247914
1735562068684,-17,245,975,1005.4546235410129,-10132,4530,8472,13962.560939884917
1735562068714,-166,374,969,1051.852175925876,-10245,4521,11773,16248.168973764397
1735562068744,-166,374,969,1051.852175925876,-10315,4559,15151,18887.46957641494
1735562068774,-166,374,969,1051.852175925876,-10328,4612,-17430,20778.426985698414
1735562068804,-87,251,1016,1050.1552266212839,-10288,4657,-14020,18002.527405894984
1735562068834,-87,251,1016,1050.1552266212839,-10214,4663,-10661,15483.096783266583
1735562068864,-87,251,1016,1050.1552266212839,-10160,4645,-7310,13350.570212541485
1735562068894,-81,327,977,1033.4500471720924,-10136,4614,-3964,11821.200785030258
1735562068924,-81,327,977,1033.4500471720924,-10199,4602,-610,11205.8067536434
1735562068955,-81,327,977,1033.4500471720924,-10250,4613,2745,11570.535596937594
1735562068984,-81,327,977,1033.4500471720924,-10274,4638,6118,12825.601116516917
1735562069014,-77,364,1075,1137.563185058307,-10276,4661,9498,14749.003390059954
1735562069044,-77,364,1075,1137.563185058307,-10266,4684,12896,17135.85212354495
1735562069074,-77,364,1075,1137.563185058307,-10240,4699,16310,19823.07496328458
1735562069104,-64,253,941,976.5172809530817,-10162,4694,-16284,19760.276718710193
1735562069134,-64,253,941,976.5172809530817,-10067,4641,-12921,17024.559054495363
1735562069164,-64,253,941,976.5172809530817,-10051,4569,-9614,14639.923428761504
1735562069194,-52,276,990,1029.0675390857493,-10107,4507,-6360,12763.780709491995
1735562069225,-52,276,990,1029.0675390857493,-10233,4485,-3147,11607.459799628858
1735562069255,-52,276,990,1029.0675390857493,-10335,4508,70,11275.601491716528
1735562069285,-52,276,990,1029.0675390857493,-10384,4558,3318,11815.749828089625
1735562069314,-76,253,761,805.5470191118579,-10365,4617,6559,13106.120516766203
1735562069344,-76,253,761,805.5470191118579,-10291,4653,9848,14984.598559854716
1735562069374,-76,253,761,805.5470191118579,-10212,4659,13154,17292.164150273384
1735562069404,-100,292,981,1028.4089653440406,-10173,4650,16472,19910.78132570392
1735562069434,-100,292,981,1028.4089653440406,-10163,4643,-16191,19672.12492335284
1735562069464,-100,292,981,1028.4089653440406,-10162,4634,-12862,17034.41352087004
1735562069494,-92,327,1019,1074.1294149216844,-10163,4625,-9519,14672.714643173567
1735562069524,-92,327,1019,1074.1294149216844,-10191,4625,-6149,12769.38945290651
1735562069554,-92,327,1019,1074.1294149216844,-10210,4633,-2774,11550.059090757934
1735562069584,-92,327,1019,1074.1294149216844,-10215,4646,609,11238.435033402115
1735562069614,-100,379,927,1006.4641076561052,-10227,4660,3983,11923.56565797329
1735562069644,-100,379,927,1006.4641076561052,-10233,4680,7375,13453.895866997038
1735562069674,-100,379,927,1006.4641076561052,-10218,4697,10782,15579.501179434468
1735562069704,-99,282,1052,1093.6311078238402,-10163,4702,14195,18080.193527725303
1735562069734,-99,282,1052,1093.6311078238402,-10078,4669,17591,20804.060324850052
1735562069764,-99,282,1052,1093.6311078238402,-10051,4617,-15052,18678.918437639797
1735562069794,-73,248,932,967.1902604968683,-10080,4563,-11737,16130.236762056533
1735562069824,-73,248,932,967.1902604968683,-10146,4519,-8485,13977.049116319224
1735562069854,-73,248,932,967.1902604968683,-10226,4504,-5254,12347.534490739437
1735562069884,-73,248,932,967.1902604968683,-10291,4517,-2021,11418.949645216937
1735562069914,-163,278,974,1025.9283600719887,-10256,4562,1379,11309.244935007819
1735562069944,-163,278,974,1025.9283600719887,-10178,4585,4845,12169.138589070304
1735562069974,-163,278,974,1025.9283600719887,-10107,4576,8315,13864.719614907472
1735562070004,-117,257,957,997.7910602926847,-10108,4563,11698,16119.424214282593
1735562070034,-117,257,957,997.7910602926847,-10144,4563,15011,18682.928731866425
1735562070064,-117,257,957,997.7910602926847,-10167,4574,-17668,20891.3280812877
1735562070094,-53,231,931,960.6929790521007,-10163,4591,-14322,18151.681299538068
1735562070124,-53,231,931,960.6929790521007,-10161,4599,-11014,15674.977448149646
1735562070154,-53,231,931,960.6929790521007,-10153,4604,-7701,13549.377328866445
1735562070185,-53,231,931,960.6929790521007,-10144,4605,-4385,11972.259018247141
1735562070215,-54,365,943,1012.6154255194812,-10230,4625,-1104,11281.061164624542
1735562070244,-54,365,943,1012.6154255194812,-10297,4682,2211,11525.530530088408
1735562070274,-54,365,943,1012.6154255194812,-10291,4749,5582,12633.938657441708
1735562070305,-56,209,885,911.0664081174325,-10149,4775,9034,14401.943688266525
1735562070334,-56,209,885,911.0664081174325,-9956,4708,12479,16643.696734800236
1735562070364,-56,209,885,911.0664081174325,-9892,4595,15838,19230.39086966253
1735562070394,-151,237,1019,1057.0387883138442,-9944,4486,-16895,20110.901446727843
1735562070424,-151,237,1019,1057.0387883138442,-10012,4417,-13580,17440.367914697214
1735562070454,-151,237,1019,1057.0387883138442,-10112,4385,-10300,15085.448916091294
1735562070484,-151,237,1019,1057.0387883138442,-10203,4393,-7026,13143.984707842596
1735562070514,-107,285,870,921.7233858376384,-10310,4429,-3772,11838.07944727522
1735562070544,-107,285,870,921.7233858376384,-10372,4500,-492,11316.821461877005
1735562070575,-107,285,870,921.7233858376384,-10354,4577,2849,11673.519006709159
1735562070604,-136,260,852,901.1104260855047,-10256,4636,6271,12884.233504558973
1735562070634,-136,260,852,901.1104260855047,-10111,4644,9751,14794.629363387243
1735562070664,-136,260,852,901.1104260855047,-10010,4602,13212,17202.774427399785
1735562070694,-126,284,905,956.8474277542894,-9985,4536,16612,19905.628977754008
1735562070724,-126,284,905,956.8474277542894,-10057,4478,-16071,19480.060934196277
1735562070755,-126,284,905,956.8474277542894,-10151,4456,-12784,16921.270431028515
1735562070784,-126,284,905,956.8474277542894,-10230,4469,-9497,14656.666401334242
1735562070814,-92,328,928,988.5504539475969,-10313,4520,-6172,12840.636783275197
1735562070844,-92,328,928,988.5504539475969,-10342,4594,-2808,11659.61680330876
1735562070874,-92,328,928,988.5504539475969,-10296,4661,615,11318.602475570913
1735562070904,-85,342,936,1000.1424898483216,-10239,4700,4065,11977.117599823423
1735562070934,-85,342,936,1000.1424898483216,-10187,4718,7525,13515.18101987539
1735562070964,-85,342,936,1000.1424898483216,-10138,4716,10990,15678.003699451025
1735562070994,-105,266,987,1027.5942779132238,-10110,4698,14435,18238.764459249975
1735562071024,-105,266,987,1027.5942779132238,-10036,4657,17862,21010.94926460963
1735562071054,-105,266,987,1027.5942779132238,-10025,4602,-14755,18422.51486632593
1735562071084,-105,266,987,1027.5942779132238,-10064,4555,-11415,15885.035284820742
1735562071114,-75,292,922,970.037628136146,-10140,4511,-8127,13755.611582187104
1735562071144,-75,292,922,970.037628136146,-10238,4504,-4869,12198.763093035293
1735562071174,-75,292,922,970.037628136146,-10309,4531,-1599,11373.752371139439
1735562071204,-37,294,871,920.0249996603353,-10337,4578,1694,11431.591708944123
1735562071234,-37,294,871,920.0249996603353,-10332,4629,5001,12376.90858009382
1735562071264,-37,294,871,920.0249996603353,-10286,4667,8346,14044.158963782773
1735562071295,-145,280,899,952.6940747165378,-10232,4682,11693,16227.790884775413
1735562071325,-145,280,899,952.6940747165378,-10101,4668,15134,18784.52504057529
1735562071354,-145,280,899,952.6940747165378,-10029,4615,-17458,20655.769896084726
1735562071384,-145,280,899,952.6940747165378,-10027,4551,-14103,17892.650418537774
1735562071420,-132,274,980,1026.1091559868278,-10103,4521,-10818,15477.0531432828
1735562071443,-132,274,980,1026.1091559868278,-10180,4521,-7547,13454.703638505012
1735562071473,-132,274,980,1026.1091559868278,-10230,4547,-4264,11979.557796513192
1735562071505,-83,299,954,1003.1978867601347,-10267,4577,-971,11282.865726401249
1735562071535,-83,299,954,1003.1978867601347,-10306,4618,2312,11527.57147017532
1735562071565,-83,299,954,1003.1978867601347,-10297,4663,5633,12629.428609402723
1735562071594,-15,308,933,982.6382854336584,-10236,4690,9003,14416.164711878122
1735562071624,-15,308,933,982.6382854336584,-10217,4685,12329,16683.541440593483
1735562071655,-15,308,933,982.6382854336584,-10210,4674,15646,19258.444693172914
1735562071684,-15,308,933,982.6382854336584,-10215,4663,-17045,20411.315954636535
1735562071714,-44,331,896,956.1971554025874,-10205,4672,-13707,17715.853295847763
1735562071744,-44,331,896,956.1971554025874,-10188,4678,-10350,15257.834970925593
1735562071774,-44,331,896,956.1971554025874,-10172,4676,-6993,13199.87155240535
1735562071804,-156,314,1007,1066.2931116723958,-10134,4666,-3587,11719.047785549814
1735562071834,-156,314,1007,1066.2931116723958,-10056,4633,-105,11072.436497898734
1735562071864,-156,314,1007,1066.2931116723958,-10036,4582,3335,11525.547492418744
1735562071894,-120,307,1003,1055.7736499837454,-10068,4536,6736,12934.976459197751
1735562071924,-120,307,1003,1055.7736499837454,-10153,4514,10067,14993.468377930438
1735562071954,-120,307,1003,1055.7736499837454,-10228,4524,13397,17451.59502738933
1735562071984,-152,266,979,1025.8172351837338,-10271,4556,16727,20150.511308649217
1735562072014,-152,266,979,1025.8172351837338,-10222,4583,-15912,19459.828288039953
1735562072044,-152,266,979,1025.8172351837338,-10167,4588,-12540,16783.004290054865
1735562072074,-152,266,979,1025.8172351837338,-10127,4575,-9174,14410.032269221329
1735562072104,-16,275,953,992.01310475215,-10152,4548,-5873,12579.329751620315
1735562072134,-16,275,953,992.01310475215,-10265,4543,-2691,11543.420420308705
1735562072166,-16,275,953,992.01310475215,-10345,4574,504,11322.301753618829
1735562072195,-46,285,929,972.8216691665539,-10369,4622,3741,11952.996528067762
1735562072224,-46,285,929,972.8216691665539,-10323,4661,7063,13348.229058568031
1735562072254,-46,285,929,972.8216691665539,-10259,4677,10408,15344.31080237884
1735562072284,-134,316,880,944.5697433223235,-10212,4672,13751,17753.944040691353
1735562072314,-134,316,880,944.5697433223235,-10149,4662,17189,20498.735717111922
1735562072344,-134,316,880,944.5697433223235,-10116,4634,-15392,18992.65847636923
1735562072374,-134,316,880,944.5697433223235,-10119,4601,-12000,16357.364151965316
1735562072404,-29,308,922,972.5168379005065,-10207,4584,-8708,14178.334493162447
1735562072434,-29,308,922,972.5168379005065,-10305,4602,-5456,12535.524121471746
1735562072464,-29,308,922,972.5168379005065,-10354,4648,-2175,11555.944141436476
1735562072494,-39,422,910,1003.8451075738727,-10345,4702,1151,11421.58614203824
1735562072525,-39,422,910,1003.8451075738727,-10365,4768,4548,12282.15587753225
1735562072555,-39,422,910,1003.8451075738727,-10316,4826,8001,13918.553552722351
1735562072584,-181,359,928,1011.3486045869644,-10229,4854,11494,16133.994948555053
1735562072614,-181,359,928,1011.3486045869644,-9972,4815,15163,18776.090594157242
1735562072644,-181,359,928,1011.3486045869644,-9850,4701,-17252,20414.53905920974
1735562072675,-181,359,928,1011.3486045869644,-9875,4575,-13782,17561.029981182768
1735562072705,-71,299,1000,1046.1558201338842,-10043,4491,-10502,15209.304191842572
1735562072735,-71,299,1000,1046.1558201338842,-10237,4476,-7298,13345.094566918588
1735562072764,-71,299,1000,1046.1558201338842,-10378,4526,-4074,12032.665373889527
1735562072795,-4,275,894,935.3485981173009,-10435,4600,-849,11435.472268341173
1735562072825,-4,275,894,935.3485981173009,-10436,4670,2365,11675.282480522688
1735562072854,-4,275,894,935.3485981173009,-10376,4726,5632,12716.75571834263
1735562072884,-75,263,865,907.2039461995302,-10277,4753,8945,14429.856652094642
1735562072915,-75,263,865,907.2039461995302,-10096,4736,12369,16653.8606034757
1735562072944,-75,263,865,907.2039461995302,-9995,4664,15748,19226.34715696146
1735562072974,-75,263,865,907.2039461995302,-9991,4576,-16944,20195.519131728208
1735562073005,-70,317,842,902.4150929588889,-10097,4509,-13699,17605.200680480753
1735562073035,-70,317,842,902.4150929588889,-10233,4494,-10484,15323.987111714758
1735562073064,-70,317,842,902.4150929588889,-10336,4527,-7257,13416.060300997458
1735562073095,-100,345,1020,1081.3995561308502,-10389,4595,-3971,12033.876640551041
1735562073124,-100,345,1020,1081.3995561308502,-10364,4674,-594,11384.709394622245
1735562073155,-100,345,1020,1081.3995561308502,-10279,4728,2839,11664.979468477432
1735562073185,-83,364,957,1027.2458323108447,-10174,4739,6297,12869.36696189832
1735562073215,-83,364,957,1027.2458323108447,-10128,4712,9716,14804.728433848424
1735562073244,-83,364,957,1027.2458323108447,-10121,4677,13107,17207.626768383838
1735562073274,-83,364,957,1027.2458323108447,-10148,4648,16470,19895.896762900637
1735562073304,-172,359,1010,1085.617335896954,-10147,4631,-16118,19600.961558046074
1735562073335,-172,359,1010,1085.617335896954,-10138,4612,-12686,16881.474580142578
1735562073365,-172,359,1010,1085.617335896954,-10148,4594,-9269,14491.414734248689
1735562073395,-168,365,967,1047.1571037814717,-10177,4593,-5853,12606.529538298793
1735562073424,-168,365,967,1047.1571037814717,-10202,4608,-2427,11454.466246840138
1735562073455,-168,365,967,1047.1571037814717,-10204,4628,1013,11250.163065484874
1735562073484,-130,380,885,971.8667604152331,-10179,4639,4481,12050.382691018573
1735562073514,-130,380,885,971.8667604152331,-10182,4634,7926,13710.162508154308
1735562073544,-130,380,885,971.8667604152331,-10190,4631,11368,15953.48504246016
1735562073574,-130,380,885,971.8667604152331,-10197,4631,14809,18566.945117600793
1735562073605,-151,314,908,972.5538545499678,-10152,4625,-17751,20965.48902363119
1735562073635,-151,314,908,972.5538545499678,-10111,4596,-14321,18123.095155077677
1735562073665,-151,314,908,972.5538545499678,-10109,4561,-10919,15563.39175758292
1735562073694,-102,338,840,911.1794554312559,-10158,4535,-7576,13459.084850018593
1735562073724,-102,338,840,911.1794554312559,-10247,4538,-4288,11999.224849964268
1735562073754,-102,338,840,911.1794554312559,-10303,4569,-983,11313.437099308061
1735562073784,-7,317,1091,1136.1421565983721,-10319,4615,2340,11543.63833459798
1735562073814,-7,317,1091,1136.1421565983721,-10364,4661,5562,12652.006204551119
1735562073844,-7,317,1091,1136.1421565983721,-10356,4711,8826,14399.25459876309
1735562073874,-7,317,1091,1136.1421565983721,-10306,4749,12127,16608.153599964084
1735562073904,-100,288,922,971.0962877078668,-10165,4749,15554,19178.29872538229
1735562073935,-100,288,922,971.0962877078668,-10044,4696,-17007,20302.0294798328
1735562073965,-100,288,922,971.0962877078668,-10013,4616,-13631,17532.021731677156
1735562073995,-83,378,952,1027.6560708719626,-10089,4562,-10300,15122.49202347285
1735562074025,-83,378,952,1027.6560708719626,-10229,4569,-6985,13202.21295843996
1735562074054,-83,378,952,1027.6560708719626,-10315,4621,-3643,11875.365889100007
1735562074085,-74,333,948,1007.5063275235545,-10327,4680,-267,11341.103032774194
1735562074143,-74,333,948,1007.5063275235545,-10268,4703,3097,11710.740454813265
1735562074145,-74,333,948,1007.5063275235545,-10210,4702,6468,12968.728850585165
1735562074175,-74,333,948,1007.5063275235545,-10173,4683,9829,14900.659683383148
1735562074205,-80,412,865,961.4411058406022,-10205,4665,13189,17316.292068453917
1735562074235,-80,412,865,961.4411058406022,-10256,4670,16548,20020.75772791829
1735562074264,-80,412,865,961.4411058406022,-10284,4690,-16080,19655.105087482996
1735562074294,28,392,948,1026.2319425938758,-10322,4724,-12744,17066.616419196864
1735562074324,28,392,948,1026.2319425938758,-10370,4772,-9469,14831.414126778336
1735562074354,28,392,948,1026.2319425938758,-10360,4825,-6149,12977.689547835547
1735562074384,-210,361,1107,1183.1610203180292,-10295,4860,-2764,11715.217496914003
1735562074414,-210,361,1107,1183.1610203180292,-9968,4830,976,11119.464915183644
1735562074444,-210,361,1107,1183.1610203180292,-9796,4700,4624,11808.174795454206
1735562074474,-210,361,1107,1183.1610203180292,-9807,4547,8135,13528.883287248804
1735562074504,-67,358,956,1023.0293250928831,-10027,4439,11389,15809.9579695836
1735562074534,-67,358,956,1023.0293250928831,-10291,4430,14552,18365.464464586785
1735562074564,-67,358,956,1023.0293250928831,-10476,4507,17748,21096.234948445184
1735562074594,-93,321,919,977.8808720902562,-10520,4622,-14965,18867.551748968384
1735562074624,-93,321,919,977.8808720902562,-10420,4716,-11569,16268.337868387169
1735562074655,-93,321,919,977.8808720902562,-10270,4757,-8115,13926.779024598616
1735562074685,40,368,969,1037.2969680858032,-10157,4753,-4694,12156.862012871577
1735562074714,40,368,969,1037.2969680858032,-10261,4762,-1522,11414.08117195598
1735562074744,40,368,969,1037.2969680858032,-10324,4800,1672,11507.4132627624
1735562074774,40,368,969,1037.2969680858032,-10333,4850,4906,12424.259535280162
1735562074804,-197,321,912,986.7086702770986,-10122,4827,8390,14005.24591001529
1735562074834,-197,321,912,986.7086702770986,-9938,4723,11907,16212.563708433037
1735562074864,-197,321,912,986.7086702770986,-9913,4585,15308,18804.910475724155
1735562074894,-30,210,892,916.8773091313799,-10004,4473,-17396,20559.87745586048
1735562074924,-30,210,892,916.8773091313799,-10173,4407,-14262,18064.2249210975
1735562074954,-30,210,892,916.8773091313799,-10337,4408,-11146,15827.739857604432
1735562074984,1,309,771,830.6160364452398,-10454,4461,-8010,13904.917727192778
1735562075015,1,309,771,830.6160364452398,-10598,4564,-4862,12521.451353577188
1735562075044,1,309,771,830.6160364452398,-10610,4695,-1619,11714.789199981364
1735562075074,1,309,771,830.6160364452398,-10503,4802,1726,11676.95546792913
1735562075104,-29,342,880,944.5660379242946,-10342,4871,5195,12556.736439059314
1735562075163,-29,342,880,944.5660379242946,-10170,4875,8709,14249.252822516695
1735562075164,-29,342,880,944.5660379242946,-10059,4823,12192,16525.42507774006
1735562075194,-97,302,973,1023.3972835609835,-10006,4748,15606,19136.634395838784
1735562075224,-97,302,973,1023.3972835609835,-9986,4661,-17015,20272.033494447467
1735562075254,-97,302,973,1023.3972835609835,-10048,4587,-13705,17601.98562662747
1735562075284,-53,419,849,948.2462760274885,-10140,4540,-10431,15239.32285241047
1735562075314,-53,419,849,948.2462760274885,-10353,4543,-7211,13409.77177285281
1735562075344,-53,419,849,948.2462760274885,-10492,4614,-3956,12125.221482513216
1735562075374,-53,419,849,948.2462760274885,-10525,4715,-626,11549.836622221113
1735562075404,-41,374,820,902.1956550549332,-10421,4819,2791,11815.65415032109
1735562075466,-41,374,820,902.1956550549332,-10251,4862,6270,12962.829359364414
1735562075466,-41,374,820,902.1956550549332,-10103,4841,9754,14854.1713333326
1735562075494,-48,389,855,940.558344814398,-10034,4772,13190,17246.13695875108
1735562075525,-48,389,855,940.558344814398,-10057,4697,16563,19938.35567442812
1735562075554,-48,389,855,940.558344814398,-10137,4646,-16116,19597.69223658745
1735562075584,-3,351,865,933.5068291126745,-10235,4633,-12814,17041.66981255065
1735562075614,-3,351,865,933.5068291126745,-10320,4656,-9548,14810.301820017039
1735562075644,-3,351,865,933.5068291126745,-10358,4700,-6252,12979.432499150338
1735562075674,-3,351,865,933.5068291126745,-10345,4746,-2916,11749.323257107193
1735562075704,-71,344,1037,1094.8725953278765,-10230,4777,529,11302.7638212961
1735562075734,-71,344,1037,1094.8725953278765,-10109,4760,4006,11870.025989862028
1735562075764,-71,344,1037,1094.8725953278765,-10048,4707,7447,13363.231719909672
1735562075794,-96,316,972,1026.5748876725945,-10054,4648,10820,15484.160293667848
1735562075824,-96,316,972,1026.5748876725945,-10089,4599,14158,17982.983234157786
1735562075854,-96,316,972,1026.5748876725945,-10153,4572,17465,20712.624604332497
1735562075884,-87,348,937,1003.3155037175494,-10219,4575,-15229,18901.878927768
1735562075914,-87,348,937,1003.3155037175494,-10289,4613,-11903,16395.874450604944
1735562075944,-87,348,937,1003.3155037175494,-10302,4666,-8537,14169.796364097827
1735562075974,-195,362,1036,1114.6142830593908,-10266,4709,-5140,12409.070754895389
1735562076005,-195,362,1036,1114.6142830593908,-10128,4721,-1610,11289.65566348239
1735562076035,-195,362,1036,1114.6142830593908,-10028,4685,1904,11230.993945328259
1735562076065,-195,362,1036,1114.6142830593908,-9997,4625,5372,12255.162912013859
1735562076094,-71,312,979,1029.9640770434667,-10047,4560,8746,14079.358117471123
1735562076124,-71,312,979,1029.9640770434667,-10153,4527,12032,16381.274736723024
1735562076154,-71,312,979,1029.9640770434667,-10250,4535,15312,18975.933942760235
1735562076185,-56,334,961,1018.9273771962357,-10308,4571,-17406,20739.280146620327
1735562076215,-56,334,961,1018.9273771962357,-10348,4619,-14150,18128.39664724931
1735562076245,-56,334,961,1018.9273771962357,-10333,4670,-10852,15695.403562826921
1735562076275,-102,313,941,996.9222637698488,-10280,4705,-7506,13570.389124855632
1735562076304,-102,313,941,996.9222637698488,-10158,4711,-4061,11910.928007506383
1735562076334,-102,313,941,996.9222637698488,-10074,4676,-634,11124.405961668246
1735562076364,-102,313,941,996.9222637698488,-10052,4622,2751,11400.595993192637
1735562076394,-61,263,873,913.7937404031612,-10077,4576,6038,12607.265722590288
1735562076424,-61,263,873,913.7937404031612,-10132,4545,9279,14471.153720419115
1735562076455,-61,263,873,913.7937404031612,-10194,4537,12506,16760.13248754317
1735562076484,-42,342,989,1047.3055905512965,-10269,4547,15761,19352.950446895687
1735562076514,-42,342,989,1047.3055905512965,-10357,4593,-16959,20395.361703093182
1735562076544,-42,342,989,1047.3055905512965,-10377,4657,-13631,17753.138849228886
1735562076574,-63,386,937,1015.3492010141142,-10335,4717,-10253,15303.147486710046
1735562076605,-63,386,937,1015.3492010141142,-10271,4763,-6806,13209.891975334242
1735562076634,-63,386,937,1015.3492010141142,-10187,4778,-3333,11735.12428566481
1735562076664,-63,386,937,1015.3492010141142,-10120,4763,137,11185.675571908923
1735562076694,-98,292,955,1003.4405812005014,-10015,4730,3630,11655.471890918874
1735562076724,-98,292,955,1003.4405812005014,-9951,4658,7085,13073.507180554116
1735562076755,-98,292,955,1003.4405812005014,-9972,4582,10474,15170.371913700732
1735562076784,-87,316,871,930.6266705827853,-10073,4524,13769,17649.851727422527
1735562076814,-87,316,871,930.6266705827853,-10211,4512,17010,20346.07492859495
1735562076844,-87,316,871,930.6266705827853,-10313,4546,-15735,19354.955696151825
1735562076874,-86,335,933,995.04271265107,-10353,4609,-12446,16832.42127562164
1735562076904,-86,335,933,995.04271265107,-10341,4677,-9118,14558.452321589682
1735562076965,-86,335,933,995.04271265107,-10273,4728,-5738,12681.21275746133
1735562076965,-86,335,933,995.04271265107,-10184,4745,-2330,11474.222457317097
1735562076994,-63,305,974,1022.580070214553,-10105,4725,1059,11205.272464335707
1735562077024,-63,305,974,1022.580070214553,-10072,4682,4409,11950.12924616299
1735562077054,-63,305,974,1022.580070214553,-10088,4638,7721,13523.780129830564
1735562077085,-99,302,978,1028.3428416632266,-10122,4604,11026,15659.641630637656
1735562077115,-99,302,978,1028.3428416632266,-10153,4584,14344,18161.68497138963
1735562077145,-99,302,978,1028.3428416632266,-10190,4577,17653,20890.510716590918
1735562077174,-12,296,860,909.5933157186238,-10220,4587,-15031,18746.19774781009
1735562077205,-12,296,860,909.5933157186238,-10298,4615,-11792,16321.712318258767
1735562077234,-12,296,860,909.5933157186238,-10326,4661,-8522,14176.58918781242
1735562077264,-12,296,860,909.5933157186238,-10306,4707,-5212,12471.344314066548
1735562077294,-83,346,970,1033.2013356553505,-10241,4741,-1792,11426.566675953018
1735562077324,-83,346,970,1033.2013356553505,-10159,4748,1675,11338.183716980422
1735562077354,-83,346,970,1033.2013356553505,-10100,4728,5134,12276.886413093509
1735562077384,-131,352,925,998.343628216257,-10053,4687,8588,14027.990661530966
1735562077414,-131,352,925,998.343628216257,-10031,4634,12041,16342.600711025158
1735562077444,-131,352,925,998.343628216257,-10063,4585,15449,18998.889309641236
1735562077474,-165,310,977,1038.197476398397,-10121,4558,-17182,20455.589187310154
1735562077505,-165,310,977,1038.197476398397,-10118,4541,-13808,17710.32097394059
1735562077535,-165,310,977,1038.197476398397,-10130,4527,-10448,15240.450551082798
1735562077564,-165,310,977,1038.197476398397,-10150,4520,-7096,13183.554755831221
1735562077594,-91,251,876,915.7827253229884,-10203,4506,-3825,11791.347251268618
1735562077624,-91,251,876,915.7827253229884,-10256,4509,-586,11218.734910853362
1735562077654,-91,251,876,915.7827253229884,-10289,4529,2662,11552.558417943621
1735562077684,-148,288,1064,1112.179841572396,-10292,4577,5948,12737.852919546527
1735562077714,-148,288,1064,1112.179841572396,-10236,4629,9319,14596.132981033024
1735562077744,-148,288,1064,1112.179841572396,-10154,4651,12721,16928.064213016205
1735562077774,-106,354,907,979.3880742586158,-10075,4632,16137,19579.678700121716
1735562077804,-106,354,907,979.3880742586158,-10124,4591,-16505,19899.43923833031
1735562077835,-106,354,907,979.3880742586158,-10190,4574,-13169,17267.893241504593
1735562077865,-106,354,907,979.3880742586158,-10248,4582,-9835,14924.592222235086
1735562077895,-39,390,933,1011.9832014416049,-10352,4619,-6551,13092.542381065643
1735562077924,-39,390,933,1011.9832014416049,-10415,4689,-3249,11874.971452597265
1735562077955,-39,390,933,1011.9832014416049,-10395,4764,116,11435.260250645806
1735562077985,4,250,954,986.2210705516284,-10296,4814,3479,11886.364162350066
1735562078014,4,250,954,986.2210705516284,-10151,4801,6799,13127.025672253407
1735562078045,4,250,954,986.2210705516284,-10068,4746,10084,15019.19425268879
1735562078074,-62,261,916,954.4742008037724,-10051,4675,13342,17346.100138071382
1735562078105,-62,261,916,954.4742008037724,-10037,4606,16684,20007.810000097463
1735562078134,-62,261,916,954.4742008037724,-10086,4549,-16025,19473.60834565592
1735562078164,-62,261,916,954.4742008037724,-10165,4518,-12768,16934.030028318717
1735562078194,-13,255,842,879.8624892561337,-10244,4520,-9546,14713.804810449268
1735562078224,-13,255,842,879.8624892561337,-10307,4548,-6330,12922.362516196486
1735562078254,-13,255,842,879.8624892561337,-10326,4590,-3085,11713.735569834245
1735562078284,-22,211,1013,1034.9753620255894,-10281,4631,186,11277.39854753746
1735562078314,-22,211,1013,1034.9753620255894,-10189,4642,3481,11725.239699042404
1735562078344,-22,211,1013,1034.9753620255894,-10120,4620,6768,13021.698199543715
1735562078374,-44,238,841,875.134846752202,-10094,4578,10029,14947.500158889445
1735562078405,-44,238,841,875.134846752202,-10121,4533,13284,17304.548130477142
1735562078434,-44,238,841,875.134846752202,-10175,4507,16511,19911.222840398328
1735562078494,-44,238,841,875.134846752202,-10232,4503,-16270,19740.408633055195
1735562078495,-69,222,1084,1108.6482760551246,-10273,4534,-13019,17192.616031308324
1735562078524,-69,222,1084,1108.6482760551246,-10265,4569,-9730,14863.340337891748
1735562078554,-69,222,1084,1108.6482760551246,-10230,4594,-6416,12919.860370762526
1735562078585,-161,242,1046,1085.6339161982735,-10171,4600,-3052,11572.551360871119
1735562078614,-161,242,1046,1085.6339161982735,-10091,4582,380,11089.0669129553
1735562078644,-161,242,1046,1085.6339161982735,-10056,4541,3785,11664.906429114637
1735562078674,-73,273,989,1028.581061462829,-10061,4499,7150,13137.245601723369
1735562078705,-73,273,989,1028.581061462829,-10183,4478,10378,15213.443298609292
1735562078734,-73,273,989,1028.581061462829,-10281,4501,13610,17640.57997912767
1735562078765,-73,273,989,1028.581061462829,-10328,4550,16873,20299.463367291264
1735562078794,-46,183,912,931.3157359349191,-10305,4594,-15844,19450.711992109696
1735562078824,-46,183,912,931.3157359349191,-10242,4614,-12548,16841.611086828954
1735562078854,-46,183,912,931.3157359349191,-10183,4608,-9247,14506.34902378955
1735562078884,-130,228,1005,1038.7054442911137,-10121,4590,-5929,12595.863686147131
1735562078914,-130,228,1005,1038.7054442911137,-10064,4556,-2567,11341.548439256432
1735562078944,-130,228,1005,1038.7054442911137,-10056,4511,760,11047.617706999097
1735562078974,-83,208,878,906.1109203624025,-10077,4471,4060,11748.164537492654
1735562079005,-83,208,878,906.1109203624025,-10130,4437,7288,13244.576739178947
1735562079035,-83,208,878,906.1109203624025,-10193,4426,10501,15289.137516550762
1735562079064,-83,208,878,906.1109203624025,-10243,4439,13716,17684.807773905828
1735562079094,-9,291,808,858.8515587690343,-10360,4480,16891,20315.163819177043
1735562079124,-9,291,808,858.8515587690343,-10440,4562,-15913,19571.127024267153
1735562079154,-9,291,808,858.8515587690343,-10426,4653,-12646,17037.40593517687
1735562079184,-115,189,1070,1092.6326006485438,-10310,4720,-9296,14662.541253138897
1735562079214,-115,189,1070,1092.6326006485438,-10087,4713,-5846,12575.19995864877
1735562079244,-115,189,1070,1092.6326006485438,-9950,4636,-2442,11245.370603052617
1735562079275,-62,253,1002,1035.3052689907456,-9930,4531,897,10951.687997747196
1735562079305,-62,253,1002,1035.3052689907456,-10093,4464,4143,11788.146334347906
1735562079335,-62,253,1002,1035.3052689907456,-10255,4463,7370,13394.03949523817
1735562079364,-62,253,1002,1035.3052689907456,-10364,4515,10621,15511.394585916509
1735562079394,-30,234,892,922.6700385294843,-10422,4583,13854,17931.96277600419
1735562079424,-30,234,892,922.6700385294843,-10408,4654,17132,20578.911633028605
1735562079454,-30,234,892,922.6700385294843,-10337,4707,-15537,19245.98106099037
1735562079484,-118,329,958,1019.7690915104262,-10219,4734,-12114,16540.487084726374
1735562079514,-118,329,958,1019.7690915104262,-10099,4727,-8599,14081.091257427459
1735562079544,-118,329,958,1019.7690915104262,-10030,4682,-5112,12192.397959384363
1735562079574,-42,265,885,924.7778111524951,-10018,4624,-1683,11161.28079567932
1735562079605,-42,265,885,924.7778111524951,-10064,4558,1582,11160.742986020241
1735562079634,-42,265,885,924.7778111524951,-10150,4520,4808,12106.600018171906
1735562079665,-60,290,976,1019.939213875023,-10255,4518,8009,13773.940249616302
1735562079695,-60,290,976,1019.939213875023,-10357,4565,11225,15940.743364096921
1735562079725,-60,290,976,1019.939213875023,-10386,4636,14492,18422.257082127588
1735562079755,-60,290,976,1019.939213875023,-10345,4701,17816,21131.21581925659
1735562079785,-94,242,982,1015.7381552349011,-10195,4720,-14751,18542.071782840234
1735562079814,-94,242,982,1015.7381552349011,-10062,4680,-11320,15852.086424190351
1735562079844,-94,242,982,1015.7381552349011,-10013,4605,-7943,13585.192048697729
1735562079874,-104,280,893,941.6289077975463,-10042,4534,-4634,11952.944239809705
1735562079905,-104,280,893,941.6289077975463,-10136,4499,-1364,11173.181865520672
1735562079935,-104,280,893,941.6289077975463,-10226,4502,1896,11332.867951229291
1735562079965,-117,279,898,947.593794829831,-10281,4534,5162,12365.369424323722
1735562079995,-117,279,898,947.593794829831,-10277,4575,8451,14070.065920243587
1735562080025,-117,279,898,947.593794829831,-10239,4607,11770,16266.360072247264
1735562080055,-117,279,898,947.593794829831,-10187,4619,15106,18796.312563904656
1735562080084,7,296,940,985.5277773863099,-10255,4610,-17657,20932.911264322505
1735562080114,7,296,940,985.5277773863099,-10344,4631,-14465,18376.091042438813
1735562080144,7,296,940,985.5277773863099,-10386,4676,-11244,16005.046329205048
1735562080174,-100,223,880,913.3066297799442,-10311,4727,-7929,13839.446918139467
1735562080205,-100,223,880,913.3066297799442,-10119,4724,-4499,12039.573829666895
1735562080235,-100,223,880,913.3066297799442,-9999,4659,-1106,11086.45651233973
1735562080264,-36,268,838,880.5475569212603,-9985,4574,2221,11205.112315367482
1735562080294,-36,268,838,880.5475569212603,-10141,4529,5432,12363.589527317703
1735562080324,-36,268,838,880.5475569212603,-10281,4542,8635,14173.635736817847
1735562080354,-36,268,838,880.5475569212603,-10363,4597,11869,16413.328090305145
1735562080384,-104,287,881,932.387258600202,-10352,4656,15186,18959.346929680883
1735562080414,-104,287,881,932.387258600202,-10279,4698,-17424,20768.361057146518
1735562080444,-104,287,881,932.387258600202,-10194,4707,-14016,17958.890305361296
1735562080475,-45,245,985,1016.0093503506747,-10107,4683,-10583,15364.954506929073
1735562080505,-45,245,985,1016.0093503506747,-10071,4630,-7206,13220.755538168007
1735562080534,-45,245,985,1016.0093503506747,-10094,4577,-3875,11741.098330224477
1735562080564,-104,328,946,1006.6359818722952,-10150,4543,-600,11136.487282801521
1735562080595,-104,328,946,1006.6359818722952,-10228,4545,2689,11510.852705164809
1735562080624,-104,328,946,1006.6359818722952,-10276,4572,5993,12744.230420076372
1735562080655,-104,328,946,1006.6359818722952,-10285,4610,9325,14628.361152227546
1735562080684,-88,261,891,932.6017370775158,-10209,4631,12703,16942.138324308416
1735562080714,-88,261,891,932.6017370775158,-10132,4617,16074,19553.71036402043
1735562080744,-88,261,891,932.6017370775158,-10094,4581,-16577,19941.69817242253
1735562080774,-138,282,913,965.4724232208811,-10123,4544,-13292,17314.743111002255
1735562080805,-138,282,913,965.4724232208811,-10169,4527,-10013,14972.055937645971
1735562080835,-138,282,913,965.4724232208811,-10212,4529,-6738,13045.973670063879
1735562080864,-78,276,1042,1080.7515903296187,-10245,4548,-3440,11725.098251187494
1735562080894,-78,276,1042,1080.7515903296187,-10300,4586,-163,11275.990643841453
1735562080925,-78,276,1042,1080.7515903296187,-10304,4634,3149,11728.707217762749
1735562080955,-78,276,1042,1080.7515903296187,-10266,4672,6499,13017.501334741626
1735562080984,-120,362,1013,1082.4107353495715,-10219,4685,9932,15000.726982383221
1735562081015,-120,362,1013,1082.4107353495715,-10183,4687,13387,17460.61931891306
1735562081045,-120,362,1013,1082.4107353495715,-10158,4676,16837,20212.23661547628
1735562081074,-39,321,901,957.2685098758864,-10157,4665,-15775,19333.326123561874
1735562081105,-39,321,901,957.2685098758864,-10188,4656,-12473,16764.52829637625
1735562081134,-39,321,901,957.2685098758864,-10216,4658,-9173,14498.536098516981
1735562081164,-126,287,877,931.3291577095608,-10222,4665,-5843,12664.602559891093
1735562081194,-126,287,877,931.3291577095608,-10106,4652,-2361,11373.067352302105
1735562081224,-126,287,877,931.3291577095608,-10044,4603,1089,11102.047829116933
1735562081254,-126,287,877,931.3291577095608,-10046,4546,4493,11906.942554661126
1735562081284,-56,313,880,935.684241611453,-10182,4521,7745,13568.256704529142
1735562081314,-56,313,880,935.684241611453,-10315,4551,10976,15734.783188846295
1735562081344,-56,313,880,935.684241611453,-10379,4617,14248,18222.12484865582
1735562081375,-125,332,965,1028.1410409082987,-10358,4690,17604,20956.743067566582
1735562081405,-125,332,965,1028.1410409082987,-10254,4740,-14931,18722.897131587302
1735562081434,-125,332,965,1028.1410409082987,-10142,4744,-11446,16011.764924579677
1735562081464,-108,319,846,910.5717983772614,-10055,4710,-7971,13668.35637521937
1735562081494,-108,319,846,910.5717983772614,-10015,4647,-4546,11939.889027960016
1735562081524,-108,319,846,910.5717983772614,-10045,4585,-1176,11104.378685905844
1735562081554,-108,319,846,910.5717983772614,-10116,4546,2153,11297.565268676255
1735562081585,-66,308,748,811.6181368106555,-10199,4534,5427,12410.845498998044
1735562081615,-66,308,748,811.6181368106555,-10272,4550,8689,14202.647816516468
1735562081644,-66,308,748,811.6181368106555,-10307,4587,11974,16451.489111931478
1735562081674,-42,323,876,934.5956344858454,-10311,4629,15320,19038.034614949098
1735562081705,-42,323,876,934.5956344858454,-10297,4669,-17299,20665.990685181292
1735562081734,-42,323,876,934.5956344858454,-10253,4695,-13891,17892.090850428856
1735562081764,-34,291,967,1010.4088281482897,-10208,4702,-10474,15362.836456852621
1735562081794,-34,291,967,1010.4088281482897,-10166,4691,-7078,13245.796352050715
1735562081824,-34,291,967,1010.4088281482897,-10149,4669,-3698,11767.623634362208
1735562081854,-34,291,967,1010.4088281482897,-10158,4647,-337,11175.56003070987
1735562081885,-42,299,904,953.0902370709712,-10176,4639,2970,11571.17958550467
1735562081914,-42,299,904,953.0902370709712,-10194,4639,6278,12839.440836734286
1735562081945,-42,299,904,953.0902370709712,-10206,4644,9589,14753.917886446297
1735562081974,-78,282,1018,1059.2129153291137,-10194,4637,12913,17092.83399556668
1735562082005,-78,282,1018,1059.2129153291137,-10171,4614,16250,19718.030758673645
1735562082035,-78,282,1018,1059.2129153291137,-10174,4589,-16433,19864.86058345238
1735562082065,-58,269,985,1022.7169696450725,-10208,4578,-13153,17267.3899880671
1735562082095,-58,269,985,1022.7169696450725,-10257,4596,-9928,14996.481220606385
1735562082125,-58,269,985,1022.7169696450725,-10275,4626,-6683,13101.06827705283
1735562082155,-58,269,985,1022.7169696450725,-10262,4655,-3413,11773.964413059859
1735562082184,-61,314,884,940.0920167728264,-10233,4668,-51,11247.538130631076
1735562082214,-61,314,884,940.0920167728264,-10211,4674,3318,11709.82156140733
1735562082244,-61,314,884,940.0920167728264,-10191,4672,6690,13055.273455581082
1735562082274,-120,279,925,973.5841001166772,-10164,4667,10050,15036.29891296392
1735562082305,-120,279,925,973.5841001166772,-10108,4645,13431,17439.594318676107
1735562082334,-120,279,925,973.5841001166772,-10090,4610,16786,20120.387570819803
1735562082364,-11,299,903,951.278613235891,-10098,4575,-15873,19361.104255697814
1735562082394,-11,299,903,951.278613235891,-10219,4557,-12656,16892.854880096496
1735562082424,-11,299,903,951.278613235891,-10315,4580,-9434,14709.724028682524
1735562082454,-11,299,903,951.278613235891,-10360,4629,-6181,12921.377712922102
1735562082484,-64,271,871,914.4276898694615,-10314,4682,-2860,11682.436389726246
1735562082514,-64,271,871,914.4276898694615,-10217,4704,513,11259.568108946276
1735562082544,-64,271,871,914.4276898694615,-10135,4690,3887,11824.681560194338
1735562082574,-90,272,912,955.9435129755315,-10090,4646,7243,13261.012970357882
1735562082604,-90,272,912,955.9435129755315,-10089,4594,10575,15320.684775818605
1735562082635,-90,272,912,955.9435129755315,-10132,4552,13868,17767.93606472063
1735562082664,-143,335,997,1061.4532490882489,-10197,4538,17148,20460.355739820363
1735562082694,-143,335,997,1061.4532490882489,-10255,4569,-15483,19124.95947708125
1735562082724,-143,335,997,1061.4532490882489,-10265,4613,-12081,16510.619461425424
1735562082754,-143,335,997,1061.4532490882489,-10233,4651,-8644,14179.732931194438
1735562082784,-58,308,944,994.6677837348508,-10234,4665,-5302,12434.15397202399
1735562082814,-58,308,944,994.6677837348508,-10240,4677,-1984,11431.018546043917
1735562082844,-58,308,944,994.6677837348508,-10233,4688,1343,11335.575944785514
1735562082874,-38,299,933,980.4764148106776,-10202,4694,4679,12165.832523917137
1735562082905,-38,299,933,980.4764148106776,-10175,4686,8001,13766.08956821072
1735562082934,-38,299,933,980.4764148106776,-10164,4671,11312,15908.691995258441
1735562082964,-92,255,972,1009.0951392212728,-10170,4652,14608,18397.382096374473
1735562082995,-92,255,972,1009.0951392212728,-10117,4619,17948,21114.439466867218
1735562083024,-92,255,972,1009.0951392212728,-10111,4575,-14746,18455.553689878827
1735562083054,-92,255,972,1009.0951392212728,-10144,4540,-11473,15973.167030992945
1735562083085,25,305,1059,1102.3298054575137,-10295,4536,-8285,13971.526258787906
1735562083115,25,305,1059,1102.3298054575137,-10440,4590,-5120,12501.043956406202
1735562083145,25,305,1059,1102.3298054575137,-10492,4680,-1895,11643.688805528942
1735562083175,-191,218,909,954.0890943722185,-10360,4771,1486,11502.184010004361
1735562083205,-191,218,909,954.0890943722185,-10031,4769,5085,12215.627163596637
1735562083235,-191,218,909,954.0890943722185,-9828,4658,8618,13876.471885893763
1735562083265,-7,338,821,887.881748883262,-9793,4505,12040,16160.429264100629
1735562083295,-7,338,821,887.881748883262,-10120,4411,15170,18761.668928962583
1735562083325,-7,338,821,887.881748883262,-10412,4438,-17710,21017.84213471973
1735562083354,-12,287,998,1038.51673072705,-10583,4552,-14523,18537.478846919825
1735562083384,-12,287,998,1038.51673072705,-10550,4686,-11209,16090.456084275547
1735562083414,-12,287,998,1038.51673072705,-10410,4781,-7796,13856.539142224512
1735562083445,-12,287,998,1038.51673072705,-10232,4809,-4330,12106.576931569056
1735562083475,-94,293,896,947.3652938544878,-10043,4767,-867,11150.687288234749
1735562083505,-94,293,896,947.3652938544878,-9941,4670,2558,11277.222397381369
1735562083535,-94,293,896,947.3652938544878,-9959,4562,5892,12438.214863878176
1735562083564,-55,265,904,943.645060390823,-10061,4484,9143,14315.181661439019
1735562083594,-55,265,904,943.645060390823,-10202,4451,12292,16582.685819854396
1735562083625,-55,265,904,943.645060390823,-10323,4469,15439,19102.32998877362
1735562083654,-104,258,936,976.4609567207488,-10402,4524,-17388,20760.797768871984
1735562083685,-104,258,936,976.4609567207488,-10381,4601,-14112,18113.058990684043
1735562083714,-104,258,936,976.4609567207488,-10300,4656,-10782,15621.135041987185
1735562083744,-104,258,936,976.4609567207488,-10200,4672,-7424,13453.005612129953
1735562083774,-92,274,914,958.6114958626357,-10142,4661,-4044,11871.774130263766
1735562083804,-92,274,914,958.6114958626357,-10120,4636,-687,11152.527292053583
1735562083834,-92,274,914,958.6114958626357,-10127,4609,2647,11437.028416507497
1735562083864,2,315,914,966.7600529604024,-10199,4588,5929,12657.898166757386
1735562083894,2,315,914,966.7600529604024,-10336,4607,9136,14543.859219615679
1735562083924,2,315,914,966.7600529604024,-10412,4665,12379,16834.833233507245
1735562083954,56,320,789,853.2625621694649,-10414,4732,15662,19394.36681100984
1735562083984,56,320,789,853.2625621694649,-10417,4780,-17101,20586.560907543542
1735562084014,56,320,789,853.2625621694649,-10377,4820,-13826,17946.386962282966
1735562084044,56,320,789,853.2625621694649,-10314,4839,-10526,15511.002320933358
1735562084074,-95,270,1032,1070.9570486252005,-10111,4823,-7086,13255.378002908858
1735562084105,-95,270,1032,1070.9570486252005,-9946,4732,-3640,11600.187067457146
1735562084134,-95,270,1032,1070.9570486252005,-9921,4609,-294,10943.288262674982
1735562084164,-120,316,774,844.5898412839217,-10014,4505,2975,11376.54807048254
1735562084194,-120,316,774,844.5898412839217,-10168,4459,6216,12724.368785916258
1735562084224,-120,316,774,844.5898412839217,-10308,4472,9451,14682.474212475227
1735562084255,-44,285,942,985.1522724939531,-10398,4530,12727,17047.458256291466
1735562084285,-44,285,942,985.1522724939531,-10461,4609,15993,19658.3684724852
1735562084314,-44,285,942,985.1522724939531,-10435,4692,-16672,20220.2787567333
1735562084344,-44,285,942,985.1522724939531,-10345,4749,-13277,17488.58927987046
1735562084375,-127,268,1051,1092.0412080136903,-10145,4749,-9766,14860.981865273909
1735562084405,-127,268,1051,1092.0412080136903,-9992,4678,-6261,12685.577204053428
1735562084435,-127,268,1051,1092.0412080136903,-9959,4574,-2839,11320.913302379804
1735562084465,42,290,875,922.7616160200856,-10075,4486,394,11035.626715325234
1735562084494,42,290,875,922.7616160200856,-10317,4466,3438,11756.083063673886
1735562084525,42,290,875,922.7616160200856,-10497,4524,6502,13150.269540963789
1735562084554,69,251,828,867.95506796147,-10571,4626,9638,15034.52563268958
1735562084584,69,251,828,867.95506796147,-10524,4722,12840,17260.285629154576
1735562084614,69,251,828,867.95506796147,-10410,4784,16109,19767.51468951016
1735562084644,69,251,828,867.95506796147,-10278,4798,-16591,20097.745371060904
1735562084674,-45,312,903,956.4402751871128,-10163,4794,-13212,17344.334781132427
1735562084705,-45,312,903,956.4402751871128,-10072,4755,-9806,14839.570243103402
1735562084735,-45,312,903,956.4402751871128,-10049,4696,-6448,12830.10214300728
1735562084765,-15,318,990,1039.9274013122263,-10104,4631,-3171,11558.20998251892
1735562084795,-15,318,990,1039.9274013122263,-10220,4595,31,11205.50694971004
1735562084825,-15,318,990,1039.9274013122263,-10327,4602,3228,11757.776873201838
1735562084885,-143,265,1000,1044.353388465801,-10381,4647,6464,13082.165952165566
1735562084885,-143,265,1000,1044.353388465801,-10207,4689,9936,14996.45511445955
1735562084915,-143,265,1000,1044.353388465801,-10057,4664,13409,17398.201803634765
1735562084945,-143,265,1000,1044.353388465801,-9983,4596,16836,20105.581339518638
1735562084975,16,274,852,895.1178693334191,-10136,4535,-15953,19437.153340960194
1735562085005,16,274,852,895.1178693334191,-10329,4542,-12822,17079.862089607162
1735562085035,16,274,852,895.1178693334191,-10454,4607,-9659,14960.175333197134
1735562085065,-116,324,954,1014.1735551669645,-10426,4700,-6346,13079.112813948812
1735562085094,-116,324,954,1014.1735551669645,-10260,4760,-2840,11661.509336273757
1735562085124,-116,324,954,1014.1735551669645,-10099,4752,684,11182.091083513853
1735562085154,-125,368,973,1047.7490157475693,-10001,4695,4158,11804.744385203772
1735562085184,-125,368,973,1047.7490157475693,-10012,4627,7555,13368.892923499687
1735562085214,-125,368,973,1047.7490157475693,-10076,4579,10904,15536.738171186384
1735562085244,-125,368,973,1047.7490157475693,-10158,4561,14229,18067.98621872399
1735562085274,-15,301,826,879.2621907030917,-10237,4567,17480,20765.453474460894
1735562085304,-15,301,826,879.2621907030917,-10299,4593,-15297,19004.29580384393
1735562085334,-15,301,826,879.2621907030917,-10319,4634,-12047,16525.31167633458
1735562085365,-90,333,853,920.1076024031103,-10317,4681,-8763,14322.793686987186
1735562085395,-90,333,853,920.1076024031103,-10261,4724,-5394,12517.968405456215
1735562085425,-90,333,853,920.1076024031103,-10187,4739,-2001,11412.146642941458
1735562085454,-26,376,956,1027.6127675345417,-10117,4728,1408,11255.67132604715
1735562085484,-26,376,956,1027.6127675345417,-10155,4709,4757,12162.555446944527
1735562085514,-26,376,956,1027.6127675345417,-10196,4707,8099,13845.868192352547
1735562085544,-26,376,956,1027.6127675345417,-10225,4718,11446,16056.80743485454
1735562085575,-93,323,1025,1078.7043153709917,-10150,4715,14877,18616.62842729585
1735562085605,-93,323,1025,1078.7043153709917,-10076,4679,-17684,20884.029137118152
