Timestamp,Acc_X,Acc_Y,Acc_Z,Acc_Betrag,Ori_X,Ori_Y,Ori_Z,Ori_Betrag
1735574358779,22,119,807,816.0232839815295,9249,-4510,3850,10986.65558757532
1735574358779,22,119,807,816.0232839815295,9341,-4636,1977,10613.920387868
1735574358799,22,119,807,816.0232839815295,9456,-4739,89,10577.427759148251
1735574358829,-28,170,937,952.7082449522519,9633,-4798,-1867,10922.508045316332
1735574358859,-28,170,937,952.7082449522519,9820,-4804,-3887,11602.5680347068
1735574358889,-28,170,937,952.7082449522519,9970,-4772,-5900,12529.281064769837
1735574358919,-5,105,940,945.8593975850745,10067,-4716,-7886,13629.898789059294
1735574358949,-5,105,940,945.8593975850745,10140,-4658,-9803,14853.126707868616
1735574358979,-5,105,940,945.8593975850745,10180,-4586,-11708,16178.413395633084
1735574359009,-5,105,940,945.8593975850745,10190,-4507,-13603,17583.82091583055
1735574359039,51,133,1025,1034.850230709739,10178,-4428,-15472,19041.576930496067
1735574359069,51,133,1025,1034.850230709739,10126,-4362,-17312,20524.82068131169
1735574359099,51,133,1025,1034.850230709739,10066,-4307,16852,20096.380495004567
1735574359159,44,134,839,850.7720023602093,9940,-4262,15045,18528.90361030571
1735574359159,44,134,839,850.7720023602093,9799,-4244,13246,17014.360199549086
1735574359189,44,134,839,850.7720023602093,9680,-4256,11445,15582.168045557717
1735574359219,-44,95,1029,1034.312331938472,9625,-4298,9610,14264.134358593234
1735574359249,-44,95,1029,1034.312331938472,9760,-4331,7608,13110.94294854493
1735574359279,-44,95,1029,1034.312331938472,9879,-4332,5606,12156.812945834117
1735574359309,-44,95,1029,1034.312331938472,9974,-4307,3609,11447.960779108216
1735574359339,8,98,917,922.2564719209076,9925,-4266,1770,10947.021558396604
1735574359369,8,98,917,922.2564719209076,9863,-4242,-46,10736.640489464104
1735574359399,8,98,917,922.2564719209076,9806,-4230,-1862,10840.55256894223
1735574359429,-57,57,923,926.5133566225584,9812,-4214,-3784,11329.245164617103
1735574359459,-57,57,923,926.5133566225584,9870,-4173,-5791,12180.579214470878
1735574359489,-57,57,923,926.5133566225584,9904,-4120,-7791,13257.575079930719
1735574359519,62,87,954,959.9630201210878,9904,-4071,-9738,14473.800502977785
1735574359549,62,87,954,959.9630201210878,9771,-4076,-11461,15602.587541814979
1735574359579,62,87,954,959.9630201210878,9665,-4107,-13187,16857.53964847777
1735574359609,62,87,954,959.9630201210878,9586,-4159,-14917,18212.785783619154
1735574359639,-22,95,1055,1059.4970504914113,9629,-4189,-16875,19875.386461651506
1735574359669,-22,95,1055,1059.4970504914113,9688,-4201,17133,20125.74058264689
1735574359699,-22,95,1055,1059.4970504914113,9740,-4199,15143,18488.09481801735
1735574359729,33,113,828,836.3264912700064,9701,-4194,13259,16955.82843744298
1735574359789,33,113,828,836.3264912700064,9607,-4213,11457,15534.04863517557
1735574359791,33,113,828,836.3264912700064,9537,-4251,9652,14219.22902270021
1735574359819,-76,34,940,943.6800305188194,9530,-4312,7809,13053.533046650628
1735574359849,-76,34,940,943.6800305188194,9762,-4348,5768,12143.787382855482
1735574359879,-76,34,940,943.6800305188194,9958,-4329,3729,11480.742397597814
1735574359909,-76,34,940,943.6800305188194,10108,-4266,1701,11102.424104671916
1735574359939,-108,55,932,939.8473280272706,10160,-4147,-290,10977.582110829324
1735574359969,-108,55,932,939.8473280272706,10164,-4017,-2278,11163.891301871405
1735574359999,-108,55,932,939.8473280272706,10128,-3890,-4254,11653.540234623983
1735574360029,-17,59,834,836.257137488225,10024,-3803,-6167,12368.317347157616
1735574360059,-17,59,834,836.257137488225,9876,-3773,-8005,13260.879684244179
1735574360089,-17,59,834,836.257137488225,9748,-3776,-9845,14359.86437958242
1735574360119,65,73,1147,1151.1572438203218,9656,-3801,-11708,15644.909747262845
1735574360149,65,73,1147,1151.1572438203218,9542,-3852,-13525,16994.507730440444
1735574360179,65,73,1147,1151.1572438203218,9464,-3926,-15346,18452.11337489557
1735574360209,65,73,1147,1151.1572438203218,9420,-4015,-17174,19995.071917850157
1735574360239,23,82,894,898.0473261471246,9388,-4144,17041,19892.283956348503
1735574360269,23,82,894,898.0473261471246,9403,-4272,15230,18401.611152287725
1735574360299,23,82,894,898.0473261471246,9450,-4393,13408,16981.619857952304
1735574360329,-7,117,875,882.8153827386561,9539,-4471,11517,15608.448065070403
1735574360359,-7,117,875,882.8153827386561,9637,-4512,9574,14314.027700126893
1735574360389,-7,117,875,882.8153827386561,9728,-4531,7629,13166.836598059535
1735574360419,-82,58,962,967.2290318223497,9816,-4536,5692,12219.984288042273
1735574360449,-82,58,962,967.2290318223497,10007,-4506,3689,11578.117549930126
1735574360479,-82,58,962,967.2290318223497,10149,-4435,1699,11205.267823662227
1735574360509,-82,58,962,967.2290318223497,10239,-4335,-273,11122.224372849165
1735574360539,-12,65,919,921.3739740192361,10197,-4206,-2177,11243.156763115954
1735574360569,-12,65,919,921.3739740192361,10112,-4097,-4047,11636.845019162196
1735574360598,-12,65,919,921.3739740192361,10013,-4009,-5911,12299.275222548686
1735574360629,-97,49,816,823.2047133004038,9933,-3952,-7799,13232.807487453296
1735574360658,-97,49,816,823.2047133004038,9895,-3903,-9743,14424.648453255282
1735574360690,-97,49,816,823.2047133004038,9850,-3865,-11684,15763.139947358204
1735574360719,-109,79,966,975.3348143073741,9821,-3837,-13635,17236.236103047555
1735574360749,-109,79,966,975.3348143073741,9805,-3812,-15620,18832.253423316073
1735574360779,-109,79,966,975.3348143073741,9785,-3792,-17602,20492.82540305265
1735574360809,-109,79,966,975.3348143073741,9763,-3778,16415,19468.99273203419
1735574360839,106,79,919,928.4600152941429,9582,-3813,14708,17963.26687994141
1735574360869,106,79,919,928.4600152941429,9402,-3900,13076,16570.73866790494
1735574360899,106,79,919,928.4600152941429,9272,-4021,11440,15264.73140936322
1735574360930,-84,104,884,894.0514526580671,9285,-4137,9601,13982.317225696175
1735574360959,-84,104,884,894.0514526580671,9422,-4210,7545,12783.786958487692
1735574360989,-84,104,884,894.0514526580671,9556,-4248,5484,11808.340103503117
1735574361019,-62,99,834,842.1407245822993,9650,-4264,3461,11103.275057387347
1735574361049,-62,99,834,842.1407245822993,9678,-4290,1539,10697.4905935925
1735574361079,-62,99,834,842.1407245822993,9708,-4310,-383,10628.643046033676
1735574361109,-41,62,971,973.840849420479,9763,-4317,-2335,10927.254138162982
1735574361139,-41,62,971,973.840849420479,9869,-4296,-4311,11594.718539059066
1735574361169,-41,62,971,973.840849420479,9946,-4253,-6281,12508.472568623238
1735574361200,-41,62,971,973.840849420479,9994,-4193,-8243,13616.472891318075
1735574361230,41,73,1086,1089.2226585964872,9929,-4176,-10040,14724.99972835314
1735574361260,41,73,1086,1089.2226585964872,9853,-4181,-11807,15936.361535808604
1735574361289,41,73,1086,1089.2226585964872,9793,-4201,-13577,17259.379450026587
1735574361319,74,19,1016,1018.8684900417718,9749,-4221,-15369,18683.308138549768
1735574361350,74,19,1016,1018.8684900417718,9736,-4227,-17164,20180.686831721065
1735574361379,74,19,1016,1018.8684900417718,9727,-4234,17039,20071.592014586186
1735574361409,60,79,979,984.0132112934257,9710,-4251,15273,18590.84801723687
1735574361439,60,79,979,984.0132112934257,9643,-4291,13551,17176.429518383615
1735574361469,60,79,979,984.0132112934257,9598,-4343,11824,15836.357819902909
1735574361499,60,79,979,984.0132112934257,9575,-4403,10093,14592.315888850542
1735574361529,20,112,932,938.9185268168906,9621,-4428,8175,13379.142349194137
1735574361589,20,112,932,938.9185268168906,9667,-4442,6240,12333.687729142488
1735574361589,20,112,932,938.9185268168906,9708,-4446,4304,11512.45395213375
1735574361619,-72,83,819,826.3377033634614,9759,-4453,2385,10988.881426241709
1735574361649,-72,83,819,826.3377033634614,9856,-4439,420,10817.664119392874
1735574361679,-72,83,819,826.3377033634614,9929,-4405,-1537,10970.480162691149
1735574361709,-116,89,923,934.5084269282969,9989,-4352,-3495,11442.685436557276
1735574361739,-116,89,923,934.5084269282969,10066,-4263,-5502,12238.036157815517
1735574361769,-116,89,923,934.5084269282969,10098,-4160,-7495,13245.762680948199
1735574361799,-116,89,923,934.5084269282969,10091,-4052,-9475,14422.988941270114
1735574361829,-104,92,910,920.5324546152623,10029,-3966,-11426,15711.889542636176
1735574361860,-104,92,910,920.5324546152623,9951,-3898,-13368,17114.912474213826
1735574361889,-104,92,910,920.5324546152623,9869,-3850,-15308,18615.974994611483
1735574361919,-21,58,1019,1020.8653192267823,9796,-3816,-17230,20184.062326499094
1735574361949,-21,58,1019,1020.8653192267823,9720,-3802,16900,19863.12170833175
1735574361979,-21,58,1019,1020.8653192267823,9655,-3807,15030,18265.080727990226
1735574362009,16,66,1093,1095.1077572549652,9625,-3833,13139,16732.17962490243
1735574362039,16,66,1093,1095.1077572549652,9617,-3883,11249,15300.469894745063
1735574362069,16,66,1093,1095.1077572549652,9626,-3933,9356,13987.962717994355
1735574362099,16,66,1093,1095.1077572549652,9647,-3980,7459,12827.38048083084
1735574362129,5,60,987,988.8346676770592,9566,-4003,5636,11802.409118480853
1735574362159,5,60,987,988.8346676770592,9511,-4041,3806,11012.467389282023
1735574362189,5,60,987,988.8346676770592,9477,-4090,1971,10508.39997335465
1735574362219,-15,78,919,922.4261488054207,9473,-4150,119,10342.84245263361
1735574362249,-15,78,919,922.4261488054207,9493,-4210,-1755,10531.912172060684
1735574362279,-15,78,919,922.4261488054207,9525,-4263,-3636,11050.759702391506
1735574362309,31,82,997,1000.8466415990014,9582,-4312,-5519,11868.75852816966
1735574362339,31,82,997,1000.8466415990014,9632,-4364,-7344,12874.558477866338
1735574362369,31,82,997,1000.8466415990014,9688,-4403,-9174,14050.125586627331
1735574362399,31,82,997,1000.8466415990014,9745,-4431,-11006,15353.527998476442
1735574362429,13,69,996,998.4718323518196,9805,-4426,-12872,16775.45483735091
1735574362460,13,69,996,998.4718323518196,9859,-4405,-14741,18272.95780655119
1735574362489,13,69,996,998.4718323518196,9897,-4374,-16607,19821.072978020136
1735574362519,-51,88,910,915.6664239776404,9940,-4339,17511,20597.709629956433
1735574362549,-51,88,910,915.6664239776404,9988,-4288,15590,19005.135832190204
1735574362579,-51,88,910,915.6664239776404,10010,-4228,13676,17467.371296219702
1735574362609,-17,88,981,985.0857830666322,10004,-4160,11752,15984.214713272591
1735574362639,-17,88,981,985.0857830666322,9944,-4095,9837,14574.59193253794
1735574362669,-17,88,981,985.0857830666322,9877,-4045,7926,13294.308180571112
1735574362700,-17,88,981,985.0857830666322,9809,-4011,6017,12186.422403642506
1735574362729,-41,95,915,920.8316892896335,9737,-3993,4084,11288.590434593683
1735574362759,-41,95,915,920.8316892896335,9677,-3990,2142,10684.221684334334
1735574362789,-41,95,915,920.8316892896335,9628,-4001,198,10428.115313900207
1735574362819,7,131,850,860.0639511106136,9564,-4048,-1643,10514.554151270515
1735574362849,7,131,850,860.0639511106136,9483,-4130,-3413,10891.866598522036
1735574362879,7,131,850,860.0639511106136,9439,-4225,-5189,11570.26650514153
1735574362909,3,134,855,865.4420835619215,9434,-4317,-7011,12521.619943122376
1735574362939,3,134,855,865.4420835619215,9465,-4384,-8924,13727.47088869614
1735574362969,3,134,855,865.4420835619215,9510,-4442,-10843,15091.126962556507
1735574362999,3,134,855,865.4420835619215,9564,-4488,-12769,16572.857357740097
1735574363029,67,106,1020,1027.6794247234884,9640,-4522,-14651,18111.595319021457
1735574363090,67,106,1020,1027.6794247234884,9703,-4544,-16509,19681.037218602072
1735574363090,67,106,1020,1027.6794247234884,9761,-4552,17631,20660.34815776346
1735574363119,-11,121,880,888.3479048210785,9792,-4549,15776,19116.977820774915
1735574363149,-11,121,880,888.3479048210785,9832,-4531,13878,17601.05306508676
1735574363179,-11,121,880,888.3479048210785,9858,-4505,11984,16158.324325251057
1735574363209,41,103,816,823.4962052128716,9884,-4475,10070,14802.83692404939
1735574363239,41,103,816,823.4962052128716,9897,-4451,8173,13585.283913117164
1735574363269,41,103,816,823.4962052128716,9899,-4425,6280,12530.332238212999
1735574363299,41,103,816,823.4962052128716,9893,-4398,4390,11682.72027397729
1735574363329,85,75,1043,1049.1420304229548,9871,-4369,2554,11092.687591381991
1735574363359,85,75,1043,1049.1420304229548,9842,-4347,736,10784.390061565837
1735574363389,85,75,1043,1049.1420304229548,9812,-4332,-1079,10779.879823077807
1735574363419,119,42,961,969.2502256899402,9765,-4337,-2860,11060.940014302581
1735574363449,119,42,961,969.2502256899402,9721,-4361,-4606,11607.38549372769
1735574363479,119,42,961,969.2502256899402,9692,-4393,-6355,12394.326847392722
1735574363509,53,52,1036,1038.6573063335184,9677,-4433,-8092,13370.724812066099
1735574363539,53,52,1036,1038.6573063335184,9719,-4466,-9882,14562.212778283389
1735574363569,53,52,1036,1038.6573063335184,9763,-4491,-11674,15867.18393414534
1735574363599,53,52,1036,1038.6573063335184,9806,-4506,-13467,17257.513175425942
1735574363629,156,35,1054,1066.0567527106614,9829,-4504,-15263,18704.395900429397
1735574363659,156,35,1054,1066.0567527106614,9827,-4507,-17018,20161.72864612556
1735574363689,156,35,1054,1066.0567527106614,9827,-4511,17225,20337.641824951093
1735574363720,46,85,961,965.847814099095,9827,-4519,15465,18872.13594164688
1735574363749,46,85,961,965.847814099095,9851,-4518,13636,17418.238171525845
1735574363779,46,85,961,965.847814099095,9870,-4512,11807,16036.841740193111
1735574363809,193,104,1055,1077.5388624082195,9880,-4505,9993,14757.014399938762
1735574363839,193,104,1055,1077.5388624082195,9754,-4538,8380,13636.655015068762
1735574363869,193,104,1055,1077.5388624082195,9657,-4593,6762,12652.191193623341
1735574363899,193,104,1055,1077.5388624082195,9590,-4663,5139,11837.271222710071
1735574363929,62,35,1118,1120.2647008631486,9721,-4700,3279,11284.488557307328
1735574363959,62,35,1118,1120.2647008631486,9887,-4693,1365,11029.063559523083
1735574363989,62,35,1118,1120.2647008631486,10019,-4653,-540,11059.944394073598
1735574364019,41,86,996,1000.5463507504287,10079,-4585,-2410,11332.1033352154
1735574364049,41,86,996,1000.5463507504287,10081,-4509,-4270,11840.208697485024
1735574364079,41,86,996,1000.5463507504287,10060,-4433,-6121,12582.59631395683
1735574364109,96,11,1104,1108.2206459004453,10030,-4364,-7986,13543.322782832875
1735574364139,96,11,1104,1108.2206459004453,10021,-4308,-9822,14678.248839694741
1735574364169,96,11,1104,1108.2206459004453,9999,-4255,-11652,15932.800444366332
1735574364199,96,11,1104,1108.2206459004453,9966,-4208,-13479,17283.282703236673
1735574364229,-18,34,1004,1004.7367814507439,9956,-4175,-15321,18742.614598822653
1735574364259,-18,34,1004,1004.7367814507439,9956,-4135,-17201,20300.11236422104
1735574364289,-18,34,1004,1004.7367814507439,9944,-4095,16921,20049.249412384495
1735574364319,6,45,896,897.149374407629,9890,-4051,15053,18461.18928996721
1735574364349,6,45,896,897.149374407629,9807,-4021,13202,16930.401471908455
1735574364379,6,45,896,897.149374407629,9732,-4010,11350,15479.48397072719
1735574364409,20,77,1005,1008.1438389436302,9676,-4014,9489,14134.294924049094
1735574364439,20,77,1005,1008.1438389436302,9611,-4030,7622,12911.510562285112
1735574364469,20,77,1005,1008.1438389436302,9563,-4060,5753,11875.671686266845
1735574364499,20,77,1005,1008.1438389436302,9533,-4100,3880,11078.920931209863
1735574364530,-51,64,805,809.148935610744,9579,-4147,1962,10620.936587702612
1735574364559,-51,64,805,809.148935610744,9649,-4175,14,10513.516157784701
1735574364589,-51,64,805,809.148935610744,9713,-4186,-1934,10751.99148995199
1735574364619,-58,111,1002,1009.7965141552035,9772,-4183,-3873,11313.248958632528
1735574364649,-58,111,1002,1009.7965141552035,9804,-4169,-5809,12134.39153810359
1735574364679,-58,111,1002,1009.7965141552035,9826,-4149,-7743,13180.23239552323
1735574364709,-68,156,972,986.7846776272927,9832,-4124,-9670,14393.904960086405
1735574364739,-68,156,972,986.7846776272927,9793,-4102,-11599,15724.69567273084
1735574364769,-68,156,972,986.7846776272927,9755,-4090,-13527,17171.716687623284
1735574364799,11,162,847,862.423329925623,9706,-4085,-15449,18696.664461876615
1735574364829,11,162,847,862.423329925623,9580,-4112,-17274,20176.124999612784
1735574364859,11,162,847,862.423329925623,9485,-4164,16895,19817.798717314694
1735574364888,11,162,847,862.423329925623,9422,-4235,15060,18262.33580350553
1735574364919,-41,118,1022,1029.6062354123542,9489,-4291,13098,16733.541346648653
1735574364949,-41,118,1022,1029.6062354123542,9582,-4323,11112,15296.391633323201
1735574364979,-41,118,1022,1029.6062354123542,9667,-4333,9125,13981.82402263739
1735574365009,-25,154,859,873.0532629799857,9712,-4334,7173,12828.032935723231
1735574365039,-25,154,859,873.0532629799857,9667,-4360,5305,11857.63526172061
1735574365069,-25,154,859,873.0532629799857,9638,-4395,3432,11134.886303864983
1735574365099,102,145,1071,1085.5735811081624,9656,-4438,1551,10739.635980795625
1735574365129,102,145,1071,1085.5735811081624,9652,-4501,-195,10651.6726386047
1735574365159,102,145,1071,1085.5735811081624,9666,-4564,-1948,10865.374176713842
1735574365189,102,145,1071,1085.5735811081624,9694,-4624,-3707,11362.079959232817
1735574365219,-9,65,936,938.2973942199776,9809,-4614,-5640,12219.454856907489
1735574365249,-9,65,936,938.2973942199776,9942,-4565,-7610,13326.465735520427
1735574365279,-9,65,936,938.2973942199776,10032,-4489,-9566,14570.535371083659
1735574365309,54,52,847,850.3111195321393,10078,-4404,-11493,15907.556349106546
1735574365339,54,52,847,850.3111195321393,10053,-4344,-13307,17233.960485042317
1735574365369,54,52,847,850.3111195321393,10017,-4290,-15116,18634.31901090029
1735574365399,86,59,1013,1018.3545551525756,9966,-4245,-16916,20087.116194217626
1735574365429,86,59,1013,1018.3545551525756,9873,-4224,17332,20389.127715525254
1735574365459,86,59,1013,1018.3545551525756,9792,-4222,15581,18880.574911797576
1735574365489,86,59,1013,1018.3545551525756,9726,-4237,13828,17428.73572580639
1735574365519,142,57,958,970.1427729978717,9641,-4281,12148,16088.808097556512
1735574365548,142,57,958,970.1427729978717,9570,-4346,10485,14846.1389256601
1735574365579,142,57,958,970.1427729978717,9527,-4423,8816,13713.0782102342
1735574365609,75,79,916,922.4543349131164,9536,-4483,7073,12690.938263186059
1735574365639,75,79,916,922.4543349131164,9586,-4521,5251,11828.095281997013
1735574365669,75,79,916,922.4543349131164,9638,-4549,3425,11194.421378526002
1735574365699,102,131,1080,1092.6870549246935,9703,-4566,1593,10841.319753609336
1735574365729,102,131,1080,1092.6870549246935,9726,-4584,-219,10754.352281750864
1735574365759,102,131,1080,1092.6870549246935,9749,-4596,-2033,10968.104029411828
1735574365789,102,131,1080,1092.6870549246935,9772,-4604,-3848,11467.166345701975
1735574365819,55,71,1015,1018.965652021696,9827,-4616,-5685,12255.472655103924
1735574365849,55,71,1015,1018.965652021696,9900,-4610,-7540,13270.783699540883
1735574365879,55,71,1015,1018.965652021696,9958,-4589,-9393,14437.767625225168
1735574365909,-120,43,909,917.8943294301365,10058,-4528,-11308,15796.740549872939
1735574365939,-120,43,909,917.8943294301365,10212,-4401,-13341,17367.67186470311
1735574365969,-120,43,909,917.8943294301365,10291,-4243,-15347,18958.853841938864
1735574365999,111,32,1199,1204.552198951959,10316,-4082,-17323,20571.069709667507
1735574366029,111,32,1199,1204.552198951959,10184,-4007,16976,20197.88308214502
1735574366089,111,32,1199,1204.552198951959,10059,-3958,15275,18712.959947587125
1735574366089,111,32,1199,1204.552198951959,9946,-3935,13573,17281.01472715072
1735574366119,-10,64,1043,1045.009569334176,9825,-3884,11710,15771.499009288877
1735574366149,-10,64,1043,1045.009569334176,9728,-3852,9803,14337.736815829756
1735574366179,-10,64,1043,1045.009569334176,9642,-3843,7895,13041.006019475644
1735574366209,-39,93,1000,1005.0721367145743,9594,-3875,5995,11958.281063764976
1735574366239,-39,93,1000,1005.0721367145743,9575,-3924,4081,11123.531903132207
1735574366269,-39,93,1000,1005.0721367145743,9574,-3976,2163,10590.024598649428
1735574366299,54,80,1016,1020.5743481001274,9565,-4025,263,10380.704166866522
1735574366329,54,80,1016,1020.5743481001274,9481,-4094,-1496,10434.951509230888
1735574366389,54,80,1016,1020.5743481001274,9430,-4177,-3261,10816.947351263201
1735574366390,54,80,1016,1020.5743481001274,9410,-4269,-5033,11493.630844950607
1735574366419,-87,97,1015,1023.3293702420546,9488,-4342,-6970,12548.147592373944
1735574366449,-87,97,1015,1023.3293702420546,9601,-4384,-8969,13850.690163309553
1735574366479,-87,97,1015,1023.3293702420546,9706,-4400,-10970,15294.029423274953
1735574366509,5,117,958,965.1310791804397,9786,-4411,-12930,16804.987860751342
1735574366539,5,117,958,965.1310791804397,9811,-4428,-14817,18314.10369087169
1735574366569,5,117,958,965.1310791804397,9837,-4440,-16706,19888.95686052941
1735574366599,131,83,1006,1017.8830974134505,9854,-4445,17416,20498.204726268104
1735574366629,131,83,1006,1017.8830974134505,9790,-4473,15711,19044.352181158592
1735574366659,131,83,1006,1017.8830974134505,9745,-4512,14002,17645.93927791887
1735574366689,131,83,1006,1017.8830974134505,9718,-4559,12289,16316.97049087238
1735574366719,41,88,950,954.9476425438203,9778,-4581,10416,15002.929747219374
1735574366749,41,88,950,954.9476425438203,9854,-4582,8507,13800.908991801953
1735574366779,41,88,950,954.9476425438203,9914,-4567,6600,12755.582503359068
1735574366809,133,30,1003,1012.2242834471025,9956,-4549,4751,11932.61656134144
1735574366839,133,30,1003,1012.2242834471025,9973,-4537,2987,11356.375610202404
1735574366869,133,30,1003,1012.2242834471025,9983,-4521,1224,11027.144054559185
1735574366899,95,-14,1095,1099.2024381341228,9985,-4501,-528,10965.30938915998
1735574366989,95,-14,1095,1099.2024381341228,10042,-4460,-2308,11227.654608153922
1735574366990,95,-14,1095,1099.2024381341228,10076,-4408,-4081,11730.763018661659
1735574366991,95,-14,1095,1099.2024381341228,10089,-4351,-5848,12446.615041849731
1735574367020,-15,44,978,979.1041824034867,10097,-4289,-7694,13399.349461820899
1735574367049,-15,44,978,979.1041824034867,10094,-4218,-9575,14538.259352480956
1735574367079,-15,44,978,979.1041824034867,10071,-4150,-11448,15802.032938834167
1735574367109,83,65,962,967.7592675867279,9969,-4110,-13225,17063.81217665033
1735574367139,83,65,962,967.7592675867279,9809,-4121,-14903,18311.158647120068
1735574367169,83,65,962,967.7592675867279,9681,-4163,-16584,19648.953814389202
1735574367199,-84,86,915,922.8634785275664,9588,-4220,17697,20565.06632617556
1735574367229,-84,86,915,922.8634785275664,9631,-4242,15719,18916.598161403123
1735574367259,-84,86,915,922.8634785275664,9673,-4254,13740,17333.52373292863
1735574367289,-84,86,915,922.8634785275664,9710,-4256,11761,15834.101079631897
1735574367319,-11,67,931,933.472549141109,9744,-4256,9820,14473.820228260402
1735574367349,-11,67,931,933.472549141109,9760,-4255,7907,13262.099155111155
1735574367379,-11,67,931,933.472549141109,9773,-4250,5994,12227.103704475561
1735574367409,-68,57,992,995.9603405758685,9816,-4228,4052,11430.159403962834
1735574367439,-68,57,992,995.9603405758685,9879,-4181,2068,10924.835284799492
1735574367469,-68,57,992,995.9603405758685,9914,-4121,91,10736.774096533838
1735574367499,-11,109,950,956.2959792867479,9926,-4061,-1868,10886.074636892767
1735574367560,-11,109,950,956.2959792867479,9846,-4034,-3747,11280.819163518225
1735574367560,-11,109,950,956.2959792867479,9774,-4025,-5625,11973.81835506118
1735574367590,-11,109,950,956.2959792867479,9714,-4033,-7505,12920.987191387507
1735574367619,-66,84,969,974.8707606652279,9716,-4035,-9429,14127.558954044396
1735574367649,-66,84,969,974.8707606652279,9734,-4030,-11371,15501.332104048348
1735574367679,-66,84,969,974.8707606652279,9748,-4022,-13313,16983.402397635167
1735574367709,-82,73,846,853.0937814800902,9739,-4018,-15225,18514.671749723246
1735574367739,-82,73,846,853.0937814800902,9734,-4019,-17131,20109.059600090703
1735574367769,-82,73,846,853.0937814800902,9730,-4022,16963,19964.787827572825
1735574367800,-9,62,974,976.0128072930191,9729,-4025,15043,18361.533568849853
1735574367829,-9,62,974,976.0128072930191,9698,-4045,13175,16852.11719636438
1735574367859,-9,62,974,976.0128072930191,9677,-4071,11306,15428.642390048451
1735574367889,-9,62,974,976.0128072930191,9668,-4101,9433,14116.299585939652
1735574367919,-21,99,944,949.4092900324918,9621,-4133,7571,12921.508077620043
1735574367949,-21,99,944,949.4092900324918,9586,-4175,5700,11908.485252121698
1735574367979,-21,99,944,949.4092900324918,9569,-4224,3825,11137.26007597919
1735574368009,98,88,883,892.769287106137,9542,-4267,1964,10635.522977268207
1735574368038,98,88,883,892.769287106137,9482,-4325,176,10423.28762915041
1735574368070,98,88,883,892.769287106137,9449,-4392,-1617,10544.569882171581
1735574368100,154,81,971,986.4674348400965,9465,-4469,-3424,11012.808996800044
1735574368130,154,81,971,986.4674348400965,9506,-4552,-5186,11746.460573296112
1735574368162,154,81,971,986.4674348400965,9563,-4625,-6955,12696.992517915414
1735574368189,154,81,971,986.4674348400965,9629,-4686,-8732,13817.527311353504
1735574368220,36,-19,993,993.8339901613348,9845,-4705,-10642,15241.824497086955
1735574368249,36,-19,993,993.8339901613348,10078,-4661,-12594,16789.873168073664
1735574368283,36,-19,993,993.8339901613348,10248,-4571,-14527,18356.178088044362
1735574368310,138,20,1083,1091.9400166675823,10320,-4478,-16384,19874.36388919152
1735574368339,138,20,1083,1091.9400166675823,10287,-4409,17856,21073.6419728532
1735574368370,138,20,1083,1091.9400166675823,10242,-4347,16101,19571.33551906972
1735574368401,-8,35,972,972.6628398371143,10170,-4292,14365,18116.384545488098
1735574368431,-8,35,972,972.6628398371143,10148,-4209,12497,16639.488994557494
1735574368463,-8,35,972,972.6628398371143,10107,-4133,10635,15242.583868885222
1735574368491,-8,35,972,972.6628398371143,10052,-4068,8778,13951.509309031766
1735574368521,-42,-8,946,946.9656804763307,10031,-4008,6887,12810.768673268594
1735574368550,-42,-8,946,946.9656804763307,10014,-3948,4988,11863.685936503882
1735574368581,-42,-8,946,946.9656804763307,9983,-3893,3093,11152.68519236511
1735574368610,64,57,994,997.6878269278421,9900,-3862,1254,10700.353265196434
1735574368640,64,57,994,997.6878269278421,9752,-3880,-501,10507.469010185088
1735574368670,64,57,994,997.6878269278421,9637,-3928,-2261,10649.557455594106
1735574368700,4,115,994,1000.6382962889238,9552,-3995,-4037,11112.96981009127
1735574368730,4,115,994,1000.6382962889238,9490,-4068,-5906,11894.938419344591
1735574368760,4,115,994,1000.6382962889238,9460,-4152,-7783,12934.674058514192
1735574368790,4,115,994,1000.6382962889238,9460,-4239,-9667,14174.32926102678
1735574368820,-117,60,1024,1032.4073808337482,9620,-4282,-11734,15765.997589749912
1735574368850,-117,60,1024,1032.4073808337482,9802,-4271,-13847,17494.57212966353
1735574368880,-117,60,1024,1032.4073808337482,9941,-4218,-15949,19260.986631011405
1735574368910,127,120,1193,1205.727166485022,9857,-4210,-17793,20771.98589446854
1735574368941,127,120,1193,1205.727166485022,9721,-4248,16450,19574.11160180712
1735574368970,127,120,1193,1205.727166485022,9620,-4311,14690,18081.07355772881
1735574369000,-75,52,1038,1042.004318609093,9535,-4378,12916,16640.497738949998
1735574369029,-75,52,1038,1042.004318609093,9647,-4383,10887,15192.171240477774
1735574369060,-75,52,1038,1042.004318609093,9738,-4363,8862,13870.813134059588
1735574369090,-61,59,940,943.8230766409561,9808,-4336,6877,12739.344135394098
1735574369120,-61,59,940,943.8230766409561,9851,-4321,4979,11853.424948089898
1735574369150,-61,59,940,943.8230766409561,9882,-4297,3084,11208.442755351878
1735574369180,-61,59,940,943.8230766409561,9899,-4267,1192,10845.19958322575
1735574369210,-49,109,907,914.8393301558476,9910,-4233,-732,10801.028330672963
1735574369240,-49,109,907,914.8393301558476,9893,-4201,-2649,11069.645477611286
1735574369270,-49,109,907,914.8393301558476,9871,-4174,-4563,11648.170929377711
1735574369301,9,77,1055,1057.8445065320327,9858,-4156,-6457,12495.81325884794
1735574369330,9,77,1055,1057.8445065320327,9842,-4146,-8308,13530.600282323028
1735574369360,9,77,1055,1057.8445065320327,9827,-4140,-10158,14727.33828632995
1735574369390,116,62,1035,1043.3240148678644,9804,-4137,-12002,16039.987188274185
1735574369420,116,62,1035,1043.3240148678644,9708,-4161,-13712,17308.325424488645
1735574369450,116,62,1035,1043.3240148678644,9636,-4204,-15426,18667.8222618494
1735574369480,116,62,1035,1043.3240148678644,9588,-4260,-17144,20099.603976198137
1735574369510,33,0,943,943.5772358424084,9655,-4302,17037,20049.578499310155
1735574369540,33,0,943,943.5772358424084,9755,-4317,15186,18558.31646459344
1735574369570,33,0,943,943.5772358424084,9840,-4312,13336,17125.06467141073
1735574369600,175,85,1111,1127.9055811547348,9832,-4306,11565,15778.437343412686
1735574369629,175,85,1111,1127.9055811547348,9708,-4338,9913,14537.230719776033
1735574369660,175,85,1111,1127.9055811547348,9615,-4393,8257,13413.6021634757
1735574369689,-13,35,924,924.75402134838,9563,-4459,6571,12430.273166748992
1735574369720,-13,35,924,924.75402134838,9742,-4476,4606,11668.60642921853
1735574369750,-13,35,924,924.75402134838,9891,-4453,2645,11164.995073890539
1735574369779,-13,35,924,924.75402134838,10002,-4399,693,10948.582282651942
1735574369809,-12,15,1048,1048.1760348338441,10092,-4343,-1218,11054.123076933784
1735574369839,-12,15,1048,1048.1760348338441,10151,-4267,-3121,11445.118216951714
1735574369869,-12,15,1048,1048.1760348338441,10176,-4180,-5012,12088.98341466312
1735574369900,-45,-20,937,938.2931311695722,10156,-4086,-6868,12923.202234740429
1735574369930,-45,-20,937,938.2931311695722,10131,-3989,-8721,13950.09401402012
1735574369960,-45,-20,937,938.2931311695722,10083,-3900,-10568,15118.184844749056
1735574369990,53,90,1049,1054.1868904515934,10021,-3817,-12426,16413.269205127905
1735574370034,53,90,1049,1054.1868904515934,9804,-3780,-14208,17671.27839178592
1735574370049,53,90,1049,1054.1868904515934,9620,-3791,-15995,19046.15725021717
1735574370079,53,90,1049,1054.1868904515934,9473,-3842,-17785,20513.5301203864
1735574370110,-94,81,969,976.9124832859901,9465,-3898,16290,19239.14574506883
1735574370140,-94,81,969,976.9124832859901,9506,-3942,14308,17624.479112870256
1735574370169,-94,81,969,976.9124832859901,9552,-3974,12324,16090.815889817397
1735574370200,-50,43,1037,1039.094798370197,9581,-4007,10390,14690.259017457793
1735574370230,-50,43,1037,1039.094798370197,9607,-4042,8505,13452.40640183012
1735574370260,-50,43,1037,1039.094798370197,9639,-4069,6617,12379.48993294958
1735574370290,-10,60,1138,1139.6244995611494,9678,-4086,4713,11513.967561184112
1735574370320,-10,60,1138,1139.6244995611494,9683,-4096,2823,10886.093606064574
1735574370349,-10,60,1138,1139.6244995611494,9691,-4105,932,10565.752694436871
1735574370380,-10,60,1138,1139.6244995611494,9699,-4112,-958,10578.133531015763
1735574370409,-34,72,990,993.1968586337756,9683,-4120,-2800,10889.209750941525
1735574370439,-34,72,990,993.1968586337756,9674,-4130,-4653,11501.8948438942
1735574370469,-34,72,990,993.1968586337756,9670,-4141,-6506,12368.703125226994
1735574370500,89,114,898,909.5718773137173,9607,-4173,-8335,13385.835909647181
1735574370530,89,114,898,909.5718773137173,9480,-4247,-10086,14478.770838714176
1735574370560,89,114,898,909.5718773137173,9394,-4344,-11844,15728.887691124251
1735574370590,-2,21,884,884.2516610105971,9362,-4447,-13617,17112.73040750657
1735574370620,-2,21,884,884.2516610105971,9527,-4507,-15523,18762.73719370391
1735574370649,-2,21,884,884.2516610105971,9679,-4530,-17431,20446.117039672838
1735574370681,-2,21,884,884.2516610105971,9809,-4521,16660,19854.760688560313
1735574370710,128,79,896,908.5378363062267,9802,-4543,14926,18425.62153632816
1735574370740,128,79,896,908.5378363062267,9756,-4582,13241,17073.322494464865
1735574370770,128,79,896,908.5378363062267,9728,-4628,11551,15794.871604416416
1735574370799,130,105,867,882.9575301224855,9713,-4659,9824,14579.424748596908
1735574370829,130,105,867,882.9575301224855,9695,-4685,8079,13461.518896469299
1735574370860,130,105,867,882.9575301224855,9687,-4714,6331,12495.652283894588
1735574370890,128,81,1041,1051.9629271034223,9713,-4744,4559,11731.682999467723
1735574370920,128,81,1041,1051.9629271034223,9809,-4764,2742,11244.142519552124
1735574370950,128,81,1041,1051.9629271034223,9892,-4764,926,11018.38627023032
1735574370980,128,81,1041,1051.9629271034223,9960,-4749,-886,11069.760476180141
1735574371010,123,31,1143,1150.0169563967306,10071,-4724,-2703,11447.594769208072
1735574371039,123,31,1143,1150.0169563967306,10166,-4675,-4513,12065.253830732281
1735574371069,123,31,1143,1150.0169563967306,10228,-4609,-6314,12873.284778952107
1735574371100,114,67,930,939.3535010846556,10181,-4522,-8061,13750.671474513527
1735574371130,114,67,930,939.3535010846556,10074,-4445,-9787,14731.899741716952
1735574371160,114,67,930,939.3535010846556,9968,-4389,-11511,15847.001798447554
1735574371190,-90,76,828,836.3372525482768,9874,-4352,-13250,17087.957162867657
1735574371220,-90,76,828,836.3372525482768,9936,-4278,-15250,18697.269319341794
1735574371249,-90,76,828,836.3372525482768,9962,-4192,-17238,20346.079524075394
1735574371278,-90,76,828,836.3372525482768,9956,-4104,16783,19940.758285481523
1735574371310,23,71,898,901.0959993252661,9891,-4047,14902,18337.930472111624
1735574371340,23,71,898,901.0959993252661,9803,-4016,13064,16819.48753678304
1735574371369,23,71,898,901.0959993252661,9723,-4005,11226,15381.80191004942
1735574371400,47,119,935,943.7134098867092,9648,-4025,9406,14062.622977240057
1735574371430,47,119,935,943.7134098867092,9564,-4076,7607,12882.1706633626
1735574371460,47,119,935,943.7134098867092,9509,-4142,5802,11884.462503622113
1735574371490,-35,53,886,888.2736064974575,9475,-4212,3976,11105.185500476793
1735574371519,-35,53,886,888.2736064974575,9561,-4250,2019,10656.058464554331
1735574371549,-35,53,886,888.2736064974575,9643,-4268,59,10545.461298587179
1735574371579,-35,53,886,888.2736064974575,9714,-4267,-1899,10778.463990754897
1735574371610,91,83,980,987.7094714540303,9719,-4294,-3706,11253.081044762808
1735574371640,91,83,980,987.7094714540303,9695,-4333,-5468,11944.326603036272
1735574371670,91,83,980,987.7094714540303,9686,-4375,-7234,12856.514963239455
1735574371698,84,98,997,1005.3203469541438,9676,-4410,-9009,13936.827364934961
1735574371730,84,98,997,1005.3203469541438,9666,-4443,-10796,15156.695583140805
1735574371759,84,98,997,1005.3203469541438,9667,-4477,-12585,16488.6822699693
1735574371789,62,93,865,872.191492735397,9672,-4509,-14378,17905.46142940751
1735574371820,62,93,865,872.191492735397,9696,-4533,-16197,19413.99788812186
1735574371850,62,93,865,872.191492735397,9723,-4552,17981,20942.153518680927
1735574371880,62,93,865,872.191492735397,9750,-4565,16158,19416.042052900484
1735574371910,-4,31,902,902.541411792279,9873,-4549,14248,17921.35692407246
1735574371940,-4,31,902,902.541411792279,9996,-4496,12320,16489.888780704376
1735574371970,-4,31,902,902.541411792279,10078,-4418,10405,15144.267331237916
1735574371999,56,106,1038,1044.899995214853,10089,-4354,8537,13914.941825246702
1735574372029,56,106,1038,1044.899995214853,10019,-4319,6727,12817.435429913427
1735574372060,56,106,1038,1044.899995214853,9952,-4299,4918,11904.218957999723
1735574372089,76,135,1005,1016.8706899109641,9885,-4281,3095,11207.997635617166
1735574372120,76,135,1005,1016.8706899109641,9772,-4265,1269,10737.437776303992
1735574372150,76,135,1005,1016.8706899109641,9677,-4273,-558,10593.12144742993
1735574372180,76,135,1005,1016.8706899109641,9601,-4301,-2390,10788.41517554826
1735574372210,55,31,1129,1130.7639010863409,9631,-4336,-4205,11368.336817670384
1735574372240,55,31,1129,1130.7639010863409,9696,-4356,-6031,12221.29751703967
1735574372270,55,31,1129,1130.7639010863409,9753,-4362,-7856,13261.402226009133
1735574372299,41,85,1092,1096.0702532228488,9784,-4361,-9691,14445.0842157462
1735574372330,41,85,1092,1096.0702532228488,9785,-4361,-11537,15743.789728016567
1735574372360,41,85,1092,1096.0702532228488,9785,-4360,-13384,17143.140931579605
1735574372390,-51,91,979,984.5420255123698,9777,-4365,-15209,18599.909542790792
1735574372420,-51,91,979,984.5420255123698,9821,-4362,-17099,20195.41745050099
1735574372450,-51,91,979,984.5420255123698,9856,-4351,17011,20135.69114781015
1735574372479,-51,91,979,984.5420255123698,9881,-4332,15125,18578.64392252567
1735574372510,-81,2,870,873.7648425062661,9938,-4256,13163,17033.553622189353
1735574372539,-81,2,870,873.7648425062661,9986,-4160,11203,15573.471193025658
1735574372570,-81,2,870,873.7648425062661,9995,-4057,9254,14212.522295497025
1735574372600,31,89,989,993.4802464065402,9983,-3994,7327,13011.427823263672
1735574372630,31,89,989,993.4802464065402,9868,-3966,5482,11964.903008382475
1735574372660,31,89,989,993.4802464065402,9768,-3964,3636,11151.126221149145
1735574372691,39,113,887,895.0189942118546,9676,-3983,1796,10616.726472882307
1735574372720,39,113,887,895.0189942118546,9563,-4027,-20,10376.323915530009
1735574372750,39,113,887,895.0189942118546,9483,-4094,-1843,10492.129145221194
1735574372779,200,160,1025,1056.51549917642,9449,-4188,-3649,10960.754809774735
1735574372810,200,160,1025,1056.51549917642,9320,-4341,-5231,11535.598900794012
1735574372840,200,160,1025,1056.51549917642,9245,-4514,-6820,12343.3634395168
1735574372870,200,160,1025,1056.51549917642,9222,-4696,-8421,13342.074089136217
1735574372900,-5,-18,892,892.1956063554674,9437,-4799,-10285,14760.372454650324
1735574372930,-5,-18,892,892.1956063554674,9743,-4829,-12244,16375.616812810442
1735574372959,-5,-18,892,892.1956063554674,9998,-4796,-14198,18015.127643178108
1735574372990,103,4,1143,1147.6384448074227,10227,-4721,-16156,19695.068062842536
1735574373020,103,4,1143,1147.6384448074227,10349,-4647,17992,21269.895956492124
1735574373050,103,4,1143,1147.6384448074227,10423,-4549,16156,19757.243380593358
1735574373080,101,30,1129,1133.9056398131195,10414,-4439,14365,18289.596551045077
1735574373110,101,30,1129,1133.9056398131195,10283,-4341,12640,16862.798403586516
1735574373140,101,30,1129,1133.9056398131195,10153,-4270,10917,15507.97207890187
1735574373169,101,30,1129,1133.9056398131195,10030,-4225,9195,14247.791056862112
1735574373200,62,69,1035,1039.148690034299,9921,-4187,7411,13072.11272136222
1735574373229,62,69,1035,1039.148690034299,9822,-4171,5613,12057.142862220717
1735574373260,62,69,1035,1039.148690034299,9737,-4176,3813,11259.978419162268
1735574373290,184,113,1081,1102.3547523370141,9627,-4224,2080,10716.702151315021
1735574373319,184,113,1081,1102.3547523370141,9471,-4325,446,10421.342619835508
1735574373349,184,113,1081,1102.3547523370141,9365,-4452,-1192,10437.643076863666
1735574373379,-39,83,883,887.7494015768189,9312,-4582,-2865,10766.442913051646
1735574373409,-39,83,883,887.7494015768189,9512,-4644,-4870,11651.685714951293
1735574373439,-39,83,883,887.7494015768189,9694,-4660,-6878,12766.993381372138
1735574373469,-39,83,883,887.7494015768189,9845,-4638,-8883,14047.87378929637
1735574373500,6,38,1149,1149.6438578968705,10004,-4623,-10808,15435.835221976165
1735574373529,6,38,1149,1149.6438578968705,10126,-4578,-12706,16880.05912311921
1735574373559,6,38,1149,1149.6438578968705,10210,-4509,-14594,18372.806454104935
1735574373589,28,133,871,881.5406967349834,10177,-4424,-16458,19849.6566469045
1735574373619,28,133,871,881.5406967349834,10047,-4363,17701,20815.94050241305
1735574373649,28,133,871,881.5406967349834,9926,-4329,15861,19205.130512443804
1735574373680,83,107,897,907.1642629645416,9821,-4322,14030,17662.746813562153
1735574373709,83,107,897,907.1642629645416,9719,-4347,12278,16251.296994394017
1735574373739,83,107,897,907.1642629645416,9642,-4392,10522,14932.190462219532
1735574373769,83,107,897,907.1642629645416,9592,-4451,8761,13732.187953854986
1735574373799,-25,57,824,826.3473845786649,9706,-4495,6877,12716.311965345927
1735574373829,-25,57,824,826.3473845786649,9850,-4500,4948,11906.099445242342
1735574373859,-25,57,824,826.3473845786649,9966,-4476,3024,11335.797634044107
1735574373890,140,87,766,783.53366232728,9958,-4453,1193,10973.341423650318
1735574373920,140,87,766,783.53366232728,9834,-4475,-499,10815.830157690163
1735574373949,140,87,766,783.53366232728,9738,-4520,-2196,10958.168642615427
1735574373980,-46,4,1036,1037.0284470543709,9721,-4580,-3928,11441.30346595177
1735574374009,-46,4,1036,1037.0284470543709,10027,-4569,-5946,12520.83886966045
1735574374039,-46,4,1036,1037.0284470543709,10267,-4492,-7950,13740.154766231712
1735574374069,-46,4,1036,1037.0284470543709,10429,-4364,-9929,15046.380893756479
1735574374099,125,138,883,902.4178632983725,10216,-4236,-11669,16077.186103295564
1735574374129,125,138,883,902.4178632983725,9945,-4179,-13349,17162.83388604574
1735574374159,125,138,883,902.4178632983725,9712,-4174,-15035,18379.23951092645
1735574374190,-57,67,995,998.8808737782499,9664,-4194,-16874,19892.571678895616
1735574374219,-57,67,995,998.8808737782499,9780,-4176,17111,20146.30727949914
1735574374249,-57,67,995,998.8808737782499,9866,-4131,15103,18506.85618899115
1735574374279,-28,113,1014,1020.6610602937686,9904,-4079,13132,16946.29401963745
1735574374309,-28,113,1014,1020.6610602937686,9837,-4057,11256,15489.459448282887
1735574374339,-28,113,1014,1020.6610602937686,9776,-4051,9378,14139.577822551846
1735574374369,-28,113,1014,1020.6610602937686,9726,-4058,7500,12934.931000975614
1735574374399,-104,76,924,932.9351531591036,9754,-4046,5509,11910.487521508094
1735574374429,-104,76,924,932.9351531591036,9796,-4019,3494,11149.97816141359
1735574374459,-104,76,924,932.9351531591036,9821,-3983,1482,10701.058545770133
1735574374489,-42,62,916,919.056037464528,9791,-3960,-445,10570.870635855876
1735574374520,-42,62,916,919.056037464528,9730,-3960,-2299,10753.599443907142
1735574374549,-42,62,916,919.056037464528,9682,-3974,-4155,11260.454031698722
1735574374579,-42,75,932,935.9556613429933,9644,-3995,-6023,12051.692412271399
1735574374609,-42,75,932,935.9556613429933,9601,-4021,-7911,13074.079814656174
1735574374639,-42,75,932,935.9556613429933,9574,-4056,-9802,14289.570182479247
1735574374669,-42,75,932,935.9556613429933,9562,-4095,-11696,15652.389114764557
1735574374699,0,105,1041,1046.281988758289,9600,-4154,-13599,17156.588151494456
1735574374730,0,105,1041,1046.281988758289,9631,-4209,-15491,18720.120806234132
1735574374759,0,105,1041,1046.281988758289,9673,-4255,-17388,20347.346215170175
1735574374789,-114,131,920,936.2462282968087,9727,-4269,16676,19771.895862562094
1735574374819,-114,131,920,936.2462282968087,9806,-4247,14659,18140.587807455413
1735574374849,-114,131,920,936.2462282968087,9861,-4208,12649,16581.428949279372
1735574374879,-62,5,1032,1033.872816162607,9892,-4169,10654,15124.150918316043
1735574374909,-62,5,1032,1033.872816162607,9974,-4142,8740,13893.323576452109
1735574374940,-62,5,1032,1033.872816162607,10031,-4097,6832,12809.472822876045
1735574374969,-62,5,1032,1033.872816162607,10063,-4040,4931,11912.192493407752
1735574375000,32,77,995,998.4878567113373,9960,-3978,3083,11159.344649216637
1735574375030,32,77,995,998.4878567113373,9825,-3954,1268,10666.42231490953
1735574375059,32,77,995,998.4878567113373,9710,-3959,-547,10500.332851867126
1735574375089,-37,47,1112,1113.607650835787,9656,-3971,-2411,10715.41403773088
1735574375119,-37,47,1112,1113.607650835787,9664,-3971,-4335,11311.673704629213
1735574375149,-37,47,1112,1113.607650835787,9670,-3970,-6260,12184.309582409665
1735574375179,-3,125,1083,1090.1940194295692,9666,-3971,-8158,13257.200345472644
1735574375209,-3,125,1083,1090.1940194295692,9563,-4003,-9970,14383.180385436317
1735574375239,-3,125,1083,1090.1940194295692,9489,-4055,-11786,15665.054803606658
1735574375269,-3,125,1083,1090.1940194295692,9442,-4122,-13607,17067.299054038984
1735574375299,7,166,902,917.174465409935,9404,-4206,-15437,18558.73435878643
1735574375329,7,166,902,917.174465409935,9384,-4299,-17271,20120.34537476929
1735574375359,7,166,902,917.174465409935,9393,-4393,16885,19814.896492285796
1735574375390,9,56,1051,1052.5293345080697,9467,-4474,14995,18289.0893704416
1735574375420,9,56,1051,1052.5293345080697,9611,-4522,13080,16849.516461904775
1735574375450,9,56,1051,1052.5293345080697,9742,-4538,11162,15494.845981809563
1735574375480,28,68,879,882.0708588316473,9825,-4525,9261,14239.81639628826
1735574375509,28,68,879,882.0708588316473,9816,-4501,7414,13098.864569114377
1735574375539,28,68,879,882.0708588316473,9801,-4480,5568,12129.823782726606
1735574375569,28,68,879,882.0708588316473,9783,-4462,3725,11379.462113825943
1735574375599,-60,81,903,908.6088267235797,9884,-4434,1767,10976.160576449307
1735574375629,-60,81,903,908.6088267235797,9972,-4376,-216,10892.05288272142
1735574375659,-60,81,903,908.6088267235797,10023,-4301,-2188,11124.139247600238
1735574375689,-81,59,1041,1045.812124618949,10067,-4212,-4138,11670.838744494758
1735574375719,-81,59,1041,1045.812124618949,10101,-4106,-6082,12485.19767564775
1735574375749,-81,59,1041,1045.812124618949,10096,-3994,-8013,13494.051319007202
1735574375779,15,122,1000,1007.5261783199481,10062,-3895,-9922,14658.136068409243
1735574375809,15,122,1000,1007.5261783199481,9908,-3855,-11700,15808.842114462399
1735574375839,15,122,1000,1007.5261783199481,9773,-3849,-13480,17089.08218717436
1735574375869,15,122,1000,1007.5261783199481,9662,-3872,-15263,18474.46337515653
1735574375899,72,58,1138,1141.7495347054012,9560,-3883,-17100,19972.01264269578
1735574375929,72,58,1138,1141.7495347054012,9486,-3918,17081,19927.254728135533
1735574375959,72,58,1138,1141.7495347054012,9435,-3967,15258,18372.88431357472
1735574375989,-13,0,985,985.0857830666322,9414,-4037,13433,16892.787040627725
1735574376019,-13,0,985,985.0857830666322,9471,-4101,11554,15492.35159683642
1735574376049,-13,0,985,985.0857830666322,9536,-4150,9671,14201.62092861234
1735574376079,54,110,1091,1097.8601914633757,9604,-4184,7782,13049.988352485223
1735574376109,54,110,1091,1097.8601914633757,9537,-4234,5961,12017.264497380425
1735574376139,54,110,1091,1097.8601914633757,9497,-4296,4134,11213.32158639892
1735574376169,54,110,1091,1097.8601914633757,9481,-4365,2301,10688.179779550866
1735574376199,-78,31,966,969.639623777824,9624,-4408,336,10590.785428852763
1735574376230,-78,31,966,969.639623777824,9802,-4401,-1680,10875.219767894348
1735574376259,-78,31,966,969.639623777824,9940,-4354,-3688,11461.337618271264
1735574376289,-65,57,915,919.0750785436411,9990,-4286,-5649,12250.759037708644
1735574376319,-65,57,915,919.0750785436411,9974,-4219,-7578,13217.667002916967
1735574376350,-65,57,915,919.0750785436411,9942,-4157,-9500,14365.723545996561
1735574376380,-34,114,1057,1063.6733521152064,9917,-4113,-11414,15669.813464109902
1735574376409,-34,114,1057,1063.6733521152064,9859,-4105,-13285,17045.296447994093
1735574376439,-34,114,1057,1063.6733521152064,9809,-4110,-15158,18516.844898632164
1735574376469,-47,99,949,955.3067570157766,9751,-4112,-17058,20074.01078509225
1735574376499,-47,99,949,955.3067570157766,9685,-4098,16974,19967.71156141835
1735574376529,-47,99,949,955.3067570157766,9629,-4100,15005,18294.19760470516
1735574376560,-47,99,949,955.3067570157766,9584,-4114,13034,16693.2084393624
1735574376589,-10,133,930,939.5153005672659,9528,-4167,11176,15265.963742915152
1735574376619,-10,133,930,939.5153005672659,9481,-4235,9326,13957.036289986496
1735574376649,-10,133,930,939.5153005672659,9462,-4311,7469,12802.348456435639
1735574376679,71,159,902,918.6544508137976,9485,-4389,5610,11861.730312226797
1735574376709,71,159,902,918.6544508137976,9474,-4478,3849,11163.510245438036
1735574376739,71,159,902,918.6544508137976,9490,-4567,2079,10734.981602219912
1735574376769,-26,154,864,878.0022779013731,9528,-4642,284,10602.433871522142
1735574376799,-26,154,864,878.0022779013731,9665,-4673,-1669,10864.37826108793
1735574376829,-26,154,864,878.0022779013731,9786,-4674,-3622,11433.763859727032
1735574376859,-26,154,864,878.0022779013731,9882,-4650,-5572,12260.652837430804
1735574376889,-15,42,865,866.1489479298581,10042,-4605,-7573,13393.958264829706
1735574376919,-15,42,865,866.1489479298581,10178,-4521,-9555,14674.097927981808
1735574376949,-15,42,865,866.1489479298581,10258,-4409,-11517,16040.795927883379
1735574376980,-51,33,925,926.992448728683,10308,-4287,-13434,17467.271939258288
1735574377009,-51,33,925,926.992448728683,10337,-4149,-15341,18958.21856082475
1735574377039,-51,33,925,926.992448728683,10318,-4007,-17234,20482.380940701205
1735574377069,71,88,964,970.6085719794567,10234,-3876,16895,20129.559284793097
1735574377099,71,88,964,970.6085719794567,9965,-3821,15176,18552.957769584882
1735574377129,71,88,964,970.6085719794567,9734,-3823,13452,17038.849403642253
1735574377159,71,88,964,970.6085719794567,9547,-3873,11724,15607.610771671621
1735574377189,99,10,1119,1123.4153283625785,9476,-3941,9939,14286.699338895602
1735574377219,99,10,1119,1123.4153283625785,9450,-4018,8159,13115.49103160076
1735574377249,99,10,1119,1123.4153283625785,9450,-4099,6373,12112.779614935624
1735574377279,17,59,971,972.9393609059097,9452,-4184,4593,11311.136503464186
1735574377309,17,59,971,972.9393609059097,9477,-4266,2767,10754.932542791703
1735574377339,17,59,971,972.9393609059097,9520,-4341,932,10504.442155583512
1735574377369,17,54,1089,1090.4705406383064,9593,-4401,-931,10595.339116800367
1735574377399,17,54,1089,1090.4705406383064,9702,-4434,-2849,11041.103251034292
1735574377430,17,54,1089,1090.4705406383064,9800,-4444,-4768,11769.57773244223
1735574377460,17,54,1089,1090.4705406383064,9882,-4432,-6684,12726.837941924145
1735574377490,44,72,967,970.6745077522124,9860,-4414,-8520,13758.393656237635
1735574377519,44,72,967,970.6745077522124,9827,-4405,-10344,14932.25669482011
1735574377550,44,72,967,970.6745077522124,9798,-4403,-12168,16231.063951571381
1735574377580,2,111,1057,1062.8141888401753,9797,-4401,-13994,17640.352774250292
1735574377609,2,111,1057,1062.8141888401753,9806,-4392,-15843,19142.83022439472
1735574377639,2,111,1057,1062.8141888401753,9810,-4382,-17692,20698.91030948248
1735574377669,56,129,870,881.2928003790795,9802,-4377,16469,19658.720558571455
1735574377699,56,129,870,881.2928003790795,9727,-4400,14712,18177.38905893803
1735574377729,56,129,870,881.2928003790795,9671,-4437,12950,16760.599929596792
1735574377759,56,129,870,881.2928003790795,9636,-4485,11184,15428.855336673554
1735574377789,185,119,964,988.7780337365915,9581,-4546,9477,14222.34882148515
1735574377819,185,119,964,988.7780337365915,9522,-4627,7815,13158.717186716949
1735574377849,185,119,964,988.7780337365915,9493,-4717,6146,12253.181382808303
1735574377879,33,117,1020,1027.2185745984152,9585,-4791,4344,11562.709111622587
1735574377909,33,117,1020,1027.2185745984152,9786,-4813,2380,11162.220433229224
1735574377939,33,117,1020,1027.2185745984152,9955,-4793,419,11056.691865110468
1735574377969,-82,31,1147,1150.345165591615,10080,-4740,-1531,11243.574209298395
1735574377999,-82,31,1147,1150.345165591615,10313,-4619,-3603,11860.63822060179
1735574378030,-82,31,1147,1150.345165591615,10452,-4450,-5640,12682.917803092472
1735574378059,-82,31,1147,1150.345165591615,10504,-4254,-7643,13669.16167875704
1735574378089,-38,58,922,924.6036988894215,10370,-4088,-9489,14638.639451806988
1735574378119,-38,58,922,924.6036988894215,10203,-3960,-11315,15742.046690313175
1735574378149,-38,58,922,924.6036988894215,10036,-3869,-13140,16980.873269652537
1735574378179,-28,90,1039,1043.2665047819755,9920,-3809,-15031,18407.765806854455
1735574378209,-28,90,1039,1043.2665047819755,9815,-3776,-16949,19946.453368957602
1735574378239,-28,90,1039,1043.2665047819755,9722,-3768,17131,20054.58224446473
1735574378269,-148,73,909,923.8582142298676,9621,-3783,15235,18411.408283996094
1735574378300,-148,73,909,923.8582142298676,9585,-3800,13258,16795.439529824755
1735574378329,-148,73,909,923.8582142298676,9562,-3824,11280,15273.939243037468
1735574378359,-148,73,909,923.8582142298676,9550,-3853,9298,13874.469827708734
1735574378389,33,58,1083,1085.053915711104,9502,-3915,7483,12712.612556040556
1735574378419,33,58,1083,1085.053915711104,9447,-3998,5728,11749.033875174588
1735574378449,33,58,1083,1085.053915711104,9424,-4090,3968,11012.942386120068
1735574378479,76,79,977,983.1307135879746,9413,-4181,2163,10524.44293062583
1735574378509,76,79,977,983.1307135879746,9398,-4277,355,10331.561256654291
1735574378539,76,79,977,983.1307135879746,9413,-4372,-1461,10481.100800965516
1735574378569,-19,85,870,874.348900611192,9438,-4460,-3264,10937.144965666314
1735574378599,-19,85,870,874.348900611192,9527,-4521,-5144,11733.026293331146
1735574378630,-19,85,870,874.348900611192,9617,-4561,-7030,12755.795153576275
1735574378659,-19,85,870,874.348900611192,9703,-4582,-8919,13953.18938450991
1735574378689,67,183,935,955.0931891705646,9738,-4608,-10794,15250.335865153922
1735574378719,67,183,935,955.0931891705646,9728,-4641,-12637,16609.23339591566
1735574378749,67,183,935,955.0931891705646,9730,-4675,-14484,18064.185035589067
1735574378779,-13,100,836,842.0599741111081,9805,-4698,-16396,19673.28251716017
1735574378809,-13,100,836,842.0599741111081,9963,-4679,17614,20770.349202649435
1735574378839,-13,100,836,842.0599741111081,10082,-4627,15634,19169.710717692116
1735574378869,56,44,942,944.6883083853637,10140,-4553,13703,17644.308374090495
1735574378899,56,44,942,944.6883083853637,10120,-4486,11933,16276.826625604881
1735574378930,56,44,942,944.6883083853637,10085,-4423,10170,14989.965110032777
1735574378959,56,44,942,944.6883083853637,10040,-4368,8410,13806.12632131113
1735574378990,60,99,1031,1037.4786744796252,10039,-4314,6540,12734.351848445212
1735574379019,60,99,1031,1037.4786744796252,10008,-4266,4675,11841.21805389969
1735574379049,60,99,1031,1037.4786744796252,9969,-4225,2814,11187.054214582138
1735574379079,-4,106,1053,1058.3293438245016,9927,-4183,957,10814.743039018542
1735574379109,-4,106,1053,1058.3293438245016,9898,-4138,-932,10768.568707121667
1735574379139,-4,106,1053,1058.3293438245016,9862,-4101,-2819,11046.447664294617
1735574379169,-5,69,890,892.6847147789638,9814,-4070,-4710,11621.686452490447
1735574379199,-5,69,890,892.6847147789638,9780,-4045,-6613,12479.671229643833
1735574379230,-5,69,890,892.6847147789638,9746,-4028,-8516,13554.761377464378
1735574379260,-5,69,890,892.6847147789638,9713,-4019,-10418,14799.643711927663
1735574379289,65,76,932,937.3499879980797,9649,-4043,-12241,16102.519399149936
1735574379319,65,76,932,937.3499879980797,9588,-4087,-14041,17486.65188079182
1735574379349,65,76,932,937.3499879980797,9550,-4143,-15846,18959.500652707076
1735574379379,-35,82,901,905.4004638832477,9565,-4200,-17678,20533.89658588939
1735574379410,-35,82,901,905.4004638832477,9638,-4237,16416,19502.006794173773
1735574379440,-35,82,901,905.4004638832477,9708,-4257,14510,17969.624731752192
1735574379469,64,38,989,991.7968541994878,9771,-4257,12595,16499.348926548588
1735574379500,64,38,989,991.7968541994878,9786,-4254,10776,15165.239463984735
1735574379530,64,38,989,991.7968541994878,9798,-4249,8958,13939.173899481992
1735574379559,64,38,989,991.7968541994878,9805,-4240,7141,12849.4943869399
1735574379590,125,10,1151,1157.8108653834615,9781,-4263,5441,11976.878182564937
1735574379619,125,10,1151,1157.8108653834615,9760,-4294,3762,11307.019058973943
1735574379649,125,10,1151,1157.8108653834615,9750,-4328,2081,10868.516228078237
1735574379679,38,10,1011,1011.7633122425423,9754,-4337,313,10679.32834966694
1735574379709,38,10,1011,1011.7633122425423,9789,-4321,-1547,10811.511041477967
1735574379739,38,10,1011,1011.7633122425423,9813,-4299,-3404,11241.155901418679
1735574379769,156,75,1067,1080.9486574301297,9825,-4278,-5251,11933.35283983508
1735574379799,156,75,1067,1080.9486574301297,9693,-4303,-6948,12678.515764867747
1735574379830,156,75,1067,1080.9486574301297,9592,-4353,-8649,13629.390081731464
1735574379859,156,75,1067,1080.9486574301297,9521,-4421,-10355,14745.192674224369
1735574379889,-7,-30,1085,1085.4372390884698,9664,-4459,-12239,16219.392652007658
1735574379919,-7,-30,1085,1085.4372390884698,9855,-4443,-14186,17835.46663252745
1735574379949,-7,-30,1085,1085.4372390884698,10002,-4388,-16123,19474.231101637877
1735574379980,63,63,1000,1003.9611546270105,10040,-4320,17977,21038.928893838678
1735574380010,63,63,1000,1003.9611546270105,9965,-4277,16137,19442.137819694624
1735574380040,63,63,1000,1003.9611546270105,9892,-4250,14298,17898.239243009353
1735574380069,-70,28,846,849.3526947034429,9822,-4242,12479,16437.508600758207
1735574380100,-70,28,846,849.3526947034429,9876,-4217,10548,15052.533640553673
1735574380130,-70,28,846,849.3526947034429,9912,-4181,8623,13787.118408137358
1735574380160,-70,28,846,849.3526947034429,9930,-4138,6702,12674.57091975898
1735574380189,-20,-11,954,954.2730217291066,9969,-4078,4732,11764.474871408413
1735574380219,-20,-11,954,954.2730217291066,9981,-4014,2788,11113.302884381403
1735574380249,-20,-11,954,954.2730217291066,9972,-3949,851,10759.162885652397
1735574380279,-39,61,1012,1014.5866153266561,9929,-3901,-1021,10716.589149538206
1735574380309,-39,61,1012,1014.5866153266561,9851,-3873,-2872,10967.71234123142
1735574380340,-39,61,1012,1014.5866153266561,9781,-3863,-4724,11528.525751369947
1735574380369,-71,34,950,953.2559991943402,9726,-3865,-6594,12369.888318008372
1735574380400,-71,34,950,953.2559991943402,9727,-3861,-8531,13501.84472581432
1735574380430,-71,34,950,953.2559991943402,9727,-3857,-10468,14801.013546375802
1735574380459,39,43,1025,1026.6425862976853,9712,-3868,-12383,16205.648922520813
1735574380489,39,43,1025,1026.6425862976853,9608,-3938,-14140,17543.121387028023
1735574380519,39,43,1025,1026.6425862976853,9540,-4027,-15902,18976.351941297886
1735574380549,39,43,1025,1026.6425862976853,9508,-4128,-17670,20485.881674948727
1735574380579,20,0,990,990.2019995940223,9518,-4198,16502,19507.2174335552
1735574380609,20,0,990,990.2019995940223,9561,-4259,14663,18015.420367007817
1735574380639,20,0,990,990.2019995940223,9612,-4310,12818,16591.195496407123
1735574380670,-22,64,891,893.5664496835141,9673,-4347,10958,15249.298410090872
1735574380700,-22,64,891,893.5664496835141,9721,-4365,9019,13960.423596725137
1735574380730,-22,64,891,893.5664496835141,9765,-4373,7081,12830.390290244486
1735574380759,122,104,1036,1048.3301006839401,9802,-4376,5165,11912.422297752879
1735574380790,122,104,1036,1048.3301006839401,9692,-4419,3464,11200.96964552623
1735574380819,122,104,1036,1048.3301006839401,9614,-4481,1757,10751.530402691516
1735574380849,122,104,1036,1048.3301006839401,9565,-4557,44,10595.159743958558
1735574380879,39,114,1091,1097.632907669955,9657,-4600,-1844,10854.39933851708
1735574380909,39,114,1091,1097.632907669955,9763,-4615,-3769,11437.64639250576
1735574380939,39,114,1091,1097.632907669955,9853,-4609,-5692,12276.944000849722
1735574380969,33,161,1051,1063.7720620508887,9888,-4613,-7505,13243.010911420408
1735574381000,33,161,1051,1063.7720620508887,9887,-4628,-9268,14320.159810560775
1735574381030,33,161,1051,1063.7720620508887,9890,-4643,-11033,15527.286884707193
1735574381060,-19,55,1163,1164.4548080539664,9919,-4638,-12871,16898.52792405303
1735574381090,-19,55,1163,1164.4548080539664,10096,-4557,-14907,18571.863503698274
1735574381119,-19,55,1163,1164.4548080539664,10208,-4439,-16920,20253.256157961365
1735574381149,-19,55,1163,1164.4548080539664,10257,-4299,17089,20389.24645493305
1735574381179,-59,86,903,909.0027502708668,10219,-4191,15255,18833.679061723444
1735574381209,-59,86,903,909.0027502708668,10158,-4091,13414,17316.369163309035
1735574381239,-59,86,903,909.0027502708668,10081,-4004,11578,15865.328896685376
1735574381269,73,73,956,961.5581105684669,9961,-3938,9761,14491.600532722396
1735574381300,73,73,956,961.5581105684669,9797,-3917,8021,13253.699068561953
1735574381330,73,73,956,961.5581105684669,9659,-3930,6279,12172.387686892002
1735574381359,-36,55,1039,1041.0773266189212,9554,-3983,4538,11302.06392655784
1735574381389,-36,55,1039,1041.0773266189212,9578,-4054,2680,10740.363122352986
1735574381419,-36,55,1039,1041.0773266189212,9618,-4117,817,10493.955498285668
1735574381449,-36,55,1039,1041.0773266189212,9668,-4170,-1050,10581.19199334366
1735574381480,-38,70,998,1001.1733116698626,9689,-4160,-2997,10961.949187986596
1735574381509,-38,70,998,1001.1733116698626,9699,-4147,-4943,11649.096917787232
1735574381539,-38,70,998,1001.1733116698626,9703,-4132,-6887,12595.729514402887
1735574381569,-127,59,815,826.9431661244924,9729,-4123,-8823,13765.823585968259
1735574381599,-127,59,815,826.9431661244924,9790,-4098,-10801,15142.632036736546
1735574381630,-127,59,815,826.9431661244924,9832,-4059,-12774,16622.839137764644
1735574381660,-15,105,901,907.2215826356867,9868,-4013,-14745,18190.563982460797
1735574381689,-15,105,901,907.2215826356867,9802,-3990,-16596,19683.153202675632
1735574381719,-15,105,901,907.2215826356867,9743,-3982,17552,20465.949208380247
1735574381749,-15,105,901,907.2215826356867,9693,-3987,15699,18876.149474932645
1735574381779,-109,105,874,887.0073280418826,9674,-3985,13732,17263.670669935753
1735574381809,-109,105,874,887.0073280418826,9676,-3979,11730,15717.834361005336
1735574381840,-109,105,874,887.0073280418826,9676,-3972,9730,14285.470240772614
1735574381869,-7,94,932,936.7545035920564,9644,-3975,7798,13023.677092127245
1735574381900,-7,94,932,936.7545035920564,9579,-4001,5954,11967.261925770656
1735574381930,-7,94,932,936.7545035920564,9534,-4040,4106,11139.030119359584
1735574381959,-13,121,950,957.7630187055669,9496,-4087,2246,10579.324222274314
1735574381989,-13,121,950,957.7630187055669,9440,-4143,356,10315.269506900922
1735574382019,-13,121,950,957.7630187055669,9411,-4209,-1539,10423.584939933095
1735574382049,-13,121,950,957.7630187055669,9406,-4279,-3441,10891.425893793705
1735574382079,-30,96,933,938.4055626433594,9454,-4323,-5343,11688.20319809679
1735574382109,-30,96,933,938.4055626433594,9515,-4351,-7255,12731.906809272521
1735574382139,-30,96,933,938.4055626433594,9573,-4366,-9168,13955.518944131029
1735574382169,-20,166,995,1008.9504447692166,9607,-4361,-11097,15311.961957894227
1735574382199,-20,166,995,1008.9504447692166,9593,-4354,-13027,16753.677029237493
1735574382230,-20,166,995,1008.9504447692166,9581,-4350,-14957,18287.42491440498
1735574382259,151,211,1082,1112.6751547509273,9572,-4358,-16853,19865.521815446984
1735574382289,151,211,1082,1112.6751547509273,9410,-4424,17517,20370.69377807246
1735574382319,151,211,1082,1112.6751547509273,9291,-4517,15883,18947.180766541496
1735574382349,151,211,1082,1112.6751547509273,9214,-4629,14241,17582.136332084334
1735574382379,19,165,1039,1052.1915224900836,9270,-4699,12396,16176.350546399519
1735574382409,19,165,1039,1052.1915224900836,9383,-4742,10488,14850.097541767193
1735574382439,19,165,1039,1052.1915224900836,9489,-4762,8577,13648.541826876599
1735574382469,29,190,893,913.4495059936263,9566,-4780,6689,12613.464115777235
1735574382499,29,190,893,913.4495059936263,9616,-4797,4816,11775.92972974958
1735574382530,29,190,893,913.4495059936263,9661,-4804,2943,11183.674977394507
1735574382559,-56,155,961,975.0292303310706,9724,-4801,1052,10895.525733070433
1735574382590,-56,155,961,975.0292303310706,9918,-4752,-976,11040.869712119602
1735574382620,-56,155,961,975.0292303310706,10054,-4664,-2985,11478.067650959372
1735574382649,-56,155,961,975.0292303310706,10131,-4550,-4974,12168.826443005915
1735574382680,23,160,873,887.8389493596235,10078,-4492,-6786,12953.530175207066
1735574382710,23,160,873,887.8389493596235,10000,-4455,-8563,13898.63281046017
1735574382739,23,160,873,887.8389493596235,9927,-4433,-10340,15003.746798716646
1735574382770,-102,88,901,911.0153675981542,9914,-4390,-12201,16322.496653392212
1735574382800,-102,88,901,911.0153675981542,9980,-4306,-14166,17855.463925644723
1735574382830,-102,88,901,911.0153675981542,10006,-4210,-16119,19433.638285200228
1735574382860,0,127,1006,1013.9847138887252,10012,-4104,17920,20933.45074277053
1735574382889,0,127,1006,1013.9847138887252,9912,-4014,16044,19281.33491229277
1735574382919,0,127,1006,1013.9847138887252,9807,-3948,14171,17679.96589363226
1735574382949,0,127,1006,1013.9847138887252,9705,-3907,12299,16146.735738222756
1735574382979,-43,106,818,825.9594421035454,9572,-3900,10469,14711.666968770058
1735574383009,-43,106,818,825.9594421035454,9477,-3917,8619,13395.65522846867
1735574383039,-43,106,818,825.9594421035454,9404,-3955,6766,12241.568404416159
1735574383069,94,133,1070,1082.3238886765828,9346,-4012,4908,11293.021030707416
1735574383099,94,133,1070,1082.3238886765828,9256,-4098,3121,10592.817425029094
1735574383130,94,133,1070,1082.3238886765828,9204,-4200,1326,10203.523509062936
1735574383160,11,43,1040,1040.946684513669,9198,-4305,-478,10166.843807199952
1735574383189,11,43,1040,1040.946684513669,9369,-4375,-2391,10612.995194571606
1735574383219,11,43,1040,1040.946684513669,9528,-4406,-4308,11347.003304837803
1735574383249,11,43,1040,1040.946684513669,9666,-4402,-6225,12310.96198515778
1735574383279,54,124,979,988.2980319721374,9694,-4404,-8076,13363.780453150224
1735574383309,54,124,979,988.2980319721374,9687,-4410,-9911,14543.520550403193
1735574383339,54,124,979,988.2980319721374,9684,-4416,-11747,15851.590488023592
1735574383369,82,153,921,937.216090344164,9649,-4430,-13554,17217.404479189074
1735574383399,82,153,921,937.216090344164,9589,-4461,-15334,18627.425962810856
1735574383430,82,153,921,937.216090344164,9549,-4502,-17117,20110.770596871716
1735574383459,238,169,920,965.1968711097234,9525,-4555,17104,20100.260346572628
1735574383489,238,169,920,965.1968711097234,9375,-4652,15533,18729.81094405387
1735574383519,238,169,920,965.1968711097234,9272,-4771,13956,17421.319152119337
1735574383549,238,169,920,965.1968711097234,9212,-4906,12369,16184.002626050207
1735574383579,-27,68,892,894.9955307150981,9476,-4976,10459,14964.819845223663
1735574383609,-27,68,892,894.9955307150981,9811,-4962,8431,13854.924250965792
1735574383639,-27,68,892,894.9955307150981,10072,-4882,6422,12904.309047756102
1735574383669,96,111,938,949.4108699609459,10192,-4778,4519,12129.612895719303
1735574383700,96,111,938,949.4108699609459,10168,-4692,2746,11530.11725872725
1735574383730,96,111,938,949.4108699609459,10124,-4612,982,11168.269516805189
1735574383759,198,75,1003,1025.1038971733549,10068,-4546,-782,11074.396778154556
1735574383789,198,75,1003,1025.1038971733549,9957,-4523,-2435,11203.954792839893
1735574383819,198,75,1003,1025.1038971733549,9862,-4520,-4090,11593.858029146295
1735574383849,198,75,1003,1025.1038971733549,9783,-4535,-5747,12218.8920528827
1735574383879,119,103,1054,1065.6856947524443,9745,-4526,-7463,13082.28076445388
1735574383909,119,103,1054,1065.6856947524443,9725,-4518,-9210,14135.488990480662
1735574383939,119,103,1054,1065.6856947524443,9706,-4515,-10957,15318.208446159753
1735574383970,38,82,928,932.3904761418362,9680,-4513,-12726,16613.869055701623
1735574384000,38,82,928,932.3904761418362,9692,-4505,-14554,18056.821564162394
1735574384030,38,82,928,932.3904761418362,9699,-4494,-16380,19559.42322769258
1735574384059,20,132,972,981.1258838701586,9704,-4488,17800,20764.146021447643
1735574384089,20,132,972,981.1258838701586,9687,-4494,15970,19211.32231263637
1735574384119,20,132,972,981.1258838701586,9674,-4502,14140,17714.228179630067
1735574384149,20,132,972,981.1258838701586,9667,-4514,12308,16288.460608664036
1735574384179,104,96,931,941.6968726718806,9665,-4535,10520,14988.290429531982
1735574384209,104,96,931,941.6968726718806,9658,-4562,8763,13815.895808813846
1735574384239,104,96,931,941.6968726718806,9660,-4589,7003,12783.447500576673
1735574384269,194,130,1092,1116.6915420114904,9594,-4613,5300,11891.787292076831
1735574384300,194,130,1092,1116.6915420114904,9514,-4659,3630,11198.186326365534
1735574384330,194,130,1092,1116.6915420114904,9460,-4718,1954,10750.313483801297
1735574384359,107,102,909,920.9419091343384,9421,-4787,268,10570.829390355328
1735574384389,107,102,909,920.9419091343384,9488,-4850,-1544,10767.013513505033
1735574384419,107,102,909,920.9419091343384,9561,-4899,-3364,11257.416133376255
1735574384450,63,118,968,977.1985468675238,9642,-4936,-5181,12007.290327130431
1735574384479,63,118,968,977.1985468675238,9759,-4952,-7041,13012.919195937551
1735574384509,63,118,968,977.1985468675238,9859,-4947,-8900,14173.309070220686
1735574384540,63,118,968,977.1985468675238,9938,-4923,-10754,15448.245499085002
1735574384569,85,111,1014,1023.5926924319067,10017,-4869,-12609,16823.624193377596
1735574384600,85,111,1014,1023.5926924319067,10059,-4802,-14443,18243.983501417664
1735574384630,85,111,1014,1023.5926924319067,10073,-4729,-16267,19708.984220400605
1735574384660,165,102,1164,1180.052964913016,10049,-4662,17941,21085.44820486394
1735574384690,165,102,1164,1180.052964913016,9979,-4617,16214,19590.58258449707
1735574384719,165,102,1164,1180.052964913016,9910,-4585,14488,18142.008405906992
1735574384749,142,157,1027,1048.5904825049672,9834,-4566,12772,16753.50399170275
1735574384779,142,157,1027,1048.5904825049672,9721,-4565,11044,15404.772052841288
1735574384809,142,157,1027,1048.5904825049672,9628,-4584,9312,14157.146040074602
1735574384839,142,157,1027,1048.5904825049672,9558,-4621,7576,13042.422359362543
1735574384869,31,90,1017,1021.445054812054,9615,-4650,5752,12130.796717446055
1735574384899,31,90,1017,1021.445054812054,9714,-4653,3881,11448.77137513017
1735574384930,31,90,1017,1021.445054812054,9795,-4637,2014,11022.70338891508
1735574384959,-69,140,1082,1093.1994328575186,9894,-4601,125,10912.197853778129
1735574384989,-69,140,1082,1093.1994328575186,9997,-4532,-1826,11127.142894741668
1735574385019,-69,140,1082,1093.1994328575186,10058,-4443,-3764,11622.018284274036
1735574385050,12,132,1005,1013.7026191146988,10067,-4338,-5700,12355.271466058526
1735574385079,12,132,1005,1013.7026191146988,9973,-4250,-7558,13215.392275676119
1735574385109,12,132,1005,1013.7026191146988,9874,-4183,-9413,14268.774789728794
1735574385139,12,132,1005,1013.7026191146988,9776,-4139,-11266,15479.801452215077
1735574385170,114,151,882,902.0648535443557,9637,-4155,-12996,16704.2452687932
1735574385200,114,151,882,902.0648535443557,9502,-4208,-14691,17995.02011668784
1735574385230,114,151,882,902.0648535443557,9404,-4285,-16392,19377.67026760441
1735574385259,138,147,1089,1107.5080135150265,9362,-4374,17865,20638.244717029596
1735574385289,138,147,1089,1107.5080135150265,9351,-4468,16112,19157.264131394128
1735574385319,138,147,1089,1107.5080135150265,9367,-4561,14350,17733.186684857294
1735574385350,61,149,914,928.0721954675724,9382,-4643,12588,16371.839145312906
1735574385379,61,149,914,928.0721954675724,9434,-4703,10741,15049.506503536919
1735574385409,61,149,914,928.0721954675724,9495,-4750,8888,13846.084970127837
1735574385439,61,149,914,928.0721954675724,9558,-4784,7031,12793.630485518956
1735574385470,66,74,1121,1125.3768257788145,9765,-4797,5061,11999.173096509609
1735574385500,66,74,1121,1125.3768257788145,9951,-4763,3100,11459.43148677106
1735574385530,66,74,1121,1125.3768257788145,10088,-4691,1153,11184.928877735432
1735574385559,137,118,1089,1103.9085107018607,10045,-4611,-657,11072.262415604138
1735574385589,137,118,1089,1103.9085107018607,9887,-4568,-2363,11144.647235332306
1735574385619,137,118,1089,1103.9085107018607,9749,-4555,-4070,11504.604556437393
1735574385649,65,108,974,982.1227010918748,9644,-4569,-5786,12139.204792736631
1735574385679,65,108,974,982.1227010918748,9647,-4587,-7604,13112.055292744917
1735574385709,65,108,974,982.1227010918748,9654,-4603,-9424,14254.792211744092
1735574385739,65,108,974,982.1227010918748,9665,-4618,-11245,15530.234190120895
1735574385769,26,121,867,875.7887873226056,9663,-4625,-13083,16909.437690236777
1735574385800,26,121,867,875.7887873226056,9670,-4631,-14937,18386.65358350997
1735574385830,26,121,867,875.7887873226056,9677,-4634,-16792,19927.10588620435
1735574385859,40,93,1037,1041.9299400631503,9708,-4639,17343,20409.439825727703
1735574385889,40,93,1037,1041.9299400631503,9751,-4637,15482,18875.27732246602
1735574385919,40,93,1037,1041.9299400631503,9785,-4627,13623,17399.46789416274
1735574385949,-24,191,660,687.5005454543291,9773,-4617,11811,16010.2448138684
1735574385979,-24,191,660,687.5005454543291,9669,-4625,10008,14664.250747992548
1735574386009,-24,191,660,687.5005454543291,9587,-4653,8201,13446.835278235545
1735574386039,-24,191,660,687.5005454543291,9528,-4697,6390,12396.640391654506
1735574386070,116,70,958,967.5329451755118,9684,-4747,4564,11710.84800516171
1735574386100,116,70,958,967.5329451755118,9820,-4772,2793,11269.659844023687
1735574386130,116,70,958,967.5329451755118,9938,-4772,1023,11071.691695490803
1735574386159,-148,100,971,987.2917501934269,10136,-4704,-903,11210.777002509683
1735574386189,-148,100,971,987.2917501934269,10393,-4525,-3035,11734.619678540928
1735574386219,-148,100,971,987.2917501934269,10526,-4292,-5119,12466.840056726483
1735574386249,-13,83,1214,1216.9034472791998,10561,-4036,-7169,13387.254311471042
1735574386279,-13,83,1214,1216.9034472791998,10463,-3820,-9066,14361.724304553405
1735574386309,-13,83,1214,1216.9034472791998,10324,-3629,-10955,15484.399956084833
1735574386339,-13,83,1214,1216.9034472791998,10161,-3474,-12842,16740.1183090204
1735574386369,67,157,1051,1064.7718065388472,9794,-3412,-14606,17913.665621530396
1735574386400,67,157,1051,1064.7718065388472,9452,-3444,-16351,19197.829069975596
1735574386430,67,157,1051,1064.7718065388472,9181,-3551,17898,20426.423230707816
1735574386460,-29,106,920,926.5403391110394,9012,-3699,16121,18835.747556176262
1735574386489,-29,106,920,926.5403391110394,8972,-3857,14273,17294.269628984046
1735574386519,-29,106,920,926.5403391110394,8982,-4016,12414,15840.20126134766
1735574386549,29,142,942,953.0839417386068,9023,-4166,10548,14492.425228373613
1735574386579,29,142,942,953.0839417386068,9006,-4316,8750,13277.740470426435
1735574386609,29,142,942,953.0839417386068,9032,-4462,6937,12231.45277552916
1735574386639,29,142,942,953.0839417386068,9094,-4597,5109,11398.908982880774
1735574386670,0,83,1016,1019.3846182869349,9288,-4706,3192,10890.465738433779
1735574386700,0,83,1016,1019.3846182869349,9503,-4766,1249,10704.28727192988
1735574386730,0,83,1016,1019.3846182869349,9696,-4780,-696,10832.6004264904
1735574386760,49,132,917,927.746732680854,9808,-4760,-2601,11208.017888993576
1735574386790,49,132,917,927.746732680854,9832,-4735,-4451,11785.578051160664
1735574386819,49,132,917,927.746732680854,9844,-4706,-6298,12598.237019519835
1735574386849,123,191,1038,1062.5695271369304,9867,-4679,-8147,13624.402335515491
1735574386879,123,191,1038,1062.5695271369304,9811,-4678,-9917,14713.473213351088
1735574386910,123,191,1038,1062.5695271369304,9765,-4688,-11688,15935.554995041748
1735574386939,123,191,1038,1062.5695271369304,9731,-4706,-13461,17263.757354643283
1735574386969,65,141,935,947.803249625153,9712,-4707,-15255,18686.72839209689
1735574387000,65,141,935,947.803249625153,9724,-4703,-17071,20201.322382458035
1735574387030,65,141,935,947.803249625153,9733,-4697,17112,20238.914051895175
1735574387090,7,125,1060,1067.3677904077863,9793,-4683,15258,18725.38122442371
1735574387090,7,125,1060,1067.3677904077863,9891,-4642,13354,17254.256315471845
1735574387120,7,125,1060,1067.3677904077863,9956,-4582,11461,15857.842886092672
1735574387149,-72,133,930,942.2170662856835,9967,-4505,9578,14538.713767042806
1735574387179,-72,133,930,942.2170662856835,9964,-4403,7612,13289.478883688404
1735574387209,-72,133,930,942.2170662856835,9929,-4304,5658,12211.56914569131
1735574387240,-72,133,930,942.2170662856835,9872,-4216,3713,11358.583054237002
1735574387269,67,170,1084,1099.2929545849004,9759,-4189,1903,10789.217348816364
1735574387300,67,170,1084,1099.2929545849004,9622,-4200,143,10499.6825190098
1735574387330,67,170,1084,1099.2929545849004,9514,-4239,-1621,10541.013139162667
1735574387360,74,160,953,969.1671682429198,9451,-4285,-3423,10927.01034135138
1735574387390,74,160,953,969.1671682429198,9420,-4335,-5243,11619.710581593674
1735574387420,74,160,953,969.1671682429198,9408,-4390,-7069,12559.989052543
1735574387450,216,190,1016,1055.9412862465413,9406,-4448,-8885,13682.13305738546
1735574387480,216,190,1016,1055.9412862465413,9267,-4539,-10507,14726.739591640779
1735574387510,216,190,1016,1055.9412862465413,9173,-4652,-12136,15908.096334885578
1735574387540,216,190,1016,1055.9412862465413,9122,-4778,-13774,17197.768576184528
1735574387570,3,78,1101,1103.7635616380892,9343,-4883,-15652,18871.15370082073
1735574387600,3,78,1101,1103.7635616380892,9643,-4916,-17633,20690.02643787581
1735574387630,3,78,1101,1103.7635616380892,9896,-4888,16390,19759.945850128235
1735574387660,74,166,1072,1087.2975673659903,10019,-4816,14480,18254.988824976037
1735574387690,74,166,1072,1087.2975673659903,10003,-4745,12652,16812.142576126338
1735574387720,74,166,1072,1087.2975673659903,9969,-4679,10831,15446.182797053776
1735574387750,-84,129,901,914.0557969839697,9890,-4613,9037,14168.953313494967
1735574387780,-84,129,901,914.0557969839697,9897,-4511,7098,12987.737832278568
1735574387809,-84,129,901,914.0557969839697,9871,-4411,5173,11985.55342902446
1735574387840,-84,129,901,914.0557969839697,9821,-4320,3258,11212.894586145007
1735574387869,77,120,989,999.2246994545321,9782,-4293,1464,10782.424078100434
1735574387900,77,120,989,999.2246994545321,9710,-4289,-267,10618.42314093764
1735574387930,77,120,989,999.2246994545321,9651,-4299,-2001,10753.009020734615
1735574387960,-42,108,1084,1090.1761325584046,9638,-4314,-3788,11218.314668433935
1735574387990,-42,108,1084,1090.1761325584046,9692,-4311,-5670,12027.821290657756
1735574388020,-42,108,1084,1090.1761325584046,9734,-4296,-7550,13046.41222712206
1735574388050,67,147,1013,1025.8006628970368,9767,-4268,-9446,14242.086539548902
1735574388080,67,147,1013,1025.8006628970368,9683,-4253,-11253,15442.749334234497
1735574388110,67,147,1013,1025.8006628970368,9611,-4255,-13062,16765.804185901732
1735574388140,17,95,1019,1023.5599640470508,9533,-4272,-14859,18163.643742377244
1735574388169,17,95,1019,1023.5599640470508,9516,-4290,-16690,19685.386864372264
1735574388200,17,95,1019,1023.5599640470508,9508,-4312,17476,20356.964017259546
1735574388230,17,95,1019,1023.5599640470508,9507,-4335,15641,18810.001461988246
1735574388260,49,142,938,949.9521040557781,9487,-4381,13848,17348.297726290035
1735574388289,49,142,938,949.9521040557781,9463,-4435,12063,15960.374776301463
1735574388320,49,142,938,949.9521040557781,9459,-4491,10272,14668.18823168015
1735574388349,-44,58,1074,1076.4645837183868,9480,-4539,8446,13483.61364768362
1735574388380,-44,58,1074,1076.4645837183868,9662,-4534,6445,12467.935875677256
1735574388410,-44,58,1074,1076.4645837183868,9806,-4489,4452,11667.435922258155
1735574388440,65,86,993,998.8343205957633,9904,-4426,2479,11127.62926233616
1735574388470,65,86,993,998.8343205957633,9863,-4398,657,10819.09524867953
1735574388500,65,86,993,998.8343205957633,9822,-4378,-1162,10816.13664854508
1735574388530,65,86,993,998.8343205957633,9783,-4368,-2982,11121.098731690137
1735574388560,5,112,921,927.7984694964742,9705,-4365,-4765,11659.565815243723
1735574388590,5,112,921,927.7984694964742,9647,-4374,-6572,12465.459036874656
1735574388619,5,112,921,927.7984694964742,9603,-4394,-8381,13482.06237932461
1735574388650,40,122,979,987.3829044499404,9596,-4422,-10203,14688.039658170861
1735574388680,40,122,979,987.3829044499404,9592,-4455,-12012,16004.425419239516
1735574388709,40,122,979,987.3829044499404,9597,-4487,-13825,17417.41091551784
1735574388739,13,117,917,924.5252835915305,9607,-4517,-15646,18907.539607257208
1735574388769,13,117,917,924.5252835915305,9643,-4540,-17511,20499.61389880307
1735574388800,13,117,917,924.5252835915305,9678,-4554,16621,19765.12689056157
1735574388830,13,117,917,924.5252835915305,9710,-4561,14753,18241.102762716953
1735574388860,89,92,1158,1165.053217668618,9812,-4562,12853,16801.392710129716
1735574388890,89,92,1158,1165.053217668618,9883,-4548,10985,15460.537442146053
1735574388920,89,92,1158,1165.053217668618,9936,-4520,9122,14225.518619719986
1735574388950,-14,42,1038,1038.943694335742,9916,-4464,7273,13082.464637827232
1735574388980,-14,42,1038,1038.943694335742,9912,-4388,5375,12099.293905017763
1735574389010,-14,42,1038,1038.943694335742,9886,-4314,3485,11335.290777037879
1735574389040,104,96,1117,1125.931170187592,9893,-4261,1600,10889.792009033046
1735574389069,104,96,1117,1125.931170187592,9849,-4256,-149,10730.262718125778
1735574389100,104,96,1117,1125.931170187592,9813,-4260,-1900,10865.199906122298
1735574389130,104,96,1117,1125.931170187592,9784,-4271,-3652,11282.960648695005
1735574389160,118,132,1062,1076.6577915010878,9689,-4250,-5419,11887.168796647922
1735574389190,118,132,1062,1076.6577915010878,9595,-4253,-7182,12717.435197397312
1735574389220,118,132,1062,1076.6577915010878,9519,-4274,-8947,13745.080792778193
1735574389249,4,12,1106,1106.0723303654242,9572,-4317,-10774,15044.55878382613
1735574389279,4,12,1106,1106.0723303654242,9762,-4322,-12696,16588.09042656809
1735574389309,4,12,1106,1106.0723303654242,9916,-4286,-14613,18172.41373621017
1735574389339,113,115,1068,1080.1009212106062,9991,-4221,-16489,19736.363469494576
1735574389369,113,115,1068,1080.1009212106062,9813,-4195,17820,20771.263659199936
1735574389400,113,115,1068,1080.1009212106062,9662,-4204,16127,19264.163335063375
1735574389430,113,115,1068,1080.1009212106062,9541,-4241,14430,17811.27906692835
1735574389460,52,36,1041,1042.919459977615,9538,-4288,12613,16384.387599175014
1735574389490,52,36,1041,1042.919459977615,9582,-4323,10768,15048.351305043354
1735574389519,52,36,1041,1042.919459977615,9627,-4349,8921,13826.683297161326
1735574389549,61,103,1012,1019.0554450077777,9642,-4375,7101,12748.842692574099
1735574389579,61,103,1012,1019.0554450077777,9621,-4410,5298,11835.56272426453
1735574389610,61,103,1012,1019.0554450077777,9613,-4448,3491,11152.647847036147
1735574389640,76,78,1011,1016.8485629630402,9611,-4486,1685,10739.401379965273
1735574389670,76,78,1011,1016.8485629630402,9617,-4522,-96,10627.529769424313
1735574389700,76,78,1011,1016.8485629630402,9631,-4557,-1882,10819.62725790496
1735574389730,76,78,1011,1016.8485629630402,9653,-4588,-3671,11300.725374948282
1735574389760,96,69,971,978.1707417419517,9676,-4626,-5412,12013.101015141761
1735574389788,96,69,971,978.1707417419517,9702,-4661,-7149,12921.374772058893
1735574389820,96,69,971,978.1707417419517,9733,-4691,-8888,13990.472257933254
1735574389850,154,101,1149,1163.6657595718798,9755,-4709,-10647,15188.591606860724
1735574389879,154,101,1149,1163.6657595718798,9737,-4730,-12379,16444.50394508755
1735574389910,154,101,1149,1163.6657595718798,9728,-4755,-14114,17789.01360390733
1735574389939,-33,39,902,903.4456264767681,9727,-4770,-15876,19220.166622586807
1735574389969,-33,39,902,903.4456264767681,9934,-4712,-17914,21019.007968978935
1735574390000,-33,39,902,903.4456264767681,10076,-4612,16068,19518.63068967698
1735574390044,-33,39,902,903.4456264767681,10155,-4484,14074,17925.059469915293
1735574390060,92,74,1099,1105.3239344192273,10146,-4406,12236,16494.66119688428
1735574390089,92,74,1099,1105.3239344192273,10082,-4347,10452,15158.741273601841
1735574390120,92,74,1099,1105.3239344192273,10014,-4302,8670,13926.819450254965
1735574390180,31,31,1032,1032.9307818048603,9971,-4261,6889,12846.605894165197
1735574390181,31,31,1032,1032.9307818048603,9973,-4211,5075,11956.122908367914
1735574390210,31,31,1032,1032.9307818048603,9960,-4162,3266,11277.881006643047
1735574390239,62,16,986,988.0769200826421,9925,-4116,1461,10843.505060634223
1735574390269,62,16,986,988.0769200826421,9855,-4087,-306,10673.248334035894
1735574390299,62,16,986,988.0769200826421,9791,-4072,-2073,10804.730167847783
1735574390329,62,16,986,988.0769200826421,9735,-4072,-3842,11229.976536039601
1735574390359,142,39,1069,1079.0949911847426,9662,-4106,-5578,11888.127018163963
1735574390390,142,39,1069,1079.0949911847426,9588,-4163,-7289,12743.226985344018
1735574390420,142,39,1069,1079.0949911847426,9543,-4232,-9004,13785.88731275575
1735574390450,129,97,974,987.2821278641683,9483,-4308,-10694,14928.087251888635
1735574390480,129,97,974,987.2821278641683,9417,-4397,-12383,16166.390660874184
1735574390509,129,97,974,987.2821278641683,9385,-4496,-14079,17507.440761002163
1735574390539,116,73,1111,1119.422172372872,9396,-4596,-15798,18946.895154615704
1735574390569,116,73,1111,1119.422172372872,9484,-4677,-17570,20506.718045557656
1735574390600,116,73,1111,1119.422172372872,9579,-4739,16649,19783.947103649465
1735574390630,116,73,1111,1119.422172372872,9675,-4783,14863,18368.21937477882
1735574390659,63,17,1070,1071.9878730657358,9854,-4790,12972,16979.935217779836
1735574390690,63,17,1070,1071.9878730657358,10027,-4753,11067,15671.956706167868
1735574390720,63,17,1070,1071.9878730657358,10153,-4682,9174,14462.600354016562
1735574390750,-17,40,937,938.007462656881,10199,-4601,7341,13382.043304368732
1735574390779,-17,40,937,938.007462656881,10219,-4510,5493,12447.534293987705
1735574390810,-17,40,937,938.007462656881,10207,-4415,3657,11706.781069106913
1735574390840,113,38,982,989.2102910908277,10190,-4318,1794,11211.58597166342
1735574390870,113,38,982,989.2102910908277,10094,-4245,16,10950.30214195024
1735574390900,113,38,982,989.2102910908277,9997,-4193,-1760,10982.661699242128
1735574390930,113,38,982,989.2102910908277,9905,-4162,-3535,11310.503702311406
1735574390960,63,46,853,856.5593966561805,9823,-4138,-5342,11922.723556302059
1735574390990,63,46,853,856.5593966561805,9759,-4128,-7167,12792.35529525349
1735574391020,63,46,853,856.5593966561805,9704,-4132,-8993,13860.558754970883
1735574391050,237,160,1040,1078.5958464596458,9621,-4169,-10725,14998.994199612185
1735574391109,237,160,1040,1078.5958464596458,9442,-4261,-12313,16090.912155623746
1735574391110,237,160,1040,1078.5958464596458,9314,-4383,-13906,17301.39072444756
1735574391140,15,90,888,892.6751928893286,9211,-4517,-15515,18600.027822559838
1735574391170,15,90,888,892.6751928893286,9352,-4611,-17424,20305.59038787102
1735574391200,15,90,888,892.6751928893286,9495,-4673,16656,19733.582796846596
1735574391230,15,90,888,892.6751928893286,9631,-4703,14731,18217.484211602874
1735574391260,-25,105,996,1001.8313231278008,9866,-4698,12701,16754.836943402344
1735574391290,-25,105,996,1001.8313231278008,10056,-4639,10666,15375.532933853057
1735574391320,-25,105,996,1001.8313231278008,10186,-4542,8651,14114.678919479536
1735574391350,-54,80,848,853.4752486159163,10199,-4429,6709,12986.389914060028
1735574391380,-54,80,848,853.4752486159163,10169,-4316,4791,12041.183413601837
1735574391410,-54,80,848,853.4752486159163,10112,-4212,2884,11327.442076656142
1735574391440,88,95,987,995.4586882437663,10049,-4126,989,10907.996974697051
1735574391470,88,95,987,995.4586882437663,9894,-4098,-736,10734.3623937335
1735574391500,88,95,987,995.4586882437663,9761,-4102,-2464,10870.824301772152
1735574391530,88,95,987,995.4586882437663,9654,-4132,-4196,11308.38432314714
1735574391560,-70,57,868,872.6814997466143,9648,-4145,-6100,12143.925600891995
1735574391590,-70,57,868,872.6814997466143,9689,-4143,-8064,13269.10946522034
1735574391620,-70,57,868,872.6814997466143,9721,-4132,-10026,14563.376703223741
1735574391650,60,166,935,951.5151076047085,9669,-4140,-11908,15888.03401934928
1735574391680,60,166,935,951.5151076047085,9513,-4198,-13682,17184.804246775697
1735574391710,60,166,935,951.5151076047085,9401,-4287,-15463,18597.35301057653
1735574391740,8,126,948,956.370221200974,9351,-4389,-17259,20114.114521897303
1735574391770,8,126,948,956.370221200974,9440,-4468,16859,19831.855813312075
1735574391800,8,126,948,956.370221200974,9535,-4525,14971,18317.27848235103
1735574391829,8,126,948,956.370221200974,9630,-4561,13077,16868.53728098557
1735574391860,11,148,794,807.7505803154833,9653,-4595,11209,15489.871368090828
1735574391890,11,148,794,807.7505803154833,9676,-4626,9337,14219.860090732258
1735574391920,11,148,794,807.7505803154833,9704,-4651,7463,13095.63996145282
1735574391950,-81,139,790,806.2146116264577,9867,-4634,5444,12184.776608539034
1735574391980,-81,139,790,806.2146116264577,10015,-4572,3399,11522.005467799432
1735574392010,-81,139,790,806.2146116264577,10109,-4480,1372,11142.022482475972
1735574392040,-15,93,865,870.1143602998401,10161,-4374,-635,11080.659817898932
1735574392070,-15,93,865,870.1143602998401,10176,-4279,-2553,11330.429206345187
1735574392100,-15,93,865,870.1143602998401,10158,-4182,-4460,11856.040148380065
1735574392129,-9,170,1049,1062.723858770471,10112,-4086,-6376,12633.341442389657
1735574392160,-9,170,1049,1062.723858770471,9975,-4005,-8314,13589.085546864439
1735574392190,-9,170,1049,1062.723858770471,9843,-3958,-10252,14753.098555896657
1735574392220,-9,170,1049,1062.723858770471,9723,-3943,-12190,16083.534375254712
1735574392250,-123,62,1021,1030.24948434833,9729,-3931,-14140,17608.117503015477
1735574392280,-123,62,1021,1030.24948434833,9778,-3900,-16128,19259.586392235946
1735574392309,-123,62,1021,1030.24948434833,9807,-3859,17888,20761.73581375122
1735574392339,-25,124,1099,1106.2558474421728,9800,-3815,15918,19078.179918430375
1735574392369,-25,124,1099,1106.2558474421728,9646,-3813,14069,17479.16033452408
1735574392400,-25,124,1099,1106.2558474421728,9521,-3845,12217,15958.964722061392
1735574392429,-23,71,953,955.9178835025527,9417,-3900,10358,14531.966590933245
1735574392460,-23,71,953,955.9178835025527,9365,-3962,8490,13246.915452285486
1735574392490,-23,71,953,955.9178835025527,9341,-4034,6616,12136.675533275165
1735574392520,-23,71,953,955.9178835025527,9342,-4108,4736,11250.703266907363
1735574392550,-77,109,924,933.5877034323021,9387,-4198,2818,10662.086897038496
1735574392580,-77,109,924,933.5877034323021,9452,-4273,871,10409.489612848462
1735574392610,-77,109,924,933.5877034323021,9528,-4330,-1083,10521.624066654349
1735574392640,-32,87,971,975.4147835664579,9588,-4368,-3020,10960.363497621784
1735574392670,-32,87,971,975.4147835664579,9631,-4395,-4923,11675.106637628625
1735574392700,-32,87,971,975.4147835664579,9674,-4413,-6828,12636.551309593928
1735574392730,-50,39,1039,1040.9332351308608,9742,-4414,-8766,13828.691767481116
1735574392759,-50,39,1039,1040.9332351308608,9895,-4370,-10787,15276.363899829043
1735574392789,-50,39,1039,1040.9332351308608,10001,-4293,-12794,16796.912990189598
1735574392820,-50,39,1039,1040.9332351308608,10061,-4195,-14787,18370.55020950652
1735574392850,93,113,1106,1115.640623139907,9928,-4153,-16578,19764.682567650816
1735574392880,93,113,1106,1115.640623139907,9763,-4159,17681,20621.135056053536
1735574392910,93,113,1106,1115.640623139907,9630,-4197,15937,19087.683934935638
1735574392939,83,101,1106,1113.6992412675875,9559,-4232,14128,17575.11561839637
1735574392970,83,101,1106,1113.6992412675875,9530,-4263,12280,16118.078948807764
1735574392999,83,101,1106,1113.6992412675875,9515,-4299,10429,14757.393638444426
1735574393030,22,174,838,856.156527744781,9489,-4337,8597,13518.842369078797
1735574393060,22,174,838,856.156527744781,9421,-4382,6735,12382.139960443024
1735574393090,22,174,838,856.156527744781,9379,-4440,4867,11461.541344862828
1735574393120,22,174,838,856.156527744781,9362,-4504,2991,10811.065673651234
1735574393149,32,107,924,930.7249862338499,9448,-4584,1104,10559.193908627685
1735574393180,32,107,924,930.7249862338499,9556,-4640,-787,10652.046986377783
1735574393210,32,107,924,930.7249862338499,9661,-4672,-2684,11061.932968518657
1735574393240,0,35,982,982.6235291300529,9802,-4678,-4570,11783.369127715554
1735574393270,0,35,982,982.6235291300529,9977,-4642,-6464,12762.131052453584
1735574393300,0,35,982,982.6235291300529,10105,-4571,-8345,13879.628633360477
1735574393330,91,55,1020,1025.527181502275,10172,-4474,-10204,15086.678759753586
1735574393360,91,55,1020,1025.527181502275,10090,-4394,-11930,16230.842122329945
1735574393389,91,55,1020,1025.527181502275,10004,-4330,-13652,17470.14653630587
1735574393420,91,55,1020,1025.527181502275,9918,-4284,-15373,18789.585120486296
1735574393449,153,131,994,1014.2021494751428,9784,-4291,-17084,20149.50106082034
1735574393479,153,131,994,1014.2021494751428,9644,-4334,17225,20211.158230047084
1735574393510,153,131,994,1014.2021494751428,9540,-4402,15529,18749.374522900758
1735574393540,132,163,1054,1074.6669251447167,9475,-4468,13802,17327.25751525613
1735574393570,132,163,1054,1074.6669251447167,9436,-4535,12043,15957.386064139702
1735574393600,132,163,1054,1074.6669251447167,9421,-4608,10276,14682.815840294395
1735574393630,85,129,1008,1019.7695818173829,9413,-4682,8506,13523.229237131196
1735574393660,85,129,1008,1019.7695818173829,9465,-4746,6679,12518.777176705398
1735574393690,85,129,1008,1019.7695818173829,9526,-4799,4844,11714.922662996969
1735574393720,85,129,1008,1019.7695818173829,9592,-4838,3004,11155.120976484299
1735574393750,34,187,864,884.6586912476472,9677,-4853,1102,10881.651620962693
1735574393780,34,187,864,884.6586912476472,9750,-4849,-820,10920.059569434592
1735574393809,34,187,864,884.6586912476472,9808,-4830,-2739,11270.664798493477
1735574393839,30,148,915,927.377485169874,9870,-4811,-4636,11918.687721389466
1735574393869,30,148,915,927.377485169874,9941,-4779,-6522,12814.008194160015
1735574393899,30,148,915,927.377485169874,9988,-4734,-8400,13882.755490175572
1735574393929,-23,179,835,854.2803989323412,9990,-4684,-10253,15062.00401673031
1735574393959,-23,179,835,854.2803989323412,9956,-4633,-12128,16360.77654025016
1735574393989,-23,179,835,854.2803989323412,9914,-4590,-13999,17757.46313525668
1735574394020,-23,179,835,854.2803989323412,9867,-4557,-15866,19231.585842046414
1735574394050,11,197,909,930.1671892729822,9910,-4502,-17853,20909.464675117822
1735574394080,11,197,909,930.1671892729822,9914,-4444,16181,19490.030605414657
1735574394110,11,197,909,930.1671892729822,9899,-4388,14224,17876.434795562564
1735574394140,-34,143,956,967.2336842769694,9879,-4352,12308,16371.359412095258
1735574394170,-34,143,956,967.2336842769694,9895,-4319,10387,14981.807467725648
1735574394200,-34,143,956,967.2336842769694,9897,-4283,8470,13712.607264849381
1735574394230,-22,169,1013,1027.2360974965784,9868,-4246,6564,12589.362017195312
1735574394260,-22,169,1013,1027.2360974965784,9768,-4222,4687,11627.8577992681
1735574394290,-22,169,1013,1027.2360974965784,9681,-4221,2809,10928.361405078072
1735574394320,-22,169,1013,1027.2360974965784,9610,-4238,928,10543.904779539695
1735574394350,-36,97,973,978.485564533274,9643,-4256,-1005,10588.248674828146
1735574394380,-36,97,973,978.485564533274,9695,-4260,-2945,10991.526281640781
1735574394410,-36,97,973,978.485564533274,9738,-4252,-4884,11694.511704214076
1735574394439,-32,119,875,883.634539840991,9733,-4250,-6760,12589.33632087093
1735574394469,-32,119,875,883.634539840991,9703,-4261,-8603,13649.759668213943
1735574394500,-32,119,875,883.634539840991,9682,-4277,-10448,14872.610967815974
1735574394530,14,66,776,778.9274677400971,9675,-4296,-12320,16243.264481008737
1735574394559,14,66,776,778.9274677400971,9693,-4315,-14190,17718.057850678782
1735574394590,14,66,776,778.9274677400971,9714,-4330,-16061,19263.084306517478
1735574394620,14,66,776,778.9274677400971,9734,-4340,-17933,20860.940654726
1735574394650,52,14,1093,1094.3258198543979,9892,-4330,16121,19403.27820240693
1735574394680,52,14,1093,1094.3258198543979,10020,-4286,14198,17898.418924586607
1735574394710,52,14,1093,1094.3258198543979,10108,-4216,12285,16458.05410733602
1735574394740,9,59,952,953.8689637471176,10057,-4135,10459,15087.48338855755
1735574394770,9,59,952,953.8689637471176,9944,-4074,8651,13795.666457261135
1735574394800,9,59,952,953.8689637471176,9837,-4037,6844,12645.326172147557
1735574394830,195,104,913,939.3668080148457,9743,-4027,5033,11682.203002858665
1735574394860,195,104,913,939.3668080148457,9510,-4087,3421,10901.69298778864
1735574394890,195,104,913,939.3668080148457,9332,-4190,1804,10387.335558265171
1735574394920,195,104,913,939.3668080148457,9207,-4324,182,10173.443320724798
1735574394950,120,35,1099,1106.0858917823696,9318,-4465,-1582,10452.945661391339
1735574394980,120,35,1099,1106.0858917823696,9484,-4571,-3391,11060.704227127675
1735574395010,120,35,1099,1106.0858917823696,9650,-4641,-5210,11908.210654838114
1735574395040,143,59,977,989.1708649166735,9697,-4690,-6952,12820.22671406399
1735574395070,143,59,977,989.1708649166735,9680,-4745,-8642,13816.714117329055
1735574395100,143,59,977,989.1708649166735,9681,-4802,-10338,14955.106452312535
1735574395130,177,4,924,940.8086946877139,9729,-4857,-12080,16253.316276994059
1735574395160,177,4,924,940.8086946877139,9859,-4895,-13864,17702.299342175862
1735574395190,177,4,924,940.8086946877139,9975,-4909,-15649,19196.096139580048
1735574395220,177,4,924,940.8086946877139,10074,-4902,-17433,20722.561834869743
1735574395250,119,24,1097,1103.6965162579793,10238,-4859,16722,20200.292299865367
1735574395310,119,24,1097,1103.6965162579793,10365,-4780,14869,18744.833581549876
1735574395311,119,24,1097,1103.6965162579793,10442,-4677,13032,17341.935214963756
1735574395340,100,73,1013,1020.5380933605566,10362,-4570,11282,15985.601896706923
1735574395370,100,73,1013,1020.5380933605566,10208,-4489,9561,14689.013105038744
1735574395400,100,73,1013,1020.5380933605566,10064,-4437,7840,13506.911749174938
1735574395430,86,59,1017,1022.333605042894,9947,-4406,6096,12470.639959520922
1735574395460,86,59,1017,1022.333605042894,9886,-4376,4290,11631.271297669915
1735574395490,86,59,1017,1022.333605042894,9829,-4359,2486,11035.865077102022
1735574395520,86,59,1017,1022.333605042894,9779,-4354,682,10726.196017228101
1735574395550,87,93,1047,1054.7165495999386,9716,-4389,-1025,10710.49027822723
1735574395609,87,93,1047,1054.7165495999386,9665,-4437,-2737,10981.36435057138
1735574395610,87,93,1047,1054.7165495999386,9635,-4493,-4453,11526.035007755268
1735574395640,7,70,1038,1040.3811801450468,9665,-4539,-6280,12387.62067549697
1735574395670,7,70,1038,1040.3811801450468,9758,-4556,-8209,13541.17354589328
1735574395700,7,70,1038,1040.3811801450468,9838,-4553,-10137,14841.65833052358
1735574395730,-43,156,1016,1028.8056181806162,9916,-4533,-12059,16257.140769520329
1735574395760,-43,156,1016,1028.8056181806162,9968,-4492,-14028,17785.496113406563
1735574395790,-43,156,1016,1028.8056181806162,9997,-4441,-15990,19373.76034743901
1735574395820,-118,83,824,836.5339204120775,9988,-4384,-17926,20983.828916572875
1735574395850,-118,83,824,836.5339204120775,10044,-4300,16097,19454.69981778182
1735574395880,-118,83,824,836.5339204120775,10062,-4206,14133,17851.49766826302
1735574395910,-118,83,824,836.5339204120775,10047,-4111,12180,16315.481298447803
1735574395940,20,138,1025,1034.4413951500587,9990,-4051,10263,14884.215464712945
1735574395970,20,138,1025,1034.4413951500587,9888,-4024,8399,13583.38400399547
1735574396000,20,138,1025,1034.4413951500587,9798,-4020,6533,12443.524139085357
1735574396030,-123,48,984,992.8187145697849,9721,-4025,4650,11503.085064451188
1735574396060,-123,48,984,992.8187145697849,9814,-3981,2581,10900.665942959631
1735574396090,-123,48,984,992.8187145697849,9873,-3917,522,10634.448833860644
1735574396120,5,22,1089,1089.233675571959,9888,-3852,-1493,10716.319190841601
1735574396150,5,22,1089,1089.233675571959,9809,-3837,-3296,11036.424511588886
1735574396180,5,22,1089,1089.233675571959,9740,-3839,-5100,11645.40772150121
1735574396210,5,22,1089,1089.233675571959,9685,-3856,-6906,12504.43109461602
1735574396240,57,79,971,975.8744796335234,9597,-3894,-8709,13531.900310008199
1735574396270,57,79,971,975.8744796335234,9512,-3956,-10497,14707.654095742122
1735574396300,57,79,971,975.8744796335234,9459,-4035,-12290,16024.91828372301
1735574396329,64,0,966,968.1177614319448,9465,-4117,-14056,17438.665373244592
1735574396360,64,0,966,968.1177614319448,9532,-4184,-15806,18926.02747541068
1735574396390,64,0,966,968.1177614319448,9604,-4236,-17561,20458.964612120526
1735574396420,53,50,958,960.7668811943926,9689,-4272,16657,19737.840662037983
1735574396450,53,50,958,960.7668811943926,9761,-4289,14812,18250.15030075095
1735574396480,53,50,958,960.7668811943926,9823,-4290,12967,16823.74863102751
1735574396510,53,50,958,960.7668811943926,9874,-4278,11124,15477.097143844514
1735574396540,16,-6,923,923.1581662965453,9907,-4266,9273,14224.483611013793
1735574396570,16,-6,923,923.1581662965453,9952,-4240,7412,13113.262294333932
1735574396600,16,-6,923,923.1581662965453,9981,-4204,5555,12171.770701093576
1735574396630,82,55,1184,1188.1098434067449,9971,-4167,3753,11439.831248755376
1735574396660,82,55,1184,1188.1098434067449,9898,-4148,2014,10919.363717726414
1735574396690,82,55,1184,1188.1098434067449,9835,-4145,275,10676.323103016319
1735574396720,-44,26,892,893.4629259236222,9767,-4148,-1472,10712.935032006868
1735574396750,-44,26,892,893.4629259236222,9792,-4123,-3378,11148.689474552602
1735574396780,-44,26,892,893.4629259236222,9804,-4094,-5282,11865.023219530589
1735574396810,-44,26,892,893.4629259236222,9806,-4063,-7182,12815.87800347678
1735574396840,127,87,1059,1070.1303658900629,9726,-4081,-8995,13862.16656947968
1735574396870,127,87,1059,1070.1303658900629,9617,-4135,-10749,15004.196579623982
1735574396899,127,87,1059,1070.1303658900629,9541,-4209,-12509,16285.620743465692
1735574396929,12,62,985,987.0222895152875,9495,-4275,-14274,17668.551893123557
1735574396959,12,62,985,987.0222895152875,9522,-4323,-16112,19208.158605134435
1735574396989,12,62,985,987.0222895152875,9557,-4364,-17954,20802.08790001619
1735574397020,121,86,1098,1107.9896208900154,9624,-4399,16168,19322.96046158559
1735574397050,121,86,1098,1107.9896208900154,9635,-4445,14352,17848.561678745995
1735574397080,121,86,1098,1107.9896208900154,9657,-4488,12531,16444.626903642416
1735574397110,121,86,1098,1107.9896208900154,9687,-4524,10706,15130.200957026314
1735574397140,67,79,984,989.4372137735674,9760,-4526,8787,13890.77553630466
1735574397170,67,79,984,989.4372137735674,9832,-4507,6849,12801.955866194821
1735574397200,67,79,984,989.4372137735674,9884,-4473,4917,11911.258287855235
1735574397230,84,103,1068,1076.238356499154,9900,-4447,3048,11272.80413206936
1735574397260,84,103,1068,1076.238356499154,9885,-4432,1221,10901.682897608056
1735574397290,84,103,1068,1076.238356499154,9868,-4420,-603,10829.470578010727
1735574397320,-33,62,875,877.8143311657653,9814,-4415,-2395,11024.647205239722
1735574397350,-33,62,875,877.8143311657653,9823,-4401,-4256,11574.6993913449
1735574397380,-33,62,875,877.8143311657653,9825,-4385,-6116,12375.956771094508
1735574397410,-33,62,875,877.8143311657653,9823,-4370,-7974,13385.548363813863
1735574397440,-34,132,1017,1026.094050270247,9874,-4352,-9921,14658.172498643888
1735574397470,-34,132,1017,1026.094050270247,9892,-4329,-11865,16042.759425984048
1735574397500,-34,132,1017,1026.094050270247,9900,-4302,-13806,17524.920541902608
1735574397530,-83,46,937,941.7929708805434,9895,-4261,-15732,19067.327290420122
1735574397560,-83,46,937,941.7929708805434,9923,-4202,-17675,20700.92650100473
1735574397590,-83,46,937,941.7929708805434,9928,-4138,16389,19603.253530983064
1735574397620,9,69,1024,1026.3615347429968,9931,-4089,14462,18013.720493001994
1735574397650,9,69,1024,1026.3615347429968,9879,-4091,12640,16555.981456863257
1735574397680,9,69,1024,1026.3615347429968,9838,-4104,10817,15186.722786697595
1735574397710,9,69,1024,1026.3615347429968,9808,-4125,8992,13930.848969104503
1735574397740,-99,83,925,933.9780511339653,9806,-4092,7015,12732.333839481276
1735574397770,-99,83,925,933.9780511339653,9812,-4050,5001,11734.046403521677
1735574397800,-99,83,925,933.9780511339653,9803,-4008,2993,11005.495082003354
1735574397830,-53,86,932,937.4587990946588,9779,-3991,1053,10614.411476855417
1735574397860,-53,86,932,937.4587990946588,9738,-3996,-827,10558.436863475577
1735574397890,-53,86,932,937.4587990946588,9707,-4009,-2709,10846.04125937201
1735574397920,-2,125,891,899.7277365959104,9681,-4029,-4578,11441.708176666629
1735574397950,-2,125,891,899.7277365959104,9595,-4067,-6364,12210.856235334195
1735574397980,-2,125,891,899.7277365959104,9535,-4123,-8155,13206.792911225646
1735574398010,-2,125,891,899.7277365959104,9501,-4190,-9950,14381.502042554526
1735574398040,64,76,950,955.1816581153556,9561,-4249,-11815,15781.664899496503
1735574398070,64,76,950,955.1816581153556,9624,-4297,-13659,17252.648086598183
1735574398100,64,76,950,955.1816581153556,9689,-4330,-15506,18789.934991904574
1735574398130,-33,36,974,975.2235641123526,9747,-4342,-17367,20383.07292829028
1735574398160,-33,36,974,975.2235641123526,9843,-4324,16709,19868.877824376494
1735574398190,-33,36,974,975.2235641123526,9914,-4285,14792,18315.345615084636
1735574398220,70,25,958,960.8792848219801,9964,-4242,12881,16828.428952222486
1735574398250,70,25,958,960.8792848219801,9941,-4233,11088,15481.780065612611
1735574398280,70,25,958,960.8792848219801,9921,-4229,9296,14238.198551783158
1735574398310,70,25,958,960.8792848219801,9903,-4230,7502,13124.111893762563
1735574398340,113,47,1009,1016.3951003423816,9841,-4212,5706,12130.319905097309
1735574398370,113,47,1009,1016.3951003423816,9771,-4212,3925,11341.032139977384
1735574398400,113,47,1009,1016.3951003423816,9715,-4227,2142,10809.112729544457
1735574398430,83,70,1042,1047.6416372023402,9654,-4260,394,10559.476880982314
1735574398460,83,70,1042,1047.6416372023402,9606,-4306,-1354,10613.679286656443
1735574398490,83,70,1042,1047.6416372023402,9578,-4361,-3108,10973.425581831774
1735574398520,111,32,1122,1127.931292233707,9576,-4421,-4875,11619.407988361541
1735574398550,111,32,1122,1127.931292233707,9612,-4481,-6627,12505.48015871442
1735574398580,111,32,1122,1127.931292233707,9657,-4533,-8385,13568.860047918542
1735574398610,111,32,1122,1127.931292233707,9709,-4575,-10148,14770.822929004327
1735574398640,73,67,966,971.0684836817638,9777,-4593,-11984,16133.866058697773
1735574398670,73,67,966,971.0684836817638,9838,-4596,-13835,17587.401314577433
1735574398700,73,67,966,971.0684836817638,9889,-4586,-15685,19100.862336554335
1735574398730,142,39,1049,1059.2856083228924,9921,-4577,-17503,20633.229970123437
1735574398760,142,39,1049,1059.2856083228924,9929,-4573,16736,19989.774035741375
1735574398790,142,39,1049,1059.2856083228924,9934,-4569,14976,18542.941864763532
1735574398820,16,120,851,859.5679147106412,9919,-4566,13229,17153.464897798345
1735574398850,16,120,851,859.5679147106412,9910,-4554,11357,15745.744345695442
1735574398910,16,120,851,859.5679147106412,9899,-4544,9486,14443.764502372642
1735574398911,16,120,851,859.5679147106412,9887,-4537,7616,13279.329576450764
1735574398940,12,124,1016,1023.6093004657588,9964,-4513,5666,12318.767024341356
1735574398970,12,124,1016,1023.6093004657588,10017,-4474,3721,11584.593475819513
1735574399000,12,124,1016,1023.6093004657588,10048,-4424,1784,11122.802524543893
1735574399030,-46,34,758,760.155247301497,10049,-4362,-133,10955.689572089928
1735574399060,-46,34,758,760.155247301497,10080,-4282,-2070,11145.708770643525
1735574399090,-46,34,758,760.155247301497,10080,-4197,-3996,11627.090134681162
1735574399120,-37,156,912,925.9854210515412,10074,-4120,-5924,12391.676722703833
1735574399180,-37,156,912,925.9854210515412,9979,-4074,-7859,13339.48267362719
1735574399181,-37,156,912,925.9854210515412,9890,-4050,-9792,14494.752981682717
1735574399210,-37,156,912,925.9854210515412,9812,-4047,-11727,15816.955522476504
1735574399240,-25,77,957,960.4181381044405,9720,-4040,-13591,17190.557902523116
1735574399270,-25,77,957,960.4181381044405,9662,-4050,-15452,18668.718434857816
1735574399300,-25,77,957,960.4181381044405,9618,-4071,-17315,20220.983902866843
1735574399330,5,55,1061,1062.4363510347337,9631,-4110,16804,19799.56254567257
1735574399360,5,55,1061,1062.4363510347337,9672,-4148,14933,18268.770538818422
1735574399390,5,55,1061,1062.4363510347337,9717,-4176,13058,16803.88136711278
1735574399420,-26,59,944,946.1992390612032,9749,-4190,11176,15411.10239405345
1735574399450,-26,59,944,946.1992390612032,9776,-4186,9246,14091.887311499479
1735574399480,-26,59,944,946.1992390612032,9797,-4176,7316,12920.682683202154
1735574399510,-26,59,944,946.1992390612032,9810,-4161,5389,11941.16166878248
1735574399540,62,42,1041,1043.6900881008692,9820,-4165,3550,11241.980474987493
1735574399570,62,42,1041,1043.6900881008692,9815,-4174,1743,10807.152724006448
1735574399600,62,42,1041,1043.6900881008692,9813,-4184,-63,10667.932976917318
1735574399630,36,90,1131,1135.146246084618,9817,-4188,-1905,10841.672287982145
1735574399659,36,90,1131,1135.146246084618,9807,-4192,-3767,11311.074307951478
1735574399689,36,90,1131,1135.146246084618,9801,-4197,-5629,12056.535613516844
1735574399720,9,61,1000,1001.8991965262773,9785,-4204,-7494,13022.28386267171
1735574399750,9,61,1000,1001.8991965262773,9795,-4209,-9392,14208.003730292303
1735574399780,9,61,1000,1001.8991965262773,9804,-4211,-11290,15534.31804103418
1735574399810,60,29,959,961.3126442526385,9796,-4207,-13170,16944.301844573
1735574399840,60,29,959,961.3126442526385,9749,-4207,-14960,18345.12060467306
1735574399870,60,29,959,961.3126442526385,9711,-4216,-16751,19816.008124746015
1735574399900,60,29,959,961.3126442526385,9683,-4233,17456,20405.65397138744
1735574399930,108,68,1057,1064.6769463081278,9624,-4279,15710,18913.89216951392
1735574399960,108,68,1057,1064.6769463081278,9569,-4343,13978,17487.47820584775
1735574399990,108,68,1057,1064.6769463081278,9540,-4415,12240,16134.479384225573
1735574400020,158,74,1103,1116.713481605734,9552,-4485,10460,14858.247844210971
1735574400050,158,74,1103,1116.713481605734,9567,-4545,8662,13682.644408154441
1735574400080,158,74,1103,1116.713481605734,9596,-4601,6859,12660.896413761548
1735574400110,14,55,1025,1026.5700170957655,9623,-4647,5071,11828.43096103621
1735574400139,14,55,1025,1026.5700170957655,9765,-4648,3147,11263.336006707781
1735574400169,14,55,1025,1026.5700170957655,9880,-4621,1229,10976.269038247923
1735574400200,14,55,1025,1026.5700170957655,9964,-4571,-680,10983.521156714727
1735574400230,32,108,1040,1046.0822147422257,10012,-4527,-2570,11284.448280709164
1735574400260,32,108,1040,1046.0822147422257,10021,-4478,-4446,11842.29036124347
1735574400290,32,108,1040,1046.0822147422257,10014,-4429,-6316,12640.73150573178
1735574400320,56,93,934,940.2877219234547,9960,-4385,-8190,13620.055983732225
1735574400350,56,93,934,940.2877219234547,9886,-4359,-10053,14757.936373355185
1735574400380,56,93,934,940.2877219234547,9819,-4348,-11917,16041.594496807355
1735574400410,181,95,1111,1129.6490605493373,9750,-4358,-13748,17408.680823083636
1735574400440,181,95,1111,1129.6490605493373,9581,-4420,-15372,18644.847679721064
1735574400470,181,95,1111,1129.6490605493373,9456,-4512,-17001,19970.17979388268
1735574400500,181,95,1111,1129.6490605493373,9374,-4625,17362,20265.772746184637
1735574400530,11,89,953,957.2100083053875,9465,-4712,15516,18775.926741442086
1735574400560,11,89,953,957.2100083053875,9612,-4763,13591,17314.502418493
1735574400590,11,89,953,957.2100083053875,9747,-4783,11663,15934.449064840617
1735574400620,-12,116,1099,1105.1701226508071,9888,-4757,9660,14619.069498432518
1735574400650,-12,116,1099,1105.1701226508071,9999,-4690,7616,13415.645977738082
1735574400680,-12,116,1099,1105.1701226508071,10064,-4602,5590,12398.007904498207
1735574400710,-25,101,984,989.485725010725,10058,-4514,3624,11604.866910051145
1735574400740,-25,101,984,989.485725010725,10002,-4455,1738,11086.373302392447
1735574400770,-25,101,984,989.485725010725,9939,-4409,-143,10873.980457955588
1735574400800,-25,101,984,989.485725010725,9876,-4376,-2023,10989.871746294404
1735574400830,58,200,893,916.9585595870732,9759,-4385,-3895,11385.839055598844
1735574400860,58,200,893,916.9585595870732,9624,-4433,-5740,12050.745412629047
1735574400890,58,200,893,916.9585595870732,9528,-4506,-7593,12990.014203225492
1735574400920,39,107,1115,1120.8010528189202,9484,-4580,-9448,14148.758249401253
1735574400950,39,107,1115,1120.8010528189202,9517,-4642,-11318,15498.986321692139
1735574400980,39,107,1115,1120.8010528189202,9563,-4696,-13196,16959.88800080944
1735574401010,-83,159,946,962.8530521320479,9627,-4746,-15089,18517.061483939615
1735574401040,-83,159,946,962.8530521320479,9775,-4773,-17160,20317.424886043016
1735574401070,-83,159,946,962.8530521320479,9903,-4767,16770,20050.600938625255
1735574401100,-83,159,946,962.8530521320479,10002,-4735,14707,18405.327435283514
1735574401130,-87,126,1000,1011.6545853205035,10103,-4641,12584,16791.859515848744
1735574401160,-87,126,1000,1011.6545853205035,10157,-4525,10482,15281.119003528505
1735574401190,-87,126,1000,1011.6545853205035,10159,-4401,8401,13897.87332652014
1735574401220,-70,130,955,966.3462112514334,10089,-4308,6427,12714.287789726957
1735574401280,-70,130,955,966.3462112514334,9986,-4252,4513,11754.440395016685
1735574401280,-70,130,955,966.3462112514334,9887,-4218,2600,11059.12713553832
1735574401310,-37,145,1084,1094.2805855903687,9833,-4207,644,10714.544974006129
1735574401340,-37,145,1084,1094.2805855903687,9814,-4208,-1360,10764.360640558267
1735574401370,-37,145,1084,1094.2805855903687,9799,-4213,-3366,11184.798880623648
1735574401400,-37,145,1084,1094.2805855903687,9789,-4222,-5374,11938.579521869426
1735574401430,4,80,895,898.5772087027358,9687,-4232,-7176,12776.649365150473
1735574401460,4,80,895,898.5772087027358,9615,-4261,-8966,13820.03986969647
1735574401490,4,80,895,898.5772087027358,9563,-4304,-10760,15025.078535568458
1735574401520,-61,42,993,995.7580027295788,9615,-4367,-12611,16448.593708885874
1735574401550,-61,42,993,995.7580027295788,9751,-4407,-14532,18046.68041496829
1735574401580,-61,42,993,995.7580027295788,9872,-4417,-16455,19690.94456850661
1735574401610,61,75,1028,1032.5357136680552,9974,-4390,17600,20700.550137617116
1735574401640,61,75,1028,1032.5357136680552,9934,-4358,15750,19124.304431795685
1735574401670,61,75,1028,1032.5357136680552,9892,-4334,13902,17604.000227221084
1735574401700,61,75,1028,1032.5357136680552,9851,-4319,12055,16156.082043614411
1735574401730,10,89,967,971.1385071142015,9798,-4341,10261,14836.886668031133
1735574401760,10,89,967,971.1385071142015,9767,-4368,8444,13629.924761347731
1735574401790,10,89,967,971.1385071142015,9751,-4401,6625,12583.378997709637
1735574401820,85,69,1077,1082.5502297815099,9801,-4423,4709,11738.705678225348
1735574401850,85,69,1077,1082.5502297815099,9853,-4433,2789,11158.47744990328
1735574401880,85,69,1077,1082.5502297815099,9898,-4431,870,10879.3871610491
1735574401911,113,148,1076,1091.9931318465333,9894,-4423,-983,10882.11624639252
1735574401940,113,148,1076,1091.9931318465333,9732,-4445,-2682,11030.093970587921
1735574401970,113,148,1076,1091.9931318465333,9604,-4496,-4386,11475.531708814193
1735574402000,113,148,1076,1091.9931318465333,9513,-4571,-6096,12188.208481971416
1735574402030,-20,48,946,947.4280975356388,9669,-4633,-8059,13412.74509561708
1735574402060,-20,48,946,947.4280975356388,9871,-4641,-10079,14851.321927693843
1735574402090,-20,48,946,947.4280975356388,10035,-4605,-12092,16374.483625446024
1735574402120,121,110,997,1010.3217309352501,10057,-4562,-13972,17809.31994771277
1735574402150,121,110,997,1010.3217309352501,9944,-4559,-15706,19140.16857292537
1735574402180,121,110,997,1010.3217309352501,9852,-4577,-17442,20548.338059317597
1735574402210,75,28,1085,1087.949447354977,9809,-4610,16787,19981.790460316613
1735574402240,75,28,1085,1087.949447354977,9936,-4622,14897,18493.447190829513
1735574402270,75,28,1085,1087.949447354977,10042,-4607,13010,17068.283832887242
1735574402300,75,28,1085,1087.949447354977,10122,-4572,11129,15722.999363989047
1735574402330,27,48,1020,1021.4856827190482,10162,-4506,9213,14437.785460381381
1735574402360,27,48,1020,1021.4856827190482,10179,-4429,7289,13279.969992435977
1735574402390,27,48,1020,1021.4856827190482,10169,-4349,5375,12296.86899173932
1735574402420,70,53,1012,1015.8016538675255,10104,-4303,3559,11544.39716918991
1735574402450,70,53,1012,1015.8016538675255,10009,-4293,1815,11041.021465426104
1735574402480,70,53,1012,1015.8016538675255,9930,-4301,68,10821.650752080295
1735574402510,62,49,975,978.1973216074556,9888,-4317,-1709,10923.814077509742
1735574402540,62,49,975,978.1973216074556,9900,-4318,-3557,11371.339982605392
1735574402570,62,49,975,978.1973216074556,9910,-4316,-5405,12085.114025113706
1735574402599,62,49,975,978.1973216074556,9917,-4312,-7252,13020.43536138481
1735574402630,175,105,1101,1119.754883892006,9782,-4348,-8953,13955.244068091393
1735574402660,175,105,1101,1119.754883892006,9641,-4422,-10616,15006.74584978369
1735574402689,175,105,1101,1119.754883892006,9543,-4522,-12285,16199.955493766025
1735574402720,53,5,876,877.6160891870659,9585,-4623,-14071,17641.92152232857
1735574402750,53,5,876,877.6160891870659,9780,-4678,-15995,19322.83905123675
1735574402779,53,5,876,877.6160891870659,9954,-4692,-17922,21030.81225250228
1735574402810,9,81,985,988.365822962328,10087,-4678,16186,19637.154809187607
1735574402840,9,81,985,988.365822962328,10144,-4652,14312,18148.696482116837
1735574402870,9,81,985,988.365822962328,10182,-4615,12444,16727.955194822825
1735574402900,9,81,985,988.365822962328,10201,-4571,10582,15392.633497878132
1735574402930,56,-4,1005,1006.566937664853,10242,-4518,8730,14195.90743841337
1735574402960,56,-4,1005,1006.566937664853,10270,-4458,6904,13153.398040050335
1735574402990,56,-4,1005,1006.566937664853,10276,-4393,5085,12278.10449540156
1735574403020,62,118,977,986.0512157083931,10166,-4329,3310,11534.465613976228
1735574403051,62,118,977,986.0512157083931,9968,-4304,1556,10968.435439933992
1735574403080,62,118,977,986.0512157083931,9802,-4318,-201,10712.83011159983
1735574403110,81,71,1008,1013.7386250903139,9711,-4365,-1994,10832.025756985626
1735574403140,81,71,1008,1013.7386250903139,9750,-4420,-3833,11370.610757562674
1735574403170,81,71,1008,1013.7386250903139,9798,-4466,-5677,12172.686186705052
1735574403199,81,71,1008,1013.7386250903139,9850,-4500,-7525,13187.043830972883
1735574403229,115,107,1038,1049.818079478535,9796,-4540,-9308,14255.247454884815
1735574403260,115,107,1038,1049.818079478535,9747,-4594,-11084,15458.457264552631
1735574403289,115,107,1038,1049.818079478535,9721,-4657,-12865,16783.733643024723
1735574403320,-11,-8,1144,1144.0808537861299,9849,-4705,-14754,18352.665800912957
1735574403349,-11,-8,1144,1144.0808537861299,10118,-4682,-16767,20135.22627138816
1735574403379,-11,-8,1144,1144.0808537861299,10323,-4602,17235,20610.384712566625
1735574403410,123,77,994,1004.5367091351117,10424,-4477,15269,19022.241350587476
1735574403439,123,77,994,1004.5367091351117,10246,-4389,13486,17496.171952744407
1735574403469,123,77,994,1004.5367091351117,10078,-4337,11703,16041.691369677948
1735574403499,43,17,936,937.1413980824879,9932,-4327,9927,14693.974343246962
1735574403529,43,17,936,937.1413980824879,9919,-4333,8074,13503.73748263791
1735574403560,43,17,936,937.1413980824879,9911,-4342,6220,12480.756587643235
1735574403590,43,17,936,937.1413980824879,9907,-4353,4365,11668.353911327853
1735574403620,71,61,904,908.8333180512255,9871,-4368,2582,11098.774211596523
1735574403650,71,61,904,908.8333180512255,9830,-4395,806,10797.896137674228
1735574403680,71,61,904,908.8333180512255,9804,-4430,-973,10802.316649682141
1735574403710,72,95,984,991.1937247581827,9818,-4468,-2781,11139.574004422251
1735574403740,72,95,984,991.1937247581827,9859,-4499,-4643,11789.75534097294
1735574403770,72,95,984,991.1937247581827,9902,-4522,-6507,12682.237066070007
1735574403799,-7,32,950,950.5645690851306,9938,-4531,-8373,13762.301188391424
1735574403830,-7,32,950,950.5645690851306,10065,-4496,-10332,15108.556019686328
1735574403860,-7,32,950,950.5645690851306,10155,-4434,-12281,16541.080436295568
1735574403889,-7,32,950,950.5645690851306,10208,-4355,-14218,18036.651934325284
1735574403920,38,25,929,930.1128963733381,10195,-4282,-16083,19517.59303807721
1735574403950,38,25,929,930.1128963733381,10157,-4217,-17925,21029.820802850412
1735574403980,38,25,929,930.1128963733381,10108,-4161,16237,19573.598391711217
1735574404010,53,57,1104,1106.7402585972916,10042,-4131,14409,18042.34480326767
1735574404040,53,57,1104,1106.7402585972916,9941,-4130,12600,16572.277483798054
1735574404070,53,57,1104,1106.7402585972916,9859,-4150,10789,15192.92276028546
