Timestamp,Acc_X,Acc_Y,Acc_Z,Acc_Betrag,Ori_X,Ori_Y,Ori_Z,Ori_Betrag
1735579291778,131,-91,980,992.8957649219781,9943,-4072,4814,11773.658267505474
1735579291778,131,-91,980,992.8957649219781,9920,-4048,3098,11153.040302984653
1735579291778,131,-91,980,992.8957649219781,9895,-4029,1383,10772.954794298545
1735579291807,206,-102,998,1024.1308510146544,9846,-4021,-295,10639.510421067314
1735579291837,206,-102,998,1024.1308510146544,9773,-4035,-1914,10745.052349802676
1735579291866,206,-102,998,1024.1308510146544,9717,-4064,-3535,11110.01395138638
1735579291897,153,-120,953,972.6345665253729,9682,-4101,-5164,11714.359606909804
1735579291927,153,-120,953,972.6345665253729,9718,-4127,-6866,12594.189493572027
1735579291957,153,-120,953,972.6345665253729,9755,-4145,-8568,13629.074583404406
1735579291987,153,-120,953,972.6345665253729,9789,-4155,-10271,14784.518490637427
1735579292017,92,-102,954,963.8381606888161,9845,-4153,-12021,16083.403713144802
1735579292047,92,-102,954,963.8381606888161,9898,-4135,-13791,17471.700260707312
1735579292078,92,-102,954,963.8381606888161,9936,-4106,-15559,18912.054700640012
1735579292108,138,-84,1000,1012.9659421717988,9940,-4075,-17304,20367.563452705872
1735579292138,138,-84,1000,1012.9659421717988,9907,-4054,16987,20078.389726270383
1735579292167,138,-84,1000,1012.9659421717988,9874,-4041,15279,18635.27295211959
1735579292197,203,-115,981,1008.3625340124454,9840,-4035,13575,17244.925340516846
1735579292227,203,-115,981,1008.3625340124454,9785,-4049,11950,15966.9385293487
1735579292257,203,-115,981,1008.3625340124454,9743,-4073,10324,14768.221084477304
1735579292287,203,-115,981,1008.3625340124454,9715,-4105,8695,13668.770061713672
1735579292317,134,-126,951,968.6242821651747,9749,-4125,6995,12688.13031931813
1735579292347,134,-126,951,968.6242821651747,9800,-4130,5268,11867.97050889494
1735579292377,134,-126,951,968.6242821651747,9842,-4125,3541,11243.632420174541
1735579292407,105,-97,954,964.6501956668023,9877,-4115,1812,10852.266952116503
1735579292437,105,-97,954,964.6501956668023,9901,-4097,63,10715.371155494335
1735579292467,105,-97,954,964.6501956668023,9915,-4074,-1684,10850.832087909203
1735579292498,155,-83,1003,1018.2941618216222,9918,-4049,-3428,11247.769067686268
1735579292527,155,-83,1003,1018.2941618216222,9868,-4039,-5114,11825.563030993493
1735579292557,155,-83,1003,1018.2941618216222,9825,-4039,-6801,12613.395538077762
1735579292587,214,-118,980,1010.00990094157,9786,-4047,-8486,13570.416390074402
1735579292616,214,-118,980,1010.00990094157,9738,-4072,-10101,14609.586886698748
1735579292648,214,-118,980,1010.00990094157,9705,-4105,-11718,15759.110825170308
1735579292678,214,-118,980,1010.00990094157,9685,-4145,-13338,16996.54358980084
1735579292707,145,-111,942,959.5363463673484,9718,-4173,-15026,18374.823237245033
1735579292737,145,-111,942,959.5363463673484,9765,-4189,-16742,19829.20850664494
1735579292768,145,-111,942,959.5363463673484,9808,-4195,17541,20530.016317577538
1735579292797,96,-107,959,969.7143909419927,9846,-4194,15827,19105.687137603818
1735579292827,96,-107,959,969.7143909419927,9911,-4176,14059,17700.91460913814
1735579292857,96,-107,959,969.7143909419927,9959,-4146,12295,16356.589558951462
1735579292887,161,-92,995,1012.1314143924197,9987,-4106,10536,15086.639818064194
1735579292918,161,-92,995,1012.1314143924197,9940,-4082,8855,13923.984666753982
1735579292947,161,-92,995,1012.1314143924197,9896,-4067,7175,12882.233113866556
1735579292978,161,-92,995,1012.1314143924197,9857,-4061,5494,11993.173308178282
1735579293009,206,-114,980,1007.8849140650931,9807,-4067,3853,11294.394494615459
1735579293038,206,-114,980,1007.8849140650931,9765,-4086,2227,10817.123000132706
1735579293068,206,-114,980,1007.8849140650931,9734,-4113,599,10584.248957767386
1735579293098,134,-118,953,969.5818686423545,9741,-4137,-1066,10636.644489687525
1735579293128,134,-118,953,969.5818686423545,9789,-4145,-2793,10991.196249726414
1735579293157,134,-118,953,969.5818686423545,9830,-4144,-4518,11585.07488107004
1735579293187,96,-102,956,966.2070171552264,9864,-4136,-6242,12384.165535069369
1735579293217,96,-102,956,966.2070171552264,9905,-4117,-8003,13383.075991714311
1735579293247,96,-102,956,966.2070171552264,9933,-4089,-9762,14514.856320336072
1735579293278,96,-102,956,966.2070171552264,9949,-4057,-11518,15751.386415169936
1735579293307,156,-93,1002,1018.3265684445241,9915,-4032,-13223,17012.112684790212
1735579293338,156,-93,1002,1018.3265684445241,9867,-4020,-14907,18323.120312872477
1735579293367,156,-93,1002,1018.3265684445241,9825,-4018,-16591,19696.096821451705
1735579293397,209,-109,978,1006.0049701666488,9777,-4028,17748,20659.284038901253
1735579293427,209,-109,978,1006.0049701666488,9725,-4054,16127,19263.71381639584
1735579293457,209,-109,978,1006.0049701666488,9687,-4090,14504,17914.57744408168
1735579293487,118,-126,948,963.589124056514,9669,-4131,12873,16621.337220572837
1735579293517,118,-126,948,963.589124056514,9748,-4149,11126,15363.124063809419
1735579293547,118,-126,948,963.589124056514,9817,-4151,9379,14197.532567316055
1735579293578,118,-126,948,963.589124056514,9873,-4139,7633,13148.008936717377
1735579293608,104,-87,960,969.5282357930582,9905,-4120,5883,12234.913730795162
1735579293638,104,-87,960,969.5282357930582,9919,-4097,4130,11499.081267649168
1735579293668,104,-87,960,969.5282357930582,9925,-4071,2380,10988.314975463709
1735579293697,166,-108,997,1016.4787257980365,9906,-4049,660,10721.885888219478
1735579293728,166,-108,997,1016.4787257980365,9868,-4040,-1010,10710.70137759428
1735579293757,166,-108,997,1016.4787257980365,9834,-4039,-2681,10963.979113442345
1735579293787,211,-125,967,997.61465506477,9805,-4045,-4352,11464.726512219993
1735579293817,211,-125,967,997.61465506477,9763,-4064,-5972,12144.83631013609
1735579293847,211,-125,967,997.61465506477,9733,-4091,-7593,13004.661433501451
1735579293878,211,-125,967,997.61465506477,9715,-4123,-9216,14011.245840395493
1735579293907,104,-122,946,959.4873631267897,9768,-4139,-10936,15236.181969246758
1735579293937,104,-122,946,959.4873631267897,9837,-4134,-12695,16583.713395979805
1735579293967,104,-122,946,959.4873631267897,9891,-4116,-14452,17989.820482706324
1735579293997,114,-91,974,984.8619192556894,9922,-4092,-16201,19433.552145709236
1735579294028,114,-91,974,984.8619192556894,9922,-4067,-17940,20900.48260208362
1735579294058,114,-91,974,984.8619192556894,9915,-4043,16322,19520.777597216766
1735579294088,192,-97,1000,1022.8748701576357,9899,-4022,14590,18084.103101895875
1735579294117,192,-97,1000,1022.8748701576357,9825,-4024,12953,16748.23602651933
1735579294147,192,-97,1000,1022.8748701576357,9765,-4040,11314,15481.712469878776
1735579294178,192,-97,1000,1022.8748701576357,9720,-4067,9673,14303.349887351564
1735579294208,188,-122,958,983.8658445133666,9707,-4098,8019,13240.989917676096
1735579294237,188,-122,958,983.8658445133666,9711,-4129,6363,12322.334640805695
1735579294267,188,-122,958,983.8658445133666,9722,-4159,4705,11573.74572037938
1735579294298,99,-109,948,959.3674999706839,9766,-4179,3005,11039.42127106308
1735579294327,99,-109,948,959.3674999706839,9843,-4176,1235,10763.310364381397
1735579294357,99,-109,948,959.3674999706839,9904,-4157,-531,10754.153895123502
1735579294387,113,-92,984,994.7306168003477,9947,-4127,-2293,11010.576142963637
1735579294417,113,-92,984,994.7306168003477,9949,-4097,-4031,11489.863837313304
1735579294447,113,-92,984,994.7306168003477,9943,-4067,-5767,12192.703842872588
1735579294478,113,-92,984,994.7306168003477,9930,-4039,-7501,13083.708266389924
1735579294508,189,-107,1002,1025.2677699020876,9876,-4027,-9169,14064.944578632367
1735579294538,189,-107,1002,1025.2677699020876,9817,-4032,-10809,15148.101993319164
1735579294568,189,-107,1002,1025.2677699020876,9770,-4049,-12451,16336.300131914815
1735579294598,175,-127,958,982.0987730366024,9748,-4069,-14107,17623.498914801225
1735579294627,175,-127,958,982.0987730366024,9753,-4087,-15779,18994.773465350936
1735579294657,175,-127,958,982.0987730366024,9761,-4103,-17453,20413.694888481114
1735579294687,96,-105,951,961.5830697344874,9775,-4118,16872,19929.19800192672
1735579294718,96,-105,951,961.5830697344874,9831,-4115,15107,18487.92132718008
1735579294748,96,-105,951,961.5830697344874,9876,-4101,13343,17099.39256231051
1735579294778,96,-105,951,961.5830697344874,9908,-4077,11582,15777.614426775677
1735579294807,126,-89,982,994.0427556196967,9904,-4056,9849,14544.523127280592
1735579294838,126,-89,982,994.0427556196967,9885,-4039,8129,13420.4093454708
1735579294868,126,-89,982,994.0427556196967,9865,-4027,6410,12434.751867246889
1735579294897,209,-115,1002,1030.0048543574928,9826,-4025,4729,11623.869493417413
1735579294927,209,-115,1002,1030.0048543574928,9767,-4043,3112,11019.286819027808
1735579294957,209,-115,1002,1030.0048543574928,9723,-4071,1494,10646.210875236316
1735579294988,172,-122,958,980.9342485610338,9696,-4106,-131,10530.375729289055
1735579295018,172,-122,958,980.9342485610338,9717,-4134,-1809,10713.660718913961
1735579295047,172,-122,958,980.9342485610338,9741,-4156,-3489,11150.450125443367
1735579295078,172,-122,958,980.9342485610338,9766,-4174,-5170,11812.109549102564
1735579295107,86,-105,958,967.566535179881,9832,-4175,-6919,12726.798890530172
1735579295137,86,-105,958,967.566535179881,9900,-4157,-8699,13818.945328786853
1735579295167,86,-105,958,967.566535179881,9949,-4124,-10475,15023.834463944282
1735579295197,143,-77,979,992.3804713918952,9956,-4089,-12221,16284.79959962664
1735579295227,143,-77,979,992.3804713918952,9914,-4068,-13922,17568.668247764257
1735579295257,143,-77,979,992.3804713918952,9875,-4055,-15622,18921.034168353483
1735579295287,206,-109,1001,1027.7733213116596,9836,-4050,-17321,20326.495935108935
1735579295318,206,-109,1001,1027.7733213116596,9781,-4065,17053,20074.78505488913
1735579295347,206,-109,1001,1027.7733213116596,9739,-4089,15426,18695.70854501107
1735579295378,206,-109,1001,1027.7733213116596,9710,-4121,13797,17367.324203802957
1735579295407,172,-112,959,980.7186140784726,9716,-4150,12133,16088.282848085435
1735579295438,172,-112,959,980.7186140784726,9735,-4175,10454,14882.438173901479
1735579295467,172,-112,959,980.7186140784726,9756,-4195,8775,13776.000362950053
1735579295497,90,-117,950,961.3995007279752,9809,-4205,7059,12795.623744077504
1735579295527,90,-117,950,961.3995007279752,9895,-4189,5281,11972.790276288983
1735579295557,90,-117,950,961.3995007279752,9961,-4156,3507,11348.696224677089
1735579295588,126,-90,985,997.0962842173267,10005,-4111,1739,10955.567853835784
1735579295618,126,-90,985,997.0962842173267,9981,-4073,17,10780.073237228029
1735579295647,126,-90,985,997.0962842173267,9953,-4041,-1702,10876.060591960675
1735579295678,126,-90,985,997.0962842173267,9922,-4015,-3421,11236.972457027738
1735579295707,200,-112,992,1018.1394796392093,9855,-4007,-5074,11786.541053252222
1735579295737,200,-112,992,1018.1394796392093,9789,-4017,-6700,12524.009342059755
1735579295767,200,-112,992,1018.1394796392093,9738,-4040,-8329,13435.865621537007
1735579295798,156,-120,958,978.008179924892,9720,-4067,-9985,14516.167331634064
1735579295827,156,-120,958,978.008179924892,9738,-4086,-11680,15746.315124498176
1735579295858,156,-120,958,978.008179924892,9757,-4101,-13376,17056.80585572809
1735579295887,90,-96,957,966.004658373861,9779,-4113,-15073,18432.06279828712
1735579295917,90,-96,957,966.004658373861,9831,-4110,-16844,19931.40730104124
1735579295947,90,-96,957,966.004658373861,9872,-4096,17385,20407.641338479076
1735579295978,90,-96,957,966.004658373861,9902,-4074,15618,18935.918356393493
1735579296008,148,-84,997,1011.4192997960836,9881,-4058,13900,17530.30304929153
1735579296037,148,-84,997,1011.4192997960836,9846,-4052,12204,16195.679547336073
1735579296067,148,-84,997,1011.4192997960836,9816,-4054,10507,14939.404974763887
1735579296097,209,-110,987,1014.8645229783136,9778,-4065,8840,13794.169384199979
1735579296127,209,-110,987,1014.8645229783136,9733,-4092,7221,12791.348404292645
1735579296157,209,-110,987,1014.8645229783136,9702,-4127,5599,11937.744091745308
1735579296187,131,-118,951,967.2052522603462,9690,-4166,3969,11269.632513973116
1735579296217,131,-118,951,967.2052522603462,9758,-4183,2234,10849.276888346061
1735579296247,131,-118,951,967.2052522603462,9818,-4186,500,10684.835983766901
1735579296278,131,-118,951,967.2052522603462,9868,-4177,-1232,10786.22162761363
1735579296337,109,-94,958,968.7522903198733,9906,-4162,-2973,11148.533939491776
1735579296338,109,-94,958,968.7522903198733,9931,-4138,-4719,11748.053711147222
1735579296367,109,-94,958,968.7522903198733,9945,-4110,-6464,12553.024376619365
1735579296398,173,-100,1001,1020.7497244672662,9914,-4090,-8153,13471.707575508013
1735579296428,173,-100,1001,1020.7497244672662,9873,-4082,-9819,14510.396755430225
1735579296458,173,-100,1001,1020.7497244672662,9837,-4082,-11485,15663.1579829867
1735579296487,190,-114,969,994.010563324153,9806,-4089,-13151,16906.399912459186
1735579296517,190,-114,969,994.010563324153,9780,-4103,-14799,18206.96048218922
1735579296547,190,-114,969,994.010563324153,9762,-4122,-16448,19565.894612820546
1735579296578,99,-119,943,955.620740670691,9756,-4143,17896,20799.298089118296
1735579296608,99,-119,943,955.620740670691,9830,-4141,16130,19337.882019497378
1735579296639,99,-119,943,955.620740670691,9890,-4123,14367,17922.66492461431
1735579296668,99,-119,943,955.620740670691,9933,-4094,12606,16563.10843410741
1735579296698,124,-88,978,989.7494632481495,9934,-4066,10871,15277.282251761928
1735579296727,124,-88,978,989.7494632481495,9915,-4043,9145,14081.338679259155
1735579296758,124,-88,978,989.7494632481495,9894,-4023,7421,13005.652847896563
1735579296788,185,-102,1011,1032.8359017772377,9867,-4009,5701,12080.197473551498
1735579296818,185,-102,1011,1032.8359017772377,9805,-4015,4056,11345.015910081396
1735579296847,185,-102,1011,1032.8359017772377,9756,-4032,2409,10827.734804657897
1735579296878,206,-116,957,985.7692427743929,9720,-4058,759,10560.390381041792
1735579296908,206,-116,957,985.7692427743929,9694,-4091,-873,10558.032297734271
1735579296937,206,-116,957,985.7692427743929,9681,-4129,-2508,10819.448507202203
1735579296967,206,-116,957,985.7692427743929,9679,-4168,-4145,11324.146325441048
1735579296997,91,-112,954,964.8528385199476,9754,-4189,-5884,12137.120457505562
1735579297027,91,-112,954,964.8528385199476,9843,-4185,-7665,13158.689106442176
1735579297057,91,-112,954,964.8528385199476,9914,-4163,-9444,14311.083152577934
1735579297087,118,-93,977,988.4846989205245,9953,-4132,-11203,15544.865454548006
1735579297117,118,-93,977,988.4846989205245,9955,-4102,-12936,16830.58302614618
1735579297148,118,-93,977,988.4846989205245,9949,-4073,-14667,18184.9613417241
1735579297178,187,-102,1013,1035.1531287688792,9931,-4045,-16393,19588.701718082288
1735579297207,187,-102,1013,1035.1531287688792,9864,-4039,17963,20887.349903709663
1735579297237,187,-102,1013,1035.1531287688792,9808,-4045,16319,19464.548543441742
1735579297267,187,-102,1013,1035.1531287688792,9764,-4062,14674,18087.614989268208
1735579297297,173,-116,958,980.382068379466,9749,-4081,13008,16760.239437430482
1735579297327,173,-116,958,980.382068379466,9748,-4101,11336,15503.115848112599
1735579297357,173,-116,958,980.382068379466,9752,-4120,9662,14332.834611478638
1735579297387,98,-101,943,953.4432337585704,9780,-4133,7956,13267.555351307188
1735579297417,98,-101,943,953.4432337585704,9833,-4129,6192,12331.96634766735
1735579297447,98,-101,943,953.4432337585704,9875,-4114,4430,11578.666633079994
1735579297478,130,-81,979,990.9096830690474,9905,-4092,2671,11044.805566418994
1735579297507,130,-81,979,990.9096830690474,9887,-4076,953,10736.608123611479
1735579297537,130,-81,979,990.9096830690474,9868,-4065,-764,10699.78247442442
1735579297567,130,-81,979,990.9096830690474,9850,-4058,-2482,10938.472836735482
1735579297597,207,-108,995,1022.0264184452376,9799,-4066,-4131,11384.986517339403
1735579297628,207,-108,995,1022.0264184452376,9750,-4090,-5754,12037.404869821401
1735579297658,207,-108,995,1022.0264184452376,9716,-4122,-7379,12877.933879314647
1735579297687,138,-115,948,964.8694212171924,9721,-4151,-9042,13909.939108421719
1735579297717,138,-115,948,964.8694212171924,9769,-4164,-10763,15120.000859788335
1735579297747,138,-115,948,964.8694212171924,9812,-4167,-12484,16416.135020156238
1735579297778,98,-101,958,968.2814673430448,9850,-4164,-14203,17778.824623692086
1735579297808,98,-101,958,968.2814673430448,9900,-4148,-15966,19238.73852413406
1735579297838,98,-101,958,968.2814673430448,9937,-4122,-17726,20735.13754475721
1735579297868,98,-101,958,968.2814673430448,9959,-4089,16516,19714.965330935785
1735579297898,164,-93,993,1010.7393333594968,9927,-4064,14817,18292.20910661148
1735579297927,164,-93,993,1010.7393333594968,9879,-4054,13142,16933.44976666007
1735579297957,164,-93,993,1010.7393333594968,9838,-4052,11466,15642.062012407443
1735579297987,216,-112,980,1009.752444909147,9794,-4060,9810,14444.450006836536
1735579298017,216,-112,980,1009.752444909147,9745,-4082,8192,13369.241302332754
1735579298047,216,-112,980,1009.752444909147,9710,-4113,6571,12424.930985723824
1735579298078,117,-112,948,961.7364503854474,9692,-4150,4946,11645.612049179725
1735579298108,117,-112,948,961.7364503854474,9759,-4165,3200,11082.657894205704
1735579298138,117,-112,948,961.7364503854474,9819,-4167,1454,10765.257358744379
1735579298167,117,-112,948,961.7364503854474,9867,-4157,-290,10710.856081565096
1735579298197,108,-91,967,977.2584100431164,9901,-4141,-2036,10923.505755937515
1735579298228,108,-91,967,977.2584100431164,9920,-4119,-3784,11388.205170262783
1735579298258,108,-91,967,977.2584100431164,9930,-4094,-5530,12080.837553746014
1735579298288,170,-96,1005,1023.7875756229903,9911,-4073,-7245,12934.731346263052
1735579298318,170,-96,1005,1023.7875756229903,9864,-4067,-8910,13900.6145547598
1735579298348,170,-96,1005,1023.7875756229903,9825,-4070,-10577,14998.94842980667
1735579298378,195,-121,974,1000.6707750304292,9792,-4080,-12245,16200.916301246667
1735579298408,195,-121,974,1000.6707750304292,9770,-4096,-13889,17468.097692651023
1735579298438,195,-121,974,1000.6707750304292,9756,-4117,-15535,18800.676849517946
1735579298468,195,-121,974,1000.6707750304292,9749,-4140,-17182,20184.244474341864
1735579298498,97,-107,941,952.0183821754704,9797,-4150,17090,20131.36381371118
1735579298528,97,-107,941,952.0183821754704,9855,-4142,15326,18685.916220512176
1735579298557,97,-107,941,952.0183821754704,9900,-4122,13565,17291.908772602288
1735579298588,126,-88,974,986.0507086352101,9921,-4097,11818,15964.86060070679
1735579298617,126,-88,974,986.0507086352101,9910,-4077,10095,14722.060113992198
1735579298648,126,-88,974,986.0507086352101,9896,-4058,8372,13582.656735705279
1735579298678,201,-107,1013,1038.2769380083523,9875,-4044,6654,12575.582570998451
1735579298708,201,-107,1013,1038.2769380083523,9812,-4051,5028,11745.923931304851
1735579298738,201,-107,1013,1038.2769380083523,9762,-4071,3399,11109.58532079393
1735579298767,201,-107,1013,1038.2769380083523,9725,-4100,1769,10701.167506398542
1735579298798,179,-114,960,983.1769932214647,9721,-4126,109,10560.946832552469
1735579298827,179,-114,960,983.1769932214647,9730,-4150,-1560,10692.473988745542
1735579298857,179,-114,960,983.1769932214647,9743,-4172,-3232,11080.498950859568
1735579298888,90,-112,952,962.7813874395371,9789,-4187,-4942,11737.923751669203
1735579298918,90,-112,952,962.7813874395371,9872,-4177,-6720,12651.565634339491
1735579298948,90,-112,952,962.7813874395371,9936,-4149,-8494,13714.457080030546
1735579298978,141,-83,985,998.4963695477315,9979,-4111,-10263,14893.284761932136
1735579299008,141,-83,985,998.4963695477315,9944,-4084,-11968,16087.113351996995
1735579299037,141,-83,985,998.4963695477315,9909,-4065,-13672,17367.67370720673
1735579299067,141,-83,985,998.4963695477315,9875,-4053,-15376,18718.007639703537
1735579299097,200,-114,1005,1031.0290975525375,9825,-4055,-17027,20072.17922897262
1735579299127,200,-114,1005,1031.0290975525375,9781,-4070,17341,20321.00248511377
1735579299158,200,-114,1005,1031.0290975525375,9748,-4094,15709,18935.60194448542
1735579299188,163,-115,956,976.5910095838483,9740,-4118,14053,17587.277589212037
1735579299218,163,-115,956,976.5910095838483,9757,-4136,12363,16283.406093320893
1735579299247,163,-115,956,976.5910095838483,9776,-4149,10673,15056.470569160623
1735579299278,89,-114,951,961.9345092052785,9798,-4160,8981,13927.12335696069
1735579299307,89,-114,951,961.9345092052785,9873,-4149,7203,12906.33716435457
1735579299337,89,-114,951,961.9345092052785,9931,-4123,5429,12045.660255876388
1735579299367,89,-114,951,961.9345092052785,9971,-4085,3658,11379.324672404773
1735579299397,144,-84,985,999.008007975912,9949,-4053,1937,10916.106402925907
1735579299427,144,-84,985,999.008007975912,9905,-4032,237,10696.832147883784
1735579299457,144,-84,985,999.008007975912,9865,-4021,-1462,10752.865199564254
1735579299487,202,-119,998,1025.1677911444547,9816,-4023,-3134,11061.660860829174
1735579299518,202,-119,998,1025.1677911444547,9767,-4041,-4760,11592.306500433811
1735579299547,202,-119,998,1025.1677911444547,9731,-4068,-6388,12330.755410760527
1735579299578,164,-113,945,965.758769051568,9711,-4100,-8023,13246.963803075783
1735579299607,164,-113,945,965.758769051568,9728,-4124,-9711,14350.779804595986
1735579299637,164,-113,945,965.758769051568,9747,-4143,-11400,15560.477434834704
1735579299668,164,-113,945,965.758769051568,9768,-4158,-13090,16853.80930235061
1735579299698,93,-108,946,956.6760162144758,9828,-4161,-14836,18275.95143898123
1735579299728,93,-108,946,956.6760162144758,9891,-4145,-16606,19767.957456449567
1735579299757,93,-108,946,956.6760162144758,9938,-4117,17626,20649.198749588322
1735579299787,137,-98,987,1001.2701933044846,9950,-4085,15883,19182.26821833122
1735579299818,137,-98,987,1001.2701933044846,9928,-4060,14175,17775.809658071837
1735579299848,137,-98,987,1001.2701933044846,9903,-4040,12469,16427.628252428894
1735579299878,207,-108,997,1023.9736324730242,9874,-4027,10765,15152.48593465772
1735579299907,207,-108,997,1023.9736324730242,9804,-4036,9145,14001.383395936275
1735579299938,207,-108,997,1023.9736324730242,9749,-4059,7524,12966.458961489832
1735579299968,207,-108,997,1023.9736324730242,9708,-4091,5900,12074.416963149815
1735579299997,166,-116,959,980.1494783960251,9713,-4119,4231,11367.05287222682
1735579300028,166,-116,959,980.1494783960251,9734,-4142,2545,10880.438640054912
1735579300057,166,-116,959,980.1494783960251,9757,-4160,858,10641.466675228561
1735579300087,90,-111,938,948.8229550342888,9803,-4170,-858,10687.556923825014
1735579300117,90,-111,938,948.8229550342888,9876,-4158,-2631,11033.879689393028
1735579300147,90,-111,938,948.8229550342888,9931,-4132,-4402,11622.211020283534
1735579300178,132,-89,989,1001.7315009522263,9969,-4095,-6168,12417.496124420575
1735579300208,132,-89,989,1001.7315009522263,9944,-4066,-7884,13325.650002907925
1735579300237,132,-89,989,1001.7315009522263,9916,-4042,-9598,14380.07037534935
1735579300268,203,-108,997,1023.17251722278,9883,-4026,-11308,15548.415642759233
1735579300297,203,-108,997,1023.17251722278,9813,-4033,-12931,16726.351036612858
1735579300327,203,-108,997,1023.17251722278,9756,-4053,-14557,17986.455848776877
1735579300357,203,-108,997,1023.17251722278,9715,-4084,-16184,19312.74545475086
1735579300387,169,-114,955,976.5152328560984,9716,-4110,-17853,20736.98061435174
1735579300417,169,-114,955,976.5152328560984,9732,-4133,16462,19565.044262663963
1735579300447,169,-114,955,976.5152328560984,9751,-4153,14778,18185.67276731878
1735579300478,87,-109,945,955.2355730394466,9774,-4169,13092,16861.55689727375
1735579300508,87,-109,945,955.2355730394466,9853,-4163,11313,15569.076626441274
1735579300538,87,-109,945,955.2355730394466,9916,-4141,9536,14366.984130289837
1735579300567,142,-91,992,1006.2350620009223,9959,-4107,7766,13280.055948677325
1735579300597,142,-91,992,1006.2350620009223,9932,-4083,6063,12331.88882531788
1735579300627,142,-91,992,1006.2350620009223,9904,-4065,4360,11559.543286825825
1735579300657,142,-91,992,1006.2350620009223,9877,-4052,2658,11001.763358662101
1735579300687,204,-116,993,1020.3533701615338,9825,-4054,1011,10676.500456610303
1735579300717,204,-116,993,1020.3533701615338,9778,-4070,-613,10608.956263459662
1735579300747,204,-116,993,1020.3533701615338,9742,-4094,-2240,10802.0831324333
1735579300778,140,-113,948,964.9212403092804,9741,-4118,-3903,11272.906191395366
1735579300807,140,-113,948,964.9212403092804,9774,-4129,-5621,12007.30436026338
1735579300837,140,-113,948,964.9212403092804,9805,-4133,-7339,12925.967468626865
1735579300867,100,-110,950,961.5612304996495,9833,-4132,-9056,13991.870818443114
1735579300897,100,-110,950,961.5612304996495,9883,-4119,-10815,15218.543787103943
1735579300927,100,-110,950,961.5612304996495,9921,-4095,-12572,16530.288866199524
1735579300958,100,-110,950,961.5612304996495,9945,-4064,-14326,17906.797508208998
1735579300988,163,-98,1005,1022.8382081248236,9914,-4041,-16026,19273.03175424147
1735579301018,163,-98,1005,1022.8382081248236,9868,-4030,-17702,20663.47328016275
1735579301048,163,-98,1005,1022.8382081248236,9828,-4029,16620,19724.26994846704
1735579301078,197,-112,979,1004.8850680550488,9786,-4038,14959,18326.01759793982
1735579301108,197,-112,979,1004.8850680550488,9744,-4059,13324,16998.52914225228
1735579301137,197,-112,979,1004.8850680550488,9715,-4089,11687,15738.078504061416
1735579301167,115,-105,942,954.7847925056201,9702,-4122,10044,14560.275546843199
1735579301197,115,-105,942,954.7847925056201,9757,-4135,8297,13458.732592632934
1735579301227,115,-105,942,954.7847925056201,9806,-4137,6550,12496.995839000667
1735579301257,115,-105,942,954.7847925056201,9845,-4129,4805,11707.292214683974
1735579301287,104,-87,961,970.5184181662912,9875,-4118,3057,11127.389541127784
1735579301317,104,-87,961,970.5184181662912,9893,-4101,1307,10788.78579822586
1735579301347,104,-87,961,970.5184181662912,9904,-4081,-440,10720.885084730644
1735579301378,176,-96,1010,1029.7048120699446,9883,-4065,-2155,10901.464993293333
1735579301408,176,-96,1010,1029.7048120699446,9833,-4066,-3814,11303.399532883901
1735579301438,176,-96,1010,1029.7048120699446,9792,-4076,-5475,11936.191394242973
1735579301468,187,-114,967,991.4907967298536,9762,-4094,-7139,12768.038259654457
1735579301498,187,-114,967,991.4907967298536,9749,-4114,-8793,13758.082933315964
1735579301527,187,-114,967,991.4907967298536,9742,-4137,-10449,14872.89259021257
1735579301557,187,-114,967,991.4907967298536,9743,-4160,-12107,16087.60696934134
1735579301588,92,-113,945,956.1683952108018,9805,-4168,-13845,17469.81035958891
1735579301617,92,-113,945,956.1683952108018,9877,-4155,-15619,18941.285991188666
1735579301648,92,-113,945,956.1683952108018,9931,-4127,-17389,20445.884940495973
1735579301678,131,-87,968,980.6905730147506,9951,-4095,16862,20002.96153073339
1735579301707,131,-87,968,980.6905730147506,9928,-4071,15147,18562.592329736708
1735579301737,131,-87,968,980.6905730147506,9904,-4051,13433,17173.97175961344
1735579301768,193,-111,1000,1024.4852365944566,9875,-4037,11722,15849.866813320546
1735579301798,193,-111,1000,1024.4852365944566,9819,-4042,10085,14644.376053625501
1735579301828,193,-111,1000,1024.4852365944566,9774,-4057,8446,13539.765175216296
1735579301858,193,-111,1000,1024.4852365944566,9741,-4081,6805,12563.823741202357
1735579301888,171,-119,958,980.3907384303465,9740,-4103,5137,11751.211767302979
1735579301917,171,-119,958,980.3907384303465,9752,-4122,3460,11138.401501113165
1735579301948,171,-119,958,980.3907384303465,9766,-4138,1781,10754.987726631769
1735579301978,92,-104,955,965.0414498869984,9801,-4148,70,10642.856994247362
1735579302008,92,-104,955,965.0414498869984,9861,-4138,-1699,10828.15616806481
1735579302038,92,-104,955,965.0414498869984,9906,-4116,-3467,11273.436964830202
1735579302068,134,-81,994,1006.2569254420066,9937,-4086,-5230,11949.571749648603
1735579302097,134,-81,994,1006.2569254420066,9909,-4065,-6943,12763.923965614962
1735579302128,134,-81,994,1006.2569254420066,9881,-4050,-8655,13745.7515618463
1735579302158,134,-81,994,1006.2569254420066,9854,-4042,-10367,14863.168201968247
1735579302187,199,-103,1004,1028.7011227757068,9799,-4048,-12023,16029.94803485027
1735579302217,199,-103,1004,1028.7011227757068,9749,-4070,-13656,17265.405787296168
1735579302247,199,-103,1004,1028.7011227757068,9712,-4101,-15290,18572.163175031605
1735579302278,166,-108,956,976.2970859323508,9704,-4133,-16947,19961.21524356671
1735579302307,166,-108,956,976.2970859323508,9724,-4158,17366,20332.808364807846
1735579302338,166,-108,956,976.2970859323508,9746,-4179,15678,18927.446763892905
1735579302368,92,-112,953,963.9590240253991,9772,-4196,13989,17572.436399088205
1735579302398,92,-112,953,963.9590240253991,9858,-4190,12214,16245.555084391546
1735579302428,92,-112,953,963.9590240253991,9926,-4167,10442,14997.49075678995
1735579302458,92,-112,953,963.9590240253991,9974,-4131,8674,13848.614118387442
1735579302487,137,-93,992,1005.7246143950142,9971,-4096,6945,12823.068353557193
1735579302517,137,-93,992,1005.7246143950142,9947,-4067,5234,11953.16083720118
1735579302547,137,-93,992,1005.7246143950142,9919,-4044,3524,11276.483184042798
1735579302578,198,-104,1008,1032.5134381692085,9870,-4032,1847,10820.597626748719
1735579302608,198,-104,1008,1032.5134381692085,9804,-4040,220,10606.055628743421
1735579302638,198,-104,1008,1032.5134381692085,9751,-4061,-1409,10656.406664537535
1735579302668,178,-120,958,981.7576075590146,9715,-4091,-3045,10972.216321236107
1735579302698,178,-120,958,981.7576075590146,9723,-4116,-4714,11562.870794054563
1735579302728,178,-120,958,981.7576075590146,9735,-4140,-6386,12356.812736300571
1735579302757,178,-120,958,981.7576075590146,9751,-4161,-8058,13316.429176021626
1735579302787,89,-105,953,962.8888824781393,9814,-4167,-9803,14483.6906208328
1735579302818,89,-105,953,962.8888824781393,9880,-4153,-11579,15777.675684333228
1735579302847,89,-105,953,962.8888824781393,9931,-4126,-13353,17145.006445026494
1735579302877,127,-83,981,992.662581142253,9948,-4094,-15105,18544.124810839687
1735579302908,127,-83,981,992.662581142253,9927,-4069,-16826,19955.35933026514
1735579302938,127,-83,981,992.662581142253,9903,-4050,17453,20471.421982852095
1735579302967,204,-115,1006,1032.8973811565213,9874,-4035,15738,19012.14730113356
1735579302998,204,-115,1006,1032.8973811565213,9812,-4043,14114,17658.600992151107
1735579303028,204,-115,1006,1032.8973811565213,9763,-4063,12490,16365.3364768342
1735579303057,204,-115,1006,1032.8973811565213,9728,-4092,10863,15145.402503730298
1735579303088,174,-118,955,977.8675779470348,9728,-4118,9201,14008.936754800487
1735579303116,174,-118,955,977.8675779470348,9742,-4140,7525,12987.37036508931
1735579303148,174,-118,955,977.8675779470348,9759,-4160,5849,12114.226430111004
1735579303178,92,-106,960,970.2061636580135,9801,-4170,4137,11426.428575893695
1735579303208,92,-106,960,970.2061636580135,9871,-4158,2362,10968.347596607247
1735579303237,92,-106,960,970.2061636580135,9923,-4132,590,10765.103483013992
1735579303267,137,-78,988,1000.4983758107757,9958,-4098,-1175,10832.173973861387
1735579303297,137,-78,988,1000.4983758107757,9923,-4075,-2883,11107.80099749721
1735579303327,137,-78,988,1000.4983758107757,9888,-4059,-4590,11632.545938013742
1735579303357,137,-78,988,1000.4983758107757,9856,-4051,-6297,12377.542001544572
1735579303387,205,-114,987,1014.4900196650532,9804,-4057,-7945,13255.21369122354
1735579303418,205,-114,987,1014.4900196650532,9758,-4078,-9569,14262.342339181178
1735579303448,205,-114,987,1014.4900196650532,9725,-4107,-11195,15387.36816352946
1735579303478,134,-115,955,971.1879323797223,9731,-4134,-12861,16648.95306017769
1735579303508,134,-115,955,971.1879323797223,9777,-4146,-14588,18044.07905657698
1735579303538,134,-115,955,971.1879323797223,9818,-4148,-16315,19487.900169079276
1735579303568,104,-92,958,968.0103305233886,9854,-4144,17959,20899.75437654711
1735579303598,104,-92,958,968.0103305233886,9887,-4129,16204,19426.039894945134
1735579303628,104,-92,958,968.0103305233886,9911,-4109,14450,17997.619342568618
1735579303658,104,-92,958,968.0103305233886,9924,-4083,12699,16625.92150829541
1735579303687,166,-94,1003,1020.9804111734956,9890,-4068,11006,15345.773359462859
1735579303717,166,-94,1003,1020.9804111734956,9846,-4065,9336,14164.350920532857
1735579303747,166,-94,1003,1020.9804111734956,9810,-4071,7665,13098.143608924129
1735579303778,205,-118,968,996.480305876639,9778,-4084,6005,12179.834358479593
1735579303838,205,-118,968,996.480305876639,9749,-4106,4373,11446.631207477596
1735579303838,205,-118,968,996.480305876639,9731,-4133,2739,10921.363055955973
1735579303868,107,-108,955,967.0253357590999,9727,-4163,1099,10637.335145608604
1735579303898,107,-108,955,967.0253357590999,9797,-4169,-658,10667.461459972565
1735579303928,107,-108,955,967.0253357590999,9855,-4160,-2415,10966.259617572437
1735579303958,107,-108,955,967.0253357590999,9900,-4140,-4169,11512.174468796067
1735579303988,110,-91,978,988.3648111906858,9923,-4118,-5915,12264.219420737709
1735579304018,110,-91,978,988.3648111906858,9932,-4093,-7658,13192.50685048145
1735579304048,110,-91,978,988.3648111906858,9932,-4066,-9399,14265.979847174887
1735579304078,193,-113,1007,1031.53623300396,9903,-4046,-11101,15416.605527806696
1735579304108,193,-113,1007,1031.53623300396,9847,-4045,-12740,16602.199673537238
1735579304138,193,-113,1007,1031.53623300396,9801,-4055,-14379,17867.79972464433
1735579304168,189,-116,948,973.5918035809464,9767,-4072,-16022,19201.04051868023
1735579304198,189,-116,948,973.5918035809464,9749,-4092,-17675,20595.948387971843
1735579304228,189,-116,948,973.5918035809464,9739,-4115,16670,19740.06702116282
1735579304258,94,-120,945,957.2152318052613,9740,-4139,15013,18368.154234979625
1735579304288,94,-120,945,957.2152318052613,9820,-4139,13242,16997.478783631414
1735579304318,94,-120,945,957.2152318052613,9885,-4122,11473,15695.025899946773
1735579304348,94,-120,945,957.2152318052613,9933,-4092,9707,14478.770735114222
1735579304378,127,-84,984,995.7113035413428,9930,-4066,7975,13369.288724535798
1735579304408,127,-84,984,995.7113035413428,9906,-4046,6257,12395.523425817886
1735579304437,127,-84,984,995.7113035413428,9881,-4031,4539,11596.794514002566
1735579304467,200,-102,1000,1024.8921894521393,9853,-4022,2824,11010.58894882558
1735579304497,200,-102,1000,1024.8921894521393,9786,-4034,1195,10652.087917399105
1735579304528,200,-102,1000,1024.8921894521393,9734,-4059,-435,10555.352291610167
1735579304558,186,-119,960,985.0670027972717,9699,-4091,-2071,10728.276795459744
1735579304588,186,-119,960,985.0670027972717,9701,-4123,-3729,11180.964672155977
1735579304618,186,-119,960,985.0670027972717,9711,-4153,-5389,11857.160326148922
1735579304648,186,-119,960,985.0670027972717,9727,-4181,-7050,12719.976021989978
1735579304678,92,-110,960,970.651327717631,9797,-4192,-8793,13815.604293696313
1735579304708,92,-110,960,970.651327717631,9875,-4180,-10569,15056.287258152322
1735579304738,92,-110,960,970.651327717631,9934,-4153,-12343,16379.298336619917
1735579304768,138,-77,992,1004.5083374467332,9955,-4121,-14092,17738.915694032712
1735579304798,138,-77,992,1004.5083374467332,9929,-4097,-15805,19109.3818581345
1735579304828,138,-77,992,1004.5083374467332,9901,-4079,-17517,20530.789828937413
1735579304858,195,-102,1002,1025.881572112493,9869,-4067,16775,19883.11532431475
1735579304888,195,-102,1002,1025.881572112493,9811,-4075,15140,18495.43040861715
1735579304918,195,-102,1002,1025.881572112493,9766,-4093,13504,17160.577525246637
1735579304947,195,-102,1002,1025.881572112493,9733,-4120,11866,15890.489136587332
1735579304978,170,-122,962,984.493778548143,9743,-4142,10193,14696.239723140066
1735579305008,170,-122,962,984.493778548143,9767,-4159,8509,13604.949503765165
1735579305038,170,-122,962,984.493778548143,9790,-4171,6825,12642.071270167717
1735579305067,86,-116,947,957.9462406628046,9837,-4174,5108,11844.00730327367
1735579305097,86,-116,947,957.9462406628046,9912,-4154,3331,11251.623038477604
1735579305127,86,-116,947,957.9462406628046,9967,-4119,1557,10896.398441687052
1735579305157,137,-92,990,1003.6598029212887,10002,-4073,-211,10801.567201105589
1735579305188,137,-92,990,1003.6598029212887,9965,-4038,-1920,10922.136649941714
1735579305218,137,-92,990,1003.6598029212887,9926,-4011,-3628,11303.803828800286
1735579305248,137,-92,990,1003.6598029212887,9888,-3993,-5336,11924.323418961765
1735579305278,206,-114,992,1019.5567664431442,9819,-3995,-6979,12691.699137625348
1735579305308,206,-114,992,1019.5567664431442,9755,-4014,-8599,13609.372579219073
1735579305338,206,-114,992,1019.5567664431442,9707,-4046,-10220,14664.39105452388
1735579305368,155,-122,958,978.0966209940611,9697,-4080,-11873,15863.364649405245
1735579305398,155,-122,958,978.0966209940611,9725,-4103,-13570,17191.717017215004
1735579305428,155,-122,958,978.0966209940611,9754,-4120,-15269,18581.099994349097
1735579305458,88,-106,957,966.8655542525031,9785,-4132,-16968,20018.308445021023
1735579305488,88,-106,957,966.8655542525031,9849,-4126,17257,20293.612936093956
1735579305518,88,-106,957,966.8655542525031,9900,-4107,15485,18832.48985131812
1735579305548,88,-106,957,966.8655542525031,9936,-4077,13716,17420.524705071315
1735579305578,141,-83,990,1003.4291205660717,9919,-4051,11992,16081.207230802045
1735579305608,141,-83,990,1003.4291205660717,9882,-4035,10287,14824.220654051262
1735579305638,141,-83,990,1003.4291205660717,9849,-4027,8583,13670.67734239968
1735579305668,219,-110,990,1019.8828364081827,9799,-4031,6914,12651.986326265138
1735579305698,219,-110,990,1019.8828364081827,9736,-4056,5306,11806.543439974292
1735579305728,219,-110,990,1019.8828364081827,9690,-4092,3696,11149.034935813952
1735579305758,153,-120,940,959.900515678578,9664,-4135,2079,10715.099719554644
1735579305788,153,-120,940,959.900515678578,9712,-4162,372,10572.775037803462
1735579305817,153,-120,940,959.900515678578,9759,-4179,-1334,10699.611114428411
1735579305847,153,-120,940,959.900515678578,9801,-4187,-3042,11083.516319291455
1735579305878,95,-102,953,963.1396575782767,9862,-4182,-4790,11734.234870667964
1735579305908,95,-102,953,963.1396575782767,9919,-4161,-6557,12597.409694060125
1735579305937,95,-102,953,963.1396575782767,9959,-4129,-8321,13618.71370578
1735579305967,156,-100,998,1015.0566486654822,9962,-4094,-10055,14734.493713731734
1735579305997,156,-100,998,1015.0566486654822,9928,-4072,-11741,15905.893530386778
1735579306028,156,-100,998,1015.0566486654822,9895,-4056,-13427,17165.269878449333
1735579306057,207,-112,992,1019.5376403056437,9860,-4048,-15110,18491.024958070873
1735579306087,207,-112,992,1019.5376403056437,9801,-4058,-16732,19811.279337791388
1735579306117,207,-112,992,1019.5376403056437,9754,-4079,17643,20568.28155194303
1735579306148,207,-112,992,1019.5376403056437,9721,-4109,16017,19181.397524685213
1735579306178,138,-114,954,970.6472067646412,9742,-4130,14325,17809.241673917506
1735579306208,138,-114,954,970.6472067646412,9780,-4141,12606,16483.552924051295
1735579306238,138,-114,954,970.6472067646412,9813,-4144,10887,15231.364810810619
1735579306268,92,-101,950,959.7734107590187,9853,-4139,9151,14069.603086085976
1735579306298,92,-101,950,959.7734107590187,9901,-4121,7382,13019.461048753132
1735579306328,92,-101,950,959.7734107590187,9934,-4094,5616,12123.722530642146
1735579306357,169,-89,997,1015.1310260257047,9951,-4060,3856,11418.175729949158
1735579306387,169,-89,997,1015.1310260257047,9894,-4045,2186,10910.172180126214
1735579306418,169,-89,997,1015.1310260257047,9843,-4042,515,10653.057683125535
1735579306447,169,-89,997,1015.1310260257047,9801,-4048,-1156,10666.875878156641
1735579306477,215,-108,985,1013.9595652687537,9748,-4068,-2787,10924.261851493675
1735579306508,215,-108,985,1013.9595652687537,9704,-4101,-4404,11418.451427404681
1735579306538,215,-108,985,1013.9595652687537,9675,-4142,-6022,12125.439084833175
1735579306568,122,-114,948,962.5923332335449,9696,-4179,-7689,13061.28546506813
1735579306598,122,-114,948,962.5923332335449,9770,-4192,-9435,14214.25302293441
1735579306627,122,-114,948,962.5923332335449,9834,-4190,-11179,15467.181288133917
1735579306657,97,-96,954,963.7120939367732,9887,-4178,-12921,16797.63953655394
1735579306688,97,-96,954,963.7120939367732,9932,-4155,-14684,18207.92423644167
1735579306718,97,-96,954,963.7120939367732,9962,-4123,-16444,19663.308699199126
1735579306748,97,-96,954,963.7120939367732,9977,-4085,17798,20808.56934053853
1735579306778,174,-95,1005,1024.3661454772898,9933,-4058,16108,19354.573542188937
1735579306808,174,-95,1005,1024.3661454772898,9876,-4048,14445,17960.504029675783
1735579306838,174,-95,1005,1024.3661454772898,9826,-4049,12782,16623.002165673926
1735579306868,202,-116,970,997.5770646922472,9782,-4060,11129,15363.130052173614
1735579306898,202,-116,970,997.5770646922472,9747,-4082,9497,14207.735287511518
1735579306927,202,-116,970,997.5770646922472,9724,-4110,7862,13162.800613851143
1735579306957,103,-125,946,959.7655963827834,9715,-4141,6221,12256.832665905169
1735579306988,103,-125,946,959.7655963827834,9799,-4147,4458,11536.5408160332
1735579307018,103,-125,946,959.7655963827834,9868,-4136,2697,11034.388474220037
1735579307048,103,-125,946,959.7655963827834,9922,-4110,938,10780.446558468717
1735579307078,124,-87,967,978.7921127593949,9929,-4086,-795,10766.264997667482
1735579307108,124,-87,967,978.7921127593949,9916,-4064,-2520,11008.794302738152
1735579307138,124,-87,967,978.7921127593949,9899,-4045,-4244,11504.945110690445
1735579307167,192,-101,1003,1026.193938785452,9860,-4035,-5936,12195.774719139412
1735579307198,192,-101,1003,1026.193938785452,9799,-4043,-7575,13028.694293750237
1735579307228,192,-101,1003,1026.193938785452,9752,-4063,-9216,14019.419709816808
1735579307258,185,-107,958,981.5487761695799,9719,-4091,-10860,15137.200599846723
1735579307288,185,-107,958,981.5487761695799,9711,-4120,-12520,16371.57051110247
1735579307318,185,-107,958,981.5487761695799,9711,-4150,-14181,17681.255102508985
1735579307348,185,-107,958,981.5487761695799,9718,-4179,-15843,19050.044986823523
1735579307378,95,-112,945,956.3440803392888,9788,-4192,-17585,20557.481192986656
1735579307408,95,-112,945,956.3440803392888,9867,-4183,16639,19791.702781721437
1735579307438,95,-112,945,956.3440803392888,9929,-4157,14867,18354.65551297545
1735579307468,129,-92,974,986.8034252068646,9958,-4124,13116,16976.412930887374
1735579307498,129,-92,974,986.8034252068646,9947,-4097,11395,15670.808626232407
1735579307528,129,-92,974,986.8034252068646,9932,-4071,9676,14451.388895189279
1735579307558,208,-110,1009,1036.0719087013217,9908,-4050,7961,13339.733318173943
1735579307588,208,-110,1009,1036.0719087013217,9837,-4052,6343,12386.239219391817
1735579307618,208,-110,1009,1036.0719087013217,9779,-4067,4722,11595.974042744318
1735579307648,208,-110,1009,1036.0719087013217,9735,-4093,3101,11006.319775474452
1735579307678,170,-115,953,974.8507578085992,9733,-4117,1435,10664.905203516813
1735579307708,170,-115,953,974.8507578085992,9747,-4138,-245,10591.840161180682
1735579307738,170,-115,953,974.8507578085992,9763,-4155,-1928,10784.12620475113
1735579307768,93,-113,949,960.218204368153,9806,-4165,-3642,11259.175147407557
1735579307798,93,-113,949,960.218204368153,9879,-4154,-5413,12006.286936434595
1735579307828,93,-113,949,960.218204368153,9934,-4128,-7181,12934.121578213188
1735579307858,145,-95,990,1005.0621871307268,9970,-4091,-8944,14004.724809863277
1735579307888,145,-95,990,1005.0621871307268,9938,-4065,-10644,15118.955155697764
1735579307918,145,-95,990,1005.0621871307268,9906,-4046,-12343,16335.501247283475
1735579307948,198,-105,998,1022.8553172369981,9871,-4035,-14038,17629.04733671108
1735579307978,198,-105,998,1022.8553172369981,9806,-4043,-15668,18920.61597834489
1735579308008,198,-105,998,1022.8553172369981,9755,-4063,-17300,20272.098904652175
1735579308038,198,-105,998,1022.8553172369981,9718,-4093,17066,20060.920442492163
1735579308068,167,-116,958,979.3411050292947,9712,-4121,15405,18671.358011671244
1735579308098,167,-116,958,979.3411050292947,9734,-4144,13720,17325.180864856793
1735579308128,167,-116,958,979.3411050292947,9757,-4162,12033,16041.021850243831
1735579308158,104,-104,938,949.4608996688595,9783,-4177,10345,14838.242584618974
1735579308188,104,-104,938,949.4608996688595,9848,-4173,8585,13714.928290005748
1735579308217,104,-104,938,949.4608996688595,9899,-4157,6827,12723.159159579825
1735579308248,127,-92,1000,1012.2218136357268,9936,-4131,5072,11895.98423838902
1735579308278,127,-92,1000,1012.2218136357268,9932,-4107,3348,11257.050102047162
1735579308308,127,-92,1000,1012.2218136357268,9923,-4085,1625,10853.28424947951
1735579308338,127,-92,1000,1012.2218136357268,9910,-4064,-95,10711.359437531728
1735579308368,202,-111,990,1016.4767582192915,9857,-4059,-1749,10802.542802507194
1735579308397,202,-111,990,1016.4767582192915,9802,-4069,-3375,11136.72258790709
1735579308428,202,-111,990,1016.4767582192915,9759,-4090,-5003,11704.53715445425
1735579308457,153,-116,945,964.3080420695453,9732,-4117,-6637,12478.432674017999
1735579308488,153,-116,945,964.3080420695453,9759,-4133,-8338,13484.880941261588
1735579308518,153,-116,945,964.3080420695453,9785,-4143,-10040,14618.901258302554
1735579308548,85,-96,950,958.6141037977691,9812,-4149,-11742,15854.466531548767
1735579308578,85,-96,950,958.6141037977691,9871,-4136,-13521,17244.14619515852
1735579308608,85,-96,950,958.6141037977691,9915,-4112,-15297,18687.267804577532
1735579308638,85,-96,950,958.6141037977691,9945,-4079,-17070,20172.411011081447
1735579308667,149,-80,990,1004.3410775229697,9916,-4053,17212,20273.30286361845
1735579308698,149,-80,990,1004.3410775229697,9870,-4042,15518,18829.84301580871
1735579308728,149,-80,990,1004.3410775229697,9829,-4039,13823,17435.541029747255
1735579308757,208,-111,982,1009.9054411181277,9783,-4048,12156,16120.22732469986
1735579308788,208,-111,982,1009.9054411181277,9736,-4073,10534,14911.20991066788
1735579308817,208,-111,982,1009.9054411181277,9702,-4107,8910,13797.983657042068
1735579308848,143,-117,943,960.930278428149,9687,-4145,7278,12805.79079947818
1735579308894,143,-117,943,960.930278428149,9740,-4166,5561,11964.442193433006
1735579308908,143,-117,943,960.930278428149,9788,-4177,3842,11314.29348214019
1735579308937,143,-117,943,960.930278428149,9830,-4178,2124,10890.177225371495
1735579308968,89,-106,957,966.9570828118485,9892,-4167,367,10740.122997433502
1735579308998,89,-106,957,966.9570828118485,9947,-4138,-1406,10864.745234012622
1735579309028,89,-106,957,966.9570828118485,9983,-4099,-3175,11249.12063229833
1735579309058,165,-98,995,1013.3380482346452,9976,-4060,-4908,11836.073673309067
1735579309088,165,-98,995,1013.3380482346452,9922,-4039,-6581,12572.556064699016
1735579309118,165,-98,995,1013.3380482346452,9873,-4028,-8254,13484.414299479233
1735579309148,211,-118,977,1006.4660948089607,9828,-4027,-9926,14537.255208601107
1735579309178,211,-118,977,1006.4660948089607,9771,-4043,-11544,15655.102235373617
1735579309208,211,-118,977,1006.4660948089607,9729,-4070,-13163,16866.621179121797
1735579309238,211,-118,977,1006.4660948089607,9700,-4104,-14784,18152.120316921657
1735579309268,114,-126,944,959.1704749417593,9746,-4125,-16497,19599.774233393608
1735579309298,114,-126,944,959.1704749417593,9811,-4127,17753,20699.199477274477
1735579309328,114,-126,944,959.1704749417593,9865,-4116,16005,19246.290707562326
1735579309358,106,-92,966,976.1434320836257,9901,-4097,14260,17837.11888170284
1735579309388,106,-92,966,976.1434320836257,9913,-4074,12512,16474.683274649014
1735579309418,106,-92,966,976.1434320836257,9917,-4049,10765,15186.392428750154
1735579309448,171,-100,1002,1021.3936557468918,9910,-4025,9024,13994.33103081387
1735579309478,171,-100,1002,1021.3936557468918,9854,-4018,7360,12938.904126702539
1735579309508,171,-100,1002,1021.3936557468918,9807,-4022,5695,12032.73692889527
1735579309538,171,-100,1002,1021.3936557468918,9769,-4036,4030,11312.097816055164
1735579309568,206,-116,970,998.3947115244551,9731,-4059,2389,10810.881693923026
1735579309598,206,-116,970,998.3947115244551,9702,-4091,759,10556.56980273422
1735579309628,206,-116,970,998.3947115244551,9686,-4128,-872,10565.00657832261
1735579309658,111,-119,943,956.9383470213742,9714,-4159,-2551,10870.449760704476
1735579309688,111,-119,943,956.9383470213742,9791,-4168,-4306,11479.439925362212
1735579309718,111,-119,943,956.9383470213742,9856,-4160,-6061,12295.611290212455
1735579309748,109,-90,954,964.4153669451767,9907,-4141,-7811,13278.11172569353
1735579309778,109,-90,954,964.4153669451767,9924,-4118,-9557,14379.845235606675
1735579309808,109,-90,954,964.4153669451767,9932,-4092,-11301,15591.718603155972
1735579309838,109,-90,954,964.4153669451767,9931,-4064,-13044,16890.434955915138
1735579309868,180,-100,1003,1023.9184537842846,9886,-4049,-14724,18191.304873482826
1735579309898,180,-100,1003,1023.9184537842846,9834,-4049,-16379,19528.788953747233
1735579309928,180,-100,1003,1023.9184537842846,9791,-4059,17964,20857.719386356697
1735579309958,209,-120,966,995.608858940096,9755,-4078,16318,19443.951064534183
1735579309988,209,-120,966,995.608858940096,9726,-4106,14693,18092.500131269862
1735579310018,209,-120,966,995.608858940096,9708,-4138,13066,16795.49534845579
1735579310048,109,-122,945,959.0568283475177,9706,-4172,11431,15565.33909042781
1735579310078,109,-122,945,959.0568283475177,9792,-4180,9671,14383.459423935537
1735579310108,109,-122,945,959.0568283475177,9864,-4170,7913,13315.515949447847
1735579310138,109,-122,945,959.0568283475177,9920,-4145,6157,12389.353251885266
1735579310168,106,-91,969,979.0188966511321,9946,-4118,4410,11633.096750220897
1735579310198,106,-91,969,979.0188966511321,9953,-4088,2664,11084.712400418875
1735579310228,106,-91,969,979.0188966511321,9950,-4056,920,10784.249440735317
1735579310258,184,-104,1005,1026.984420524479,9917,-4031,-787,10733.835241888148
1735579310288,184,-104,1005,1026.984420524479,9855,-4025,-2436,10920.42792201844
1735579310318,184,-104,1005,1026.984420524479,9803,-4031,-4085,11359.357156107031
1735579310348,193,-117,965,991.0413714875883,9762,-4047,-5738,12024.953097621628
1735579310378,193,-117,965,991.0413714875883,9737,-4070,-7385,12880.694624126449
1735579310408,193,-117,965,991.0413714875883,9723,-4098,-9034,13890.409965152216
1735579310438,193,-117,965,991.0413714875883,9717,-4127,-10684,15019.98914779901
1735579310467,105,-115,955,967.613042491677,9770,-4143,-12410,16328.669541637493
1735579310497,105,-115,955,967.613042491677,9835,-4139,-14168,17736.706853302843
1735579310528,105,-115,955,967.613042491677,9887,-4123,-15925,19192.64241838523
1735579310558,115,-87,977,987.5844267706939,9915,-4100,-17673,20674.916057870705
1735579310588,115,-87,977,987.5844267706939,9913,-4079,16589,19750.96784970296
1735579310617,115,-87,977,987.5844267706939,9907,-4058,14853,18309.222321005334
1735579310648,199,-100,1003,1027.428829651962,9891,-4039,13122,16921.355914937787
1735579310678,199,-100,1003,1027.428829651962,9819,-4045,11493,15648.125606602216
1735579310708,199,-100,1003,1027.428829651962,9762,-4064,9863,14459.996853388317
1735579310738,199,-100,1003,1027.428829651962,9720,-4093,8230,13377.74080328962
1735579310768,177,-111,955,977.5863133248133,9714,-4122,6569,12429.981536591275
1735579310828,177,-111,955,977.5863133248133,9724,-4149,4897,11651.222510964246
1735579310828,177,-111,955,977.5863133248133,9738,-4173,3224,11074.147777594446
1735579310858,90,-109,959,969.3616456204568,9784,-4190,1513,10750.438363155245
1735579310888,90,-109,959,969.3616456204568,9865,-4181,-263,10717.656226992915
1735579310918,90,-109,959,969.3616456204568,9929,-4156,-2038,10954.945047785497
1735579310948,141,-88,989,1002.8688847501452,9973,-4120,-3808,11442.726641845466
1735579310977,141,-88,989,1002.8688847501452,9948,-4092,-5517,12089.022168893562
1735579311008,141,-88,989,1002.8688847501452,9921,-4070,-7226,12930.824297004425
1735579311038,141,-88,989,1002.8688847501452,9894,-4053,-8933,13932.570975954151
1735579311067,215,-116,1002,1031.351055654669,9834,-4054,-10572,14996.988230974912
1735579311098,215,-116,1002,1031.351055654669,9778,-4072,-12184,16144.358890956308
1735579311128,215,-116,1002,1031.351055654669,9735,-4100,-13799,17377.93503267865
1735579311158,140,-119,953,970.551389674962,9732,-4127,-15453,18722.691099305142
1735579311188,140,-119,953,970.551389674962,9772,-4139,-17170,20184.949962781677
1735579311218,140,-119,953,970.551389674962,9808,-4143,17112,20153.953880070283
1735579311248,101,-103,959,969.7891523418892,9841,-4141,15396,18735.794031745758
1735579311278,101,-103,959,969.7891523418892,9888,-4127,13637,17342.79222040096
1735579311308,101,-103,959,969.7891523418892,9922,-4103,11881,16013.708315065565
1735579311338,101,-103,959,969.7891523418892,9944,-4073,10128,14766.477203449711
1735579311368,165,-93,1002,1019.7440855430347,9910,-4051,8429,13625.958388311627
1735579311398,165,-93,1002,1019.7440855430347,9862,-4043,6754,12618.296596609227
1735579311428,165,-93,1002,1019.7440855430347,9821,-4045,5079,11773.287858538073
1735579311458,200,-115,975,1001.9231507456049,9781,-4056,3418,11126.626667593373
1735579311488,200,-115,975,1001.9231507456049,9745,-4078,1784,10713.438523648698
1735579311518,200,-115,975,1001.9231507456049,9721,-4107,148,10554.01317035373
1735579311548,121,-117,944,958.8878975146156,9712,-4138,-1494,10661.989682981315
1735579311578,121,-117,944,958.8878975146156,9775,-4149,-3236,11101.194620400094
1735579311608,121,-117,944,958.8878975146156,9829,-4147,-4978,11772.312177308246
1735579311638,121,-117,944,958.8878975146156,9873,-4135,-6718,12637.479099883805
1735579311668,103,-97,960,970.3700325133707,9907,-4117,-8467,13667.056266804495
1735579311698,103,-97,960,970.3700325133707,9929,-4093,-10220,14825.184315886261
1735579311728,103,-97,960,970.3700325133707,9940,-4064,-11970,16081.06327330379
1735579311758,177,-101,1003,1023.4935270923798,9917,-4039,-13685,17376.41030247617
1735579311788,177,-101,1003,1023.4935270923798,9860,-4032,-15343,18678.444073316172
1735579311818,177,-101,1003,1023.4935270923798,9812,-4037,-17001,20040.127594404184
1735579311848,188,-122,958,983.8658445133666,9774,-4049,17337,20310.023289006836
1735579311877,188,-122,958,983.8658445133666,9754,-4067,15685,18912.96460103492
1735579311908,188,-122,958,983.8658445133666,9742,-4089,14032,17564.837289311847
1735579311938,106,-111,950,962.318554325957,9740,-4112,12375,16276.263975495114
1735579311968,106,-111,950,962.318554325957,9799,-4117,10618,15023.715053208378
1735579311998,106,-111,950,962.318554325957,9848,-4109,8863,13871.544758966105
1735579312028,106,-111,950,962.318554325957,9885,-4092,7109,12845.06013999156
1735579312058,130,-86,975,987.380878891221,9889,-4076,5379,11972.457475389087
1735579312088,130,-86,975,987.380878891221,9877,-4063,3658,11289.112542622648
1735579312118,130,-86,975,987.380878891221,9863,-4053,1938,10837.962077807802
1735579312148,205,-110,1003,1029.628088194956,9844,-4046,223,10645.383083759833
1735579312178,205,-110,1003,1029.628088194956,9787,-4060,-1399,10687.664384700709
1735579312208,205,-110,1003,1029.628088194956,9742,-4084,-3024,10987.729337765833
1735579312238,160,-117,960,980.2494580462669,9715,-4115,-4655,11531.846122802715
1735579312268,160,-117,960,980.2494580462669,9740,-4135,-6349,12340.001053484559
1735579312298,160,-117,960,980.2494580462669,9767,-4151,-8043,13315.965567693542
1735579312328,160,-117,960,980.2494580462669,9792,-4160,-9737,14422.136908239361
1735579312358,97,-103,954,964.4345493604011,9847,-4158,-11482,15687.214443616176
1735579312388,97,-103,954,964.4345493604011,9900,-4140,-13249,17049.504420950187
1735579312418,97,-103,954,964.4345493604011,9938,-4112,-15013,18467.879060682633
1735579312448,164,-88,1000,1017.1725517334804,9935,-4083,-16744,19893.13072394589
1735579312478,164,-88,1000,1017.1725517334804,9889,-4070,17578,20575.308138640354
1735579312508,164,-88,1000,1017.1725517334804,9847,-4066,15900,19139.116097667626
1735579312538,200,-106,990,1015.5471431696315,9810,-4071,14223,17751.13714667317
1735579312568,200,-106,990,1015.5471431696315,9768,-4090,12588,16449.91392074743
1735579312598,200,-106,990,1015.5471431696315,9737,-4117,10952,15221.864603260667
1735579312628,200,-106,990,1015.5471431696315,9719,-4149,9314,14086.296816409911
1735579312658,166,-118,949,970.6085719794567,9739,-4174,7638,13061.754897409459
1735579312688,166,-118,949,970.6085719794567,9772,-4190,5948,12183.053311875476
1735579312718,166,-118,949,970.6085719794567,9803,-4200,4257,11483.068318180467
1735579312748,88,-109,946,956.3163702457466,9853,-4200,2535,11006.717676037666
1735579312778,88,-109,946,956.3163702457466,9925,-4178,756,10795.037980479736
1735579312808,88,-109,946,956.3163702457466,9978,-4141,-1019,10851.116348099858
1735579312838,138,-90,981,994.7386591462101,10009,-4094,-2788,11167.536030835092
1735579312868,138,-90,981,994.7386591462101,9974,-4060,-4494,11668.775085672018
1735579312958,138,-90,981,994.7386591462101,9937,-4032,-6200,12387.130135749765
1735579312959,138,-90,981,994.7386591462101,9900,-4013,-7905,13289.213445497819
1735579312959,196,-108,1005,1029.6140053437503,9837,-4010,-9560,14291.265479305883
1735579312988,196,-108,1005,1029.6140053437503,9778,-4024,-11194,15398.295230316893
1735579313018,196,-108,1005,1029.6140053437503,9732,-4049,-12829,16603.899120387356
1735579313048,166,-115,956,977.0962081596674,9714,-4078,-14485,17911.088883705535
1735579313078,166,-115,956,977.0962081596674,9723,-4102,-16167,19306.34667667604
1735579313108,166,-115,956,977.0962081596674,9737,-4124,-17851,20747.88533802903
1735579313138,91,-105,943,953.1815147179472,9756,-4144,16462,19579.31857854098
1735579313168,91,-105,943,953.1815147179472,9827,-4143,14688,18151.35592731298
1735579313198,91,-105,943,953.1815147179472,9884,-4127,12917,16780.180988296877
1735579313257,91,-105,943,953.1815147179472,9926,-4101,11149,15480.435329796122
1735579313258,142,-93,993,1007.4035934023663,9919,-4078,9425,14277.509236558035
1735579313288,142,-93,993,1007.4035934023663,9896,-4062,7721,13192.5926564872
1735579313318,142,-93,993,1007.4035934023663,9872,-4051,6017,12250.35811721437
1735579313348,212,-113,993,1021.6467099736582,9830,-4049,4347,11485.630587825815
1735579313378,212,-113,993,1021.6467099736582,9772,-4067,2732,10931.436181947915
1735579313408,212,-113,993,1021.6467099736582,9728,-4096,1115,10613.878885685477
1735579313438,129,-118,945,961.0358994335227,9702,-4130,-508,10556.693042804645
1735579313468,129,-118,945,961.0358994335227,9758,-4146,-2240,10836.303797882376
1735579313498,129,-118,945,961.0358994335227,9807,-4150,-3972,11365.585466662067
1735579313528,129,-118,945,961.0358994335227,9848,-4144,-5703,12111.153908690947
1735579313558,101,-101,956,966.6116076273862,9889,-4131,-7450,13052.202189668991
1735579313588,101,-101,956,966.6116076273862,9920,-4108,-9205,14142.633736330727
1735579313618,101,-101,956,966.6116076273862,9939,-4079,-10958,15346.000325817799
1735579313648,172,-106,995,1015.305372782002,9925,-4052,-12677,16602.128116599994
1735579313678,172,-106,995,1015.305372782002,9877,-4041,-14341,17875.936087377355
1735579313708,172,-106,995,1015.305372782002,9835,-4039,-16005,19214.597862042287
1735579313738,196,-116,966,992.4857681599268,9799,-4046,-17669,20605.43806862645
1735579313768,196,-116,966,992.4857681599268,9761,-4063,16693,19759.58853316536
1735579313797,196,-116,966,992.4857681599268,9734,-4087,15055,18387.69561418722
1735579313828,196,-116,966,992.4857681599268,9717,-4116,13415,17068.209337830376
1735579313858,108,-125,946,960.3150524697611,9770,-4132,11691,15786.253672103461
1735579313888,108,-125,946,960.3150524697611,9837,-4128,9935,14577.763134308363
1735579313918,108,-125,946,960.3150524697611,9891,-4110,8180,13477.2542084803
1735579313948,115,-95,974,985.3557733123605,9921,-4087,6437,12512.584824887303
1735579313978,115,-95,974,985.3557733123605,9921,-4065,4703,11707.63319377576
1735579314008,115,-95,974,985.3557733123605,9916,-4043,2971,11113.043957440284
1735579314038,184,-99,1012,1033.34456983138,9902,-4022,1243,10759.699670529842
1735579314068,184,-99,1012,1033.34456983138,9837,-4020,-404,10634.386912276608
1735579314098,184,-99,1012,1033.34456983138,9782,-4031,-2054,10777.541510010527
1735579314127,184,-99,1012,1033.34456983138,9741,-4053,-3705,11182.169512218996
1735579314157,198,-127,971,999.0865828345409,9720,-4080,-5349,11821.023686635604
1735579314188,198,-127,971,999.0865828345409,9714,-4111,-6990,12653.940769578463
1735579314218,198,-127,971,999.0865828345409,9716,-4142,-8633,13641.31624880825
1735579314248,107,-116,948,961.0457845493106,9752,-4165,-10319,14796.299875306664
1735579314278,107,-116,948,961.0457845493106,9823,-4164,-12079,16116.217484261002
1735579314308,107,-116,948,961.0457845493106,9881,-4149,-13837,17501.740799131952
1735579314338,117,-94,971,982.5304066541656,9925,-4124,-15590,18935.709677749077
1735579314368,117,-94,971,982.5304066541656,9934,-4100,-17326,20388.345494424015
1735579314398,117,-94,971,982.5304066541656,9934,-4075,16939,20055.41577729068
1735579314428,117,-94,971,982.5304066541656,9928,-4049,15207,18606.78462281971
1735579314458,190,-103,1005,1027.9756806461912,9874,-4038,13540,17237.54390857352
1735579314488,190,-103,1005,1027.9756806461912,9815,-4044,11900,15946.728849516443
1735579314518,190,-103,1005,1027.9756806461912,9768,-4061,10258,14735.403252032162
1735579314548,171,-112,953,974.6763565409802,9743,-4082,8602,13622.891653389892
1735579314578,171,-112,953,974.6763565409802,9740,-4103,6927,12636.67432515375
1735579314608,171,-112,953,974.6763565409802,9744,-4123,5251,11811.759648756826
1735579314638,91,-114,948,959.1564001767387,9755,-4143,3571,11183.761218838677
1735579314668,91,-114,948,959.1564001767387,9831,-4141,1798,10818.005638748762
1735579314698,91,-114,948,959.1564001767387,9893,-4123,27,10717.80327305927
1735579314728,91,-114,948,959.1564001767387,9938,-4093,-1740,10887.795598742658
1735579314757,130,-89,990,1002.457480395054,9934,-4065,-3473,11281.414361683555
1735579314788,130,-89,990,1002.457480395054,9910,-4044,-5189,11894.862630564508
1735579314818,130,-89,990,1002.457480395054,9885,-4027,-6905,12712.552025458932
1735579314848,211,-104,1005,1032.163746699137,9835,-4022,-8583,13659.121421233505
1735579314878,211,-104,1005,1032.163746699137,9763,-4040,-10198,14684.582833706922
1735579314908,211,-104,1005,1032.163746699137,9708,-4071,-11815,15824.428267713181
1735579314938,146,-116,950,968.1280906987463,9673,-4111,-13440,17061.677819018856
1735579314968,146,-116,950,968.1280906987463,9714,-4137,-15150,18466.159996057653
1735579314998,146,-116,950,968.1280906987463,9755,-4154,-16861,19917.55662725727
1735579315028,146,-116,950,968.1280906987463,9792,-4164,17427,20418.679903460947
1735579315058,89,-106,946,956.0716500346614,9855,-4160,15674,18976.324749539886
1735579315088,89,-106,946,956.0716500346614,9914,-4140,13901,17568.858727874158
1735579315118,89,-106,946,956.0716500346614,9956,-4107,12132,16222.663437302766
1735579315148,157,-91,992,1008.4612040133225,9957,-4073,10394,14958.8239510999
1735579315178,157,-91,992,1008.4612040133225,9911,-4053,8709,13802.224856884488
1735579315208,157,-91,992,1008.4612040133225,9869,-4043,7025,12770.81183793732
1735579315238,204,-115,985,1012.4554311178345,9829,-4042,5342,11894.703401094119
1735579315268,204,-115,985,1012.4554311178345,9778,-4056,3715,11218.80764609145
1735579315298,204,-115,985,1012.4554311178345,9739,-4081,2087,10763.747070606963
1735579315358,204,-115,985,1012.4554311178345,9713,-4112,457,10557.45054452068
1735579315359,130,-127,952,969.1919314563035,9751,-4132,-1243,10663.04243637809
1735579315388,130,-127,952,969.1919314563035,9805,-4138,-2972,11049.608726104287
1735579315418,130,-127,952,969.1919314563035,9851,-4132,-4701,11671.119312216802
1735579315448,110,-100,958,969.4658323014793,9888,-4118,-6434,12495.07198858814
1735579315478,110,-100,958,969.4658323014793,9911,-4098,-8179,13487.682009893324
1735579315508,110,-100,958,969.4658323014793,9924,-4073,-9922,14612.364250866456
1735579315538,169,-95,1005,1023.5287001349791,9926,-4047,-11662,15840.010385097607
1735579315568,169,-95,1005,1023.5287001349791,9873,-4038,-13331,17073.287146885337
1735579315598,169,-95,1005,1023.5287001349791,9827,-4039,-15000,18381.606295424783
1735579315628,169,-95,1005,1023.5287001349791,9790,-4049,-16671,19752.486982656133
1735579315658,207,-104,976,1003.1156463738366,9744,-4069,17687,20599.326833661336
1735579315688,207,-104,976,1003.1156463738366,9705,-4100,16059,19206.470420147478
1735579315718,207,-104,976,1003.1156463738366,9680,-4139,14428,17860.596434609903
1735579315748,110,-121,954,967.9137358256675,9705,-4173,12750,16557.881929763844
1735579315778,110,-121,954,967.9137358256675,9789,-4184,10994,15303.542498389057
1735579315808,110,-121,954,967.9137358256675,9859,-4178,9239,14142.65484270899
1735579315838,113,-84,968,978.1865875179438,9917,-4158,7488,13103.663495374109
1735579315868,113,-84,968,978.1865875179438,9930,-4134,5745,12194.2560658697
1735579315898,113,-84,968,978.1865875179438,9935,-4108,4004,11472.223193435526
1735579315928,185,-99,1000,1021.7759049811265,9928,-4082,2268,10971.40519714772
1735579315958,185,-99,1000,1021.7759049811265,9870,-4075,619,10696.059367823273
1735579315988,185,-99,1000,1021.7759049811265,9821,-4079,-1030,10684.15565217954
1735579316018,185,-99,1000,1021.7759049811265,9782,-4092,-2681,10937.081374845851
1735579316048,193,-114,963,988.7436472615134,9760,-4110,-4334,11442.607045599356
1735579316078,193,-114,963,988.7436472615134,9749,-4131,-5984,12162.08937641884
1735579316108,193,-114,963,988.7436472615134,9744,-4155,-7636,13058.256277160439
1735579316138,100,-113,946,957.9587673798909,9750,-4178,-9292,14101.753366159826
1735579316168,100,-113,946,957.9587673798909,9831,-4177,-11062,15377.377344657963
1735579316198,100,-113,946,957.9587673798909,9897,-4160,-12829,16728.402493962178
1735579316228,134,-83,968,980.7492034154297,9944,-4131,-14591,18134.09986737693
1735579316258,134,-83,968,980.7492034154297,9927,-4108,-16306,19527.074256016953
1735579316288,134,-83,968,980.7492034154297,9907,-4089,17979,20931.149299548746
1735579316318,134,-83,968,980.7492034154297,9886,-4075,16266,19465.90293307762
1735579316348,186,-106,1010,1032.4398287551678,9843,-4071,14598,18070.95166282064
1735579316378,186,-106,1010,1032.4398287551678,9803,-4080,12948,16745.02651535673
1735579316408,186,-106,1010,1032.4398287551678,9772,-4096,11297,15488.428228842331
1735579316438,199,-110,960,986.5601856957334,9749,-4117,9647,14319.821891350464
1735579316468,199,-110,960,986.5601856957334,9732,-4144,8004,13264.560904907483
1735579316498,199,-110,960,986.5601856957334,9725,-4173,6359,12346.110116145896
1735579316528,102,-120,954,966.9126123905924,9730,-4202,4709,11597.602553976403
1735579316558,102,-120,954,966.9126123905924,9823,-4203,2940,11081.522368339109
1735579316588,102,-120,954,966.9126123905924,9900,-4185,1174,10812.145994204851
1735579316618,102,-120,954,966.9126123905924,9957,-4152,-589,10804.067474798554
1735579316648,113,-98,977,988.3835287984114,9979,-4117,-2333,11044.139577169422
1735579316678,113,-98,977,988.3835287984114,9980,-4081,-4071,11525.10312318289
1735579316708,113,-98,977,988.3835287984114,9971,-4045,-5807,12227.187534343293
1735579316738,195,-112,1005,1029.851445597859,9930,-4017,-7503,13078.08082250603
1735579316768,195,-112,1005,1029.851445597859,9858,-4011,-9136,14026.217629853032
1735579316798,195,-112,1005,1029.851445597859,9798,-4020,-10770,15104.77090193691
1735579316828,197,-111,966,992.1118888512525,9753,-4039,-12408,16290.886838966135
1735579316858,197,-111,966,992.1118888512525,9722,-4064,-14052,17563.94272365974
1735579316888,197,-111,966,992.1118888512525,9702,-4095,-15698,18903.04295609572
1735579316918,197,-111,966,992.1118888512525,9694,-4129,-17346,20295.467301838606
1735579316948,96,-107,945,955.8713302531884,9749,-4149,16920,19963.556847415744
1735579316978,96,-107,945,955.8713302531884,9820,-4149,15148,18523.188305472682
1735579317008,96,-107,945,955.8713302531884,9876,-4134,13378,17134.64957330613
1735579317038,122,-95,979,991.1357122009074,9908,-4113,11626,15819.263857714745
1735579317068,122,-95,979,991.1357122009074,9910,-4094,9898,14592.44119398807
1735579317098,122,-95,979,991.1357122009074,9907,-4074,8172,13473.221923504414
1735579317127,188,-101,1000,1022.5189484796847,9896,-4056,6449,12488.857153478857
1735579317158,188,-101,1000,1022.5189484796847,9837,-4056,4805,11675.004496787142
1735579317188,188,-101,1000,1022.5189484796847,9788,-4068,3159,11060.418120487127
1735579317218,188,-101,1000,1022.5189484796847,9751,-4089,1512,10681.201524173204
1735579317248,189,-114,957,982.1232101930999,9737,-4112,-141,10570.600455981676
1735579317278,189,-114,957,982.1232101930999,9733,-4137,-1797,10727.314062709267
1735579317308,189,-114,957,982.1232101930999,9736,-4162,-3454,11137.416935717187
1735579317338,96,-115,945,956.7998745819316,9773,-4180,-5152,11812.156153725704
1735579317368,96,-115,945,956.7998745819316,9852,-4174,-6921,12743.014596240562
1735579317398,96,-115,945,956.7998745819316,9914,-4151,-8688,13820.258355038086
1735579317428,119,-89,974,985.2705212275459,9959,-4118,-10450,15011.399168631817
1735579317458,119,-89,974,985.2705212275459,9953,-4088,-12183,16254.213053851607
1735579317488,119,-89,974,985.2705212275459,9940,-4059,-13913,17574.1472054834
1735579317518,119,-89,974,985.2705212275459,9922,-4033,-15643,18958.233620250594
1735579317548,189,-111,1004,1027.6468264924483,9868,-4023,-17309,20326.422065872783
1735579317578,189,-111,1004,1027.6468264924483,9813,-4029,17048,20078.897230674796
1735579317608,189,-111,1004,1027.6468264924483,9770,-4045,15405,18684.992641154557
1735579317638,187,-112,960,984.4353711646082,9741,-4067,13755,17338.615717524855
1735579317668,187,-112,960,984.4353711646082,9726,-4092,12100,16054.580031878753
1735579317698,187,-112,960,984.4353711646082,9719,-4119,10443,14848.615120609733
1735579317728,97,-122,953,965.6614313515892,9724,-4147,8782,13743.264131930231
1735579317758,97,-122,953,965.6614313515892,9810,-4151,7013,12753.394450106214
1735579317788,97,-122,953,965.6614313515892,9882,-4138,5246,11928.85090861647
1735579317818,97,-122,953,965.6614313515892,9936,-4110,3482,11302.235177167391
1735579317848,131,-83,976,988.243897021378,9934,-4083,1752,10882.313586733291
1735579317878,131,-83,976,988.243897021378,9909,-4063,36,10709.694019905517
1735579317908,131,-83,976,988.243897021378,9883,-4049,-1679,10811.435196124517
1735579317938,199,-114,1003,1028.8858051309678,9844,-4043,-3363,11160.643081830007
1735579317968,199,-114,1003,1028.8858051309678,9794,-4055,-4995,11718.169054933454
1735579317998,199,-114,1003,1028.8858051309678,9756,-4076,-6628,12478.930082342797
1735579318029,172,-126,951,974.6081263769556,9732,-4103,-8265,13411.06476011506
1735579318058,172,-126,951,974.6081263769556,9748,-4124,-9940,14520.140495188054
1735579318087,172,-126,951,974.6081263769556,9767,-4141,-11616,15731.294479476252
1735579318118,172,-126,951,974.6081263769556,9787,-4154,-13293,17021.895722862362
1735579318148,87,-113,950,960.6445752722492,9848,-4151,-15041,18451.167605330564
1735579318178,87,-113,950,960.6445752722492,9911,-4129,-16818,19952.98689419707
1735579318208,87,-113,950,960.6445752722492,9955,-4094,17408,20467.079053934394
1735579318238,139,-87,988,1001.5158510977247,9962,-4056,15662,18999.758524781308
1735579318268,139,-87,988,1001.5158510977247,9922,-4031,13957,17592.410124823717
1735579318298,139,-87,988,1001.5158510977247,9885,-4015,12252,16246.382797410628
1735579318358,206,-107,990,1016.850529822353,9844,-4007,10551,14976.113848392046
1735579318358,206,-107,990,1016.850529822353,9773,-4022,8932,13837.219265444917
1735579318388,206,-107,990,1016.850529822353,9718,-4050,7310,12817.102792753127
1735579318418,206,-107,990,1016.850529822353,9679,-4088,5686,11946.772827839324
1735579318448,152,-126,954,974.2155818914005,9703,-4119,4003,11275.565573398082
1735579318478,152,-126,954,974.2155818914005,9745,-4139,2299,10834.285717111212
1735579318508,152,-126,954,974.2155818914005,9785,-4150,594,10645.260025006435
1735579318538,92,-97,941,950.4493674047029,9832,-4152,-1130,10732.391532179583
1735579318568,92,-97,941,950.4493674047029,9883,-4138,-2899,11099.591614109053
1735579318598,92,-97,941,950.4493674047029,9921,-4114,-4665,11709.545764033719
1735579318658,151,-92,1008,1023.3909321466552,9943,-4083,-6426,12523.08324654915
1735579318658,151,-92,1008,1023.3909321466552,9907,-4066,-8117,13437.510706972478
1735579318688,151,-92,1008,1023.3909321466552,9873,-4056,-9809,14496.335605938488
1735579318718,151,-92,1008,1023.3909321466552,9843,-4053,-11500,15670.400696855202
1735579318748,215,-104,987,1015.4851057499563,9784,-4064,-13135,16875.158577032693
1735579318778,215,-104,987,1015.4851057499563,9729,-4092,-14748,18135.63919469066
1735579318808,215,-104,987,1015.4851057499563,9690,-4130,-16363,19460.23558439106
1735579318838,121,-114,947,961.4811490611763,9702,-4165,17969,20841.328892371523
1735579318868,121,-114,947,961.4811490611763,9771,-4178,16224,19394.491511766944
1735579318898,121,-114,947,961.4811490611763,9830,-4178,14479,17992.387973807145
1735579318928,102,-97,958,968.2855983644495,9880,-4167,12737,16649.608343741904
1735579318958,102,-97,958,968.2855983644495,9919,-4147,10981,15367.710662294498
1735579318988,102,-97,958,968.2855983644495,9945,-4119,9227,14177.683696570466
1735579319018,102,-97,958,968.2855983644495,9959,-4086,7475,13105.445509405623
1735579319048,154,-98,1003,1019.474864820119,9932,-4059,5769,12182.014037095836
1735579319078,154,-98,1003,1019.474864820119,9893,-4043,4081,11439.923907089593
1735579319108,154,-98,1003,1019.474864820119,9857,-4035,2394,10916.63455466015
1735579319138,207,-120,977,1005.8717612101456,9814,-4037,731,10637.026182162004
1735579319167,207,-120,977,1005.8717612101456,9767,-4055,-891,10612.784507375998
1735579319198,207,-120,977,1005.8717612101456,9732,-4081,-2516,10848.808275566493
1735579319258,123,-125,936,952.2867215287631,9713,-4112,-4148,11333.879168228326
1735579319259,123,-125,936,952.2867215287631,9774,-4123,-5885,12131.093520371525
1735579319288,123,-125,936,952.2867215287631,9826,-4121,-7622,13100.679409862681
1735579319318,123,-125,936,952.2867215287631,9868,-4108,-9358,14206.52146023086
1735579319348,105,-94,959,969.2997472402435,9895,-4092,-11102,15424.327959428249
1735579319378,105,-94,959,969.2997472402435,9909,-4072,-12850,16729.972056163155
1735579319407,105,-94,959,969.2997472402435,9914,-4048,-14597,18103.759526683953
1735579319437,177,-97,1003,1023.1065438164297,9889,-4030,-16310,19494.85370552957
1735579319467,177,-97,1003,1023.1065438164297,9832,-4029,-17967,20873.767125269937
1735579319527,177,-97,1003,1023.1065438164297,9785,-4040,16374,19498.09480436486
1735579319528,206,-116,971,999.3662992116555,9749,-4060,14713,18110.741840134546
1735579319557,206,-116,971,999.3662992116555,9718,-4088,13082,16801.4877912642
1735579319587,206,-116,971,999.3662992116555,9699,-4122,11449,15560.88320115539
1735579319617,206,-116,971,999.3662992116555,9692,-4159,9815,14407.16384303309
1735579319647,107,-113,948,960.6882949219273,9751,-4180,8092,13342.970621267215
1735579319677,107,-113,948,960.6882949219273,9824,-4180,6332,12412.799845320958
1735579319707,107,-113,948,960.6882949219273,9883,-4165,4574,11659.433519686967
1735579319737,124,-81,974,985.1969346277931,9918,-4144,2826,11114.21324251069
1735579319767,124,-81,974,985.1969346277931,9918,-4124,1094,10796.802119146207
1735579319797,124,-81,974,985.1969346277931,9914,-4104,-636,10748.707271109397
1735579319827,185,-107,998,1020.626278321306,9899,-4085,-2361,10965.93575578482
1735579319857,185,-107,998,1020.626278321306,9854,-4083,-4010,11395.275556124125
1735579319887,185,-107,998,1020.626278321306,9816,-4090,-5660,12046.474837063332
1735579319917,191,-118,970,995.6430083117141,9788,-4102,-7314,12888.98537511778
1735579319947,191,-118,970,995.6430083117141,9774,-4118,-8966,13888.058035593025
1735579319977,191,-118,970,995.6430083117141,9766,-4136,-10619,15008.14488869294
1735579320007,191,-118,970,995.6430083117141,9764,-4156,-12273,16224.504953926946
1735579320037,90,-109,946,956.5024830077547,9821,-4159,-14012,17609.24376570442
1735579320067,90,-109,946,956.5024830077547,9887,-4143,-15788,19083.45257022429
1735579320158,90,-109,946,956.5024830077547,9935,-4113,-17561,20591.49618167655
1735579320158,121,-88,984,995.3094996030129,9967,-4075,16671,19846.131990894348
1735579320159,121,-88,984,995.3094996030129,9947,-4043,14943,18400.595289283443
1735579320187,121,-88,984,995.3094996030129,9922,-4016,13217,17007.74614697668
1735579320217,203,-109,1000,1026.2017345532017,9890,-3995,11497,15682.89303668172
1735579320247,203,-109,1000,1026.2017345532017,9814,-4001,9874,14485.112115548156
1735579320277,203,-109,1000,1026.2017345532017,9752,-4020,8249,13390.590166232405
1735579320307,203,-109,1000,1026.2017345532017,9706,-4052,6623,12429.371223034575
1735579320337,177,-122,951,974.9943589580404,9700,-4082,4962,11635.040524209617
1735579320367,177,-122,951,974.9943589580404,9711,-4111,3290,11046.625819679057
1735579320397,177,-122,951,974.9943589580404,9728,-4137,1616,10693.933280135985
1735579320427,87,-113,943,953.7227060314754,9774,-4153,-95,10620.146420836203
1735579320457,87,-113,943,953.7227060314754,9853,-4146,-1874,10852.778492165036
1735579320487,87,-113,943,953.7227060314754,9915,-4122,-3651,11341.424513701972
1735579320517,136,-85,988,1000.9320656268336,9958,-4087,-5422,12052.52741129428
1735579320548,136,-85,988,1000.9320656268336,9927,-4064,-7131,12880.705958913897
1735579320578,136,-85,988,1000.9320656268336,9897,-4047,-8840,13873.514983593739
1735579320608,136,-85,988,1000.9320656268336,9867,-4036,-10548,14996.909314922192
1735579320638,192,-112,997,1021.4778509590896,9818,-4038,-12205,16175.926341325865
1735579320667,192,-112,997,1021.4778509590896,9774,-4053,-13843,17423.734789074355
1735579320697,192,-112,997,1021.4778509590896,9741,-4076,-15483,18740.975054676317
1735579320727,175,-109,953,975.0461527538068,9728,-4102,-17138,20128.87060915242
1735579320757,175,-109,953,975.0461527538068,9731,-4125,17186,20175.891107953572
1735579320787,175,-109,953,975.0461527538068,9739,-4148,15510,18778.022393212763
1735579320817,93,-105,948,958.3204057099066,9754,-4169,13832,17431.15891155835
1735579320847,93,-105,948,958.3204057099066,9830,-4168,12058,16105.790511489959
1735579320877,93,-105,948,958.3204057099066,9891,-4152,10286,14861.789293352265
1735579320907,93,-105,948,958.3204057099066,9936,-4123,8517,13720.878761945241
1735579320937,138,-87,990,1003.3508857822372,9933,-4098,6790,12710.71174246352
1735579320967,138,-87,990,1003.3508857822372,9911,-4079,5081,11860.974791306151
1735579320998,138,-87,990,1003.3508857822372,9888,-4065,3373,11210.43701199913
1735579321027,207,-107,998,1024.8424269125474,9845,-4060,1697,10783.665146878402
1735579321058,207,-107,998,1024.8424269125474,9785,-4074,75,10599.496497475717
1735579321088,207,-107,998,1024.8424269125474,9739,-4099,-1548,10679.242763417264
1735579321117,155,-111,946,965.0191707940314,9711,-4131,-3179,11021.557194879497
1735579321147,155,-111,946,965.0191707940314,9742,-4152,-4880,11660.19159362315
1735579321177,155,-111,946,965.0191707940314,9773,-4167,-6581,12497.39888936894
1735579321207,155,-111,946,965.0191707940314,9801,-4175,-8283,13494.380867605598
1735579321237,83,-110,950,959.9421857591217,9865,-4168,-10038,14678.27963352654
1735579321267,83,-110,950,959.9421857591217,9930,-4142,-11817,15981.318875487092
1735579321297,83,-110,950,959.9421857591217,9975,-4103,-13592,17351.590647545832
1735579321327,152,-88,998,1013.3370613966509,9976,-4062,-15335,18739.86779569162
1735579321357,152,-88,998,1013.3370613966509,9928,-4038,-17026,20118.531357929685
1735579321387,152,-88,998,1013.3370613966509,9882,-4024,17282,20310.44125566946
1735579321417,211,-102,1001,1028.0690638279123,9837,-4020,15594,18870.606905979468
1735579321447,211,-102,1001,1028.0690638279123,9762,-4038,13979,17521.83006994418
1735579321477,211,-102,1001,1028.0690638279123,9705,-4070,12362,16234.868924632561
1735579321508,211,-102,1001,1028.0690638279123,9665,-4112,10743,15024.407409279076
1735579321538,143,-117,957,974.6727655987931,9694,-4145,9053,13896.455303421804
1735579321567,143,-117,957,974.6727655987931,9744,-4166,7335,12888.107580246216
1735579321597,143,-117,957,974.6727655987931,9790,-4176,5618,12035.156833211606
1735579321627,89,-110,956,966.414507341441,9846,-4175,3882,11377.35755788663
1735579321657,89,-110,956,966.414507341441,9912,-4156,2109,10952.988678894906
1735579321687,89,-110,956,966.414507341441,9961,-4124,339,10786.279154555568
1735579321718,153,-94,997,1013.0419537215623,9990,-4083,-1425,10885.844661761439
1735579321746,153,-94,997,1013.0419537215623,9946,-4055,-3116,11183.71123554252
1735579321777,153,-94,997,1013.0419537215623,9904,-4036,-4807,11725.432230839084
1735579321807,153,-94,997,1013.0419537215623,9865,-4026,-6498,12480.020232355395
1735579321837,219,-113,993,1023.1221823418746,9799,-4033,-8130,13355.987047013785
1735579321867,219,-113,993,1023.1221823418746,9738,-4058,-9738,14357.041895878134
1735579321897,219,-113,993,1023.1221823418746,9693,-4093,-11349,15476.003973894552
1735579321927,132,-118,950,966.3581116749629,9695,-4128,-13004,16737.306384242358
1735579321957,132,-118,950,966.3581116749629,9749,-4145,-14732,18145.408510143825
1735579321987,132,-118,950,966.3581116749629,9797,-4151,-16460,19599.581883295366
1735579322017,104,-102,967,977.9105276046474,9841,-4149,17812,20768.40932763027
1735579322047,104,-102,967,977.9105276046474,9888,-4136,16055,19303.939105788744
1735579322077,104,-102,967,977.9105276046474,9923,-4114,14301,17886.014816051116
1735579322107,104,-102,967,977.9105276046474,9946,-4085,12549,16525.360570952755
1735579322137,164,-87,1008,1024.953169661912,9910,-4063,10852,15247.359541901018
1735579322167,164,-87,1008,1024.953169661912,9860,-4055,9178,14067.633383053455
1735579322197,164,-87,1008,1024.953169661912,9817,-4058,7502,13004.647515407712
1735579322227,207,-116,974,1002.487406404689,9776,-4071,5844,12095.269860569462
1735579322257,207,-116,974,1002.487406404689,9741,-4096,4218,11377.865397340574
1735579322286,207,-116,974,1002.487406404689,9718,-4127,2589,10870.81294108219
1735579322317,128,-117,955,970.6173293322142,9711,-4161,954,10607.900734829676
1735579322347,128,-117,955,970.6173293322142,9776,-4174,-781,10658.443272823662
1735579322377,128,-117,955,970.6173293322142,9832,-4174,-2517,10973.868461030504
1735579322407,128,-117,955,970.6173293322142,9877,-4162,-4252,11530.692823937337
1735579322437,104,-94,963,973.1500398191432,9914,-4144,-5999,12306.426491878135
1735579322467,104,-94,963,973.1500398191432,9937,-4117,-7752,13258.475100855301
1735579322498,104,-94,963,973.1500398191432,9950,-4086,-9503,14352.870967161936
1735579322528,169,-95,998,1016.6562840999902,9929,-4059,-11222,15523.975199670991
1735579322558,169,-95,998,1016.6562840999902,9875,-4049,-12889,16734.286569794363
1735579322587,169,-95,998,1016.6562840999902,9829,-4050,-14556,18024.674116332866
1735579322617,195,-116,969,995.2095256778846,9790,-4059,-16225,19379.633794269695
1735579322647,195,-116,969,995.2095256778846,9757,-4078,-17866,20761.095563577564
1735579322677,195,-116,969,995.2095256778846,9734,-4102,16491,19583.928129974334
1735579322708,195,-116,969,995.2095256778846,9722,-4130,14847,18221.075517103814
1735579322738,131,-113,943,958.7382333045866,9757,-4148,13141,16884.63307270845
1735579322768,131,-113,943,958.7382333045866,9803,-4152,11410,15605.320022351352
1735579322797,131,-113,943,958.7382333045866,9842,-4147,9680,14414.054703656428
1735579322827,92,-102,962,971.7571713139039,9881,-4136,7940,13333.5763019529
1735579322857,92,-102,962,971.7571713139039,9923,-4113,6177,12391.046243154773
1735579322887,92,-102,962,971.7571713139039,9951,-4082,4416,11626.95923274869
1735579322917,158,-96,1000,1016.9464096008206,9962,-4046,2658,11075.943481257025
1735579322947,158,-96,1000,1016.9464096008206,9912,-4024,974,10741.92701520542
1735579322977,158,-96,1000,1016.9464096008206,9865,-4012,-708,10673.12667403512
1735579323007,158,-96,1000,1016.9464096008206,9825,-4010,-2393,10878.2891118043
1735579323037,217,-107,988,1017.1931969886547,9762,-4026,-4025,11300.70550894943
1735579323067,217,-107,988,1017.1931969886547,9705,-4058,-5638,11934.883032522774
1735579323097,217,-107,988,1017.1931969886547,9665,-4101,-7252,12760.169669718345
1735579323127,132,-131,948,966.0688381269732,9678,-4141,-8912,13792.581665518606
1735579323158,132,-131,948,966.0688381269732,9751,-4159,-10644,15022.45046588605
1735579323188,132,-131,948,966.0688381269732,9815,-4163,-12375,16334.17947128046
1735579323218,96,-90,958,966.9953464210673,9871,-4154,-14104,17709.18329568024
1735579323246,96,-90,958,966.9953464210673,9908,-4134,-15869,19159.425382823985
1735579323277,96,-90,958,966.9953464210673,9934,-4106,-17632,20650.20619751774
1735579323307,96,-90,958,966.9953464210673,9947,-4074,16607,19782.13168493224
1735579323336,167,-91,1002,1019.889209669364,9910,-4052,14906,18352.537699184817
1735579323367,167,-91,1002,1019.889209669364,9861,-4044,13231,16989.77981022709
1735579323397,167,-91,1002,1019.889209669364,9819,-4046,11555,15693.97661524956
1735579323427,218,-112,984,1014.0631144065935,9773,-4060,9904,14494.286633015094
1735579323457,218,-112,984,1014.0631144065935,9724,-4089,8292,13417.651098459819
1735579323487,218,-112,984,1014.0631144065935,9691,-4127,6679,12472.235204645556
1735579323517,122,-117,942,957.0459759071139,9676,-4169,5058,11687.125437848264
1735579323548,122,-117,942,957.0459759071139,9752,-4187,3314,11118.231379135803
1735579323577,122,-117,942,957.0459759071139,9818,-4190,1570,10789.537710207976
1735579323607,122,-117,942,957.0459759071139,9873,-4179,-171,10722.378980431535
1735579323637,92,-95,956,965.1036213795905,9922,-4158,-1930,10929.773465173008
1735579323667,92,-95,956,965.1036213795905,9957,-4127,-3698,11395.138524827156
1735579323697,92,-95,956,965.1036213795905,9977,-4088,-5462,12086.592447832432
1735579323728,180,-91,1011,1030.9228875139013,9951,-4056,-7183,12925.518403530281
1735579323758,180,-91,1011,1030.9228875139013,9884,-4044,-8839,13862.731080129917
1735579323788,180,-91,1011,1030.9228875139013,9827,-4046,-10496,14936.735285864846
1735579323817,212,-118,972,1001.8243358992634,9779,-4059,-12154,16119.058223109687
1735579323847,212,-118,972,1001.8243358992634,9738,-4084,-13775,17356.794778990734
1735579323877,212,-118,972,1001.8243358992634,9710,-4116,-15398,18663.43912573457
1735579323907,111,-124,946,960.5274592639192,9700,-4152,-17029,20032.87161142905
1735579323937,111,-124,946,960.5274592639192,9783,-4163,17213,20231.78259570817
1735579323967,111,-124,946,960.5274592639192,9854,-4156,15457,18796.07674489546
1735579324027,111,-124,946,960.5274592639192,9909,-4135,13704,17409.368799586042
1735579324028,110,-87,965,975.1379389604324,9931,-4111,11959,16079.265001858761
1735579324057,110,-87,965,975.1379389604324,9933,-4084,10216,14822.624632635072
1735579324087,110,-87,965,975.1379389604324,9928,-4058,8474,13668.987672830786
1735579324117,184,-101,1005,1026.6849565470413,9913,-4033,6738,12646.473895912646
1735579324178,184,-101,1005,1026.6849565470413,9849,-4031,5091,11797.035347916866
1735579324179,184,-101,1005,1026.6849565470413,9796,-4040,3444,11142.008436543207
1735579324208,187,-118,963,988.059714794607,9755,-4059,1792,10716.658527731486
1735579324239,187,-118,963,988.059714794607,9738,-4080,137,10559.063073966365
1735579324267,187,-118,963,988.059714794607,9730,-4104,-1518,10668.64752440533
1735579324297,187,-118,963,988.059714794607,9728,-4130,-3175,11035.012868139303
1735579324327,99,-113,944,955.8796995438286,9783,-4142,-4908,11702.637181421973
1735579324357,99,-113,944,955.8796995438286,9846,-4134,-6673,12592.164269894194
1735579324387,99,-113,944,955.8796995438286,9896,-4114,-8436,13638.98485958541
1735579324416,119,-87,976,987.0693997890928,9921,-4088,-10185,14794.330332934978
1735579324447,119,-87,976,987.0693997890928,9914,-4066,-11916,16025.317719159268
1735579324477,119,-87,976,987.0693997890928,9902,-4046,-13646,17338.77262092101
1735579324507,201,-101,998,1023.0376337163751,9882,-4029,-15372,18713.23459479948
1735579324537,201,-101,998,1023.0376337163751,9808,-4035,-16999,20036.06972437459
1735579324567,201,-101,998,1023.0376337163751,9748,-4056,17371,20327.96795058473
1735579324629,201,-101,998,1023.0376337163751,9705,-4088,15741,18938.792200137792
1735579324629,166,-120,963,984.5430412125211,9711,-4117,14069,17583.798537289946
1735579324657,166,-120,963,984.5430412125211,9736,-4140,12382,16286.28932568742
1735579324688,166,-120,963,984.5430412125211,9762,-4157,10694,15064.492324668628
1735579324717,103,-108,950,961.6511841619081,9805,-4167,8981,13934.140626533092
1735579324748,103,-108,950,961.6511841619081,9867,-4158,7220,12914.141589745715
1735579324778,103,-108,950,961.6511841619081,9915,-4136,5462,12051.853177001452
1735579324808,144,-88,990,1004.2808372163635,9947,-4106,3708,11382.060841517234
1735579324838,144,-88,990,1004.2808372163635,9920,-4085,2004,10913.73634462552
1735579324868,144,-88,990,1004.2808372163635,9894,-4070,301,10702.650933296853
1735579324898,144,-88,990,1004.2808372163635,9869,-4060,-1402,10763.19492529983
1735579324927,205,-114,997,1024.2216556976327,9818,-4064,-3048,11054.389354460065
1735579324957,205,-114,997,1024.2216556976327,9771,-4080,-4673,11573.926300093672
1735579324987,205,-114,997,1024.2216556976327,9737,-4106,-6300,12302.780376809138
1735579325017,161,-109,951,970.6714171129178,9731,-4132,-7955,13230.563480063878
1735579325047,161,-109,951,970.6714171129178,9752,-4150,-9649,14332.731944748008
1735579325077,161,-109,951,970.6714171129178,9773,-4165,-11344,15541.720947179563
1735579325107,92,-100,948,957.6888847637316,9797,-4175,-13039,16835.300858612536
1735579325138,92,-100,948,957.6888847637316,9864,-4167,-14813,18278.05662536365
1735579325167,92,-100,948,957.6888847637316,9916,-4145,-16584,19762.012473429928
1735579325228,92,-100,948,957.6888847637316,9952,-4113,17647,20673.066584326574
1735579325228,155,-89,995,1010.9258133018466,9935,-4087,15933,19216.354571041826
1735579325257,155,-89,995,1010.9258133018466,9899,-4072,14243,17816.689759885252
1735579325288,155,-89,995,1010.9258133018466,9867,-4064,12553,16475.788114685136
1735579325318,206,-112,993,1020.3082867447466,9823,-4066,10889,15218.212969990926
1735579325348,206,-112,993,1020.3082867447466,9774,-4083,9265,14072.74635598894
1735579325378,206,-112,993,1020.3082867447466,9739,-4110,7639,13042.029826679587
1735579325408,146,-113,945,962.865515012351,9718,-4141,6007,12152.014400913125
1735579325436,146,-113,945,962.865515012351,9757,-4157,4295,11442.321573876518
1735579325467,146,-113,945,962.865515012351,9792,-4166,2582,10950.138994551622
1735579325497,146,-113,945,962.865515012351,9824,-4168,869,10706.930512523186
1735579325527,93,-105,953,963.2668373820413,9880,-4158,-881,10755.441645976236
1735579325557,93,-105,953,963.2668373820413,9933,-4133,-2650,11080.10279735707
1735579325587,93,-105,953,963.2668373820413,9968,-4098,-4416,11647.132007494378
1735579325617,161,-90,997,1013.9181426525516,9961,-4062,-6149,12390.785527963915
1735579325648,161,-90,997,1013.9181426525516,9908,-4043,-7828,13258.65366468255
1735579325678,161,-90,997,1013.9181426525516,9860,-4035,-9509,14280.122758575992
1735579325708,212,-120,984,1013.7060717979349,9816,-4036,-11186,15419.784304587401
1735579325738,212,-120,984,1013.7060717979349,9764,-4056,-12803,16604.32597246874
1735579325768,212,-120,984,1013.7060717979349,9725,-4084,-14421,17866.726672784804
1735579325829,212,-120,984,1013.7060717979349,9700,-4120,-16041,19193.17798073055
1735579325829,113,-119,940,954.2169564622084,9747,-4140,-17755,20673.258910969987
1735579325858,113,-119,940,954.2169564622084,9810,-4141,16492,19630.844225351084
1735579325888,113,-119,940,954.2169564622084,9862,-4130,14742,18211.05455485761
1735579325917,110,-88,966,976.2171889492624,9896,-4113,12997,16845.46211892093
1735579325947,110,-88,966,976.2171889492624,9907,-4093,11252,15540.553465047504
1735579325977,110,-88,966,976.2171889492624,9910,-4072,9510,14325.829260465169
1735579326007,186,-88,1003,1023.8891541568355,9903,-4050,7772,13224.064919683356
1735579326037,186,-88,1003,1023.8891541568355,9835,-4049,6122,12271.939944442362
1735579326067,186,-88,1003,1023.8891541568355,9780,-4061,4472,11495.168767791101
1735579326127,186,-88,1003,1023.8891541568355,9738,-4084,2820,10929.780418654347
1735579326128,205,-119,975,1003.3997209487354,9713,-4116,1182,10615.128308221243
1735579326157,205,-119,975,1003.3997209487354,9704,-4151,-450,10564.133518656417
1735579326188,205,-119,975,1003.3997209487354,9704,-4187,-2085,10772.456080207521
1735579326218,98,-119,942,954.5307747788962,9751,-4213,-3774,11272.730192814872
1735579326248,98,-119,942,954.5307747788962,9847,-4210,-5550,12061.923934431024
1735579326278,98,-119,942,954.5307747788962,9924,-4187,-7323,13024.710131131518
1735579326308,119,-89,971,982.304942469496,9980,-4150,-9089,14122.06858077102
1735579326338,119,-89,971,982.304942469496,9978,-4115,-10823,15284.9938828905
1735579326368,119,-89,971,982.304942469496,9968,-4080,-12554,16541.17105890632
1735579326397,119,-89,971,982.304942469496,9950,-4049,-14284,17872.59234134769
1735579326428,189,-106,1012,1034.9400948847233,9891,-4033,-15950,19196.340015742586
1735579326457,189,-106,1012,1034.9400948847233,9830,-4035,-17591,20551.238551483948
1735579326517,189,-106,1012,1034.9400948847233,9780,-4049,16766,19827.797583191128
1735579326518,186,-118,958,982.9974567617152,9751,-4068,15113,18439.994414315857
1735579326547,186,-118,958,982.9974567617152,9741,-4090,13454,17106.29407557347
1735579326577,186,-118,958,982.9974567617152,9738,-4113,11793,15837.306020911512
1735579326607,89,-108,945,955.3062336235433,9744,-4135,10128,14649.919624352893
1735579326637,89,-108,945,955.3062336235433,9819,-4135,8352,13537.610202690872
1735579326667,89,-108,945,955.3062336235433,9879,-4120,6577,12562.8806409995
1735579326698,89,-108,945,955.3062336235433,9924,-4092,4805,11760.878581126497
1735579326728,133,-93,988,1001.2402309136404,9922,-4067,3074,11155.090721280576
1735579326758,133,-93,988,1001.2402309136404,9902,-4048,1360,10783.575844774312
1735579326788,133,-93,988,1001.2402309136404,9881,-4033,-353,10678.19549362157
1735579326818,206,-108,992,1018.9033320192843,9838,-4028,-2032,10823.125796182912
1735579326848,206,-108,992,1018.9033320192843,9776,-4043,-3654,11192.30722416071
1735579326878,206,-108,992,1018.9033320192843,9727,-4069,-5278,11791.037867804513
1735579326907,165,-119,963,984.253524250739,9697,-4103,-6909,12593.676945197538
1735579326938,165,-119,963,984.253524250739,9721,-4128,-8596,13617.24792313043
1735579326967,165,-119,963,984.253524250739,9747,-4148,-10285,14764.522951995436
1735579327027,165,-119,963,984.253524250739,9774,-4162,-11975,16007.933814206004
1735579327028,97,-108,958,968.9360143992998,9831,-4164,-13716,17381.487652096985
1735579327057,97,-108,958,968.9360143992998,9890,-4149,-15481,18833.153267575773
1735579327088,97,-108,958,968.9360143992998,9933,-4122,-17244,20322.66982952781
1735579327118,144,-89,985,999.4408436721005,9943,-4092,17015,20127.541777375598
1735579327146,144,-89,985,999.4408436721005,9914,-4072,15313,18691.082071405068
1735579327177,144,-89,985,999.4408436721005,9885,-4058,13610,17303.545561531602
1735579327207,215,-112,984,1013.4224193296693,9853,-4050,11911,15979.863265998241
1735579327238,215,-112,984,1013.4224193296693,9790,-4064,10299,14779.363890235602
1735579327268,215,-112,984,1013.4224193296693,9741,-4090,8684,13675.782866073883
1735579327327,215,-112,984,1013.4224193296693,9706,-4125,7068,12695.616763277001
1735579327329,147,-122,950,969.0165117272254,9734,-4149,5383,11871.884686097654
1735579327358,147,-122,950,969.0165117272254,9779,-4160,3671,11243.250508638504
1735579327388,147,-122,950,969.0165117272254,9818,-4162,1960,10842.36911380534
1735579327418,90,-96,963,971.949072739925,9863,-4156,229,10705.304572967552
1735579327448,90,-96,963,971.949072739925,9911,-4135,-1543,10849.285460342538
1735579327478,90,-96,963,971.949072739925,9945,-4104,-3312,11256.783954576014
1735579327508,161,-83,1000,1016.2726012246911,9960,-4068,-5076,11896.049764522675
1735579327567,161,-83,1000,1016.2726012246911,9903,-4050,-6754,12652.60546290763
1735579327569,161,-83,1000,1016.2726012246911,9852,-4044,-8433,13584.230894680788
1735579327597,210,-124,985,1014.7418390901205,9806,-4049,-10111,14655.523122700193
1735579327627,210,-124,985,1014.7418390901205,9764,-4069,-11732,15796.59080308153
1735579327658,210,-124,985,1014.7418390901205,9735,-4097,-13354,17026.00804651519
1735579327686,210,-124,985,1014.7418390901205,9717,-4130,-14979,18326.140619344817
1735579327717,122,-112,938,952.5082676806538,9756,-4149,-16686,19769.07516804972
1735579327748,122,-112,938,952.5082676806538,9808,-4152,17572,20547.777300720387
1735579327778,122,-112,938,952.5082676806538,9852,-4144,15832,19102.012040620222
1735579327808,109,-92,955,965.5930819967591,9886,-4130,14094,17703.97503387304
1735579327838,109,-92,955,965.5930819967591,9907,-4111,12346,16354.592199134773
1735579327868,109,-92,955,965.5930819967591,9919,-4088,10600,15081.720889871951
1735579327898,168,-97,1005,1023.5516596635463,9919,-4063,8859,13905.98471881801
1735579327958,168,-97,1005,1023.5516596635463,9872,-4054,7191,12868.635553157917
1735579327959,168,-97,1005,1023.5516596635463,9831,-4055,5522,11982.657050921553
1735579327987,168,-97,1005,1023.5516596635463,9797,-4063,3853,11284.271664578091
1735579328018,197,-112,970,996.1189687984062,9762,-4080,2203,10807.231514129786
1735579328048,197,-112,970,996.1189687984062,9736,-4105,563,10581.006095830397
1735579328077,197,-112,970,996.1189687984062,9720,-4134,-1078,10617.459206420339
1735579328107,115,-109,951,964.1094336225531,9742,-4159,-2762,10946.802683889027
1735579328137,115,-109,951,964.1094336225531,9804,-4164,-4513,11568.253152485902
1735579328168,115,-109,951,964.1094336225531,9855,-4156,-6262,12393.788968672978
1735579328197,115,-92,967,978.1502952000782,9895,-4139,-8007,13384.85692863394
1735579328227,115,-92,967,978.1502952000782,9912,-4120,-9747,14499.177666336805
1735579328258,115,-92,967,978.1502952000782,9920,-4098,-11484,15718.85046687575
1735579328288,115,-92,967,978.1502952000782,9921,-4074,-13220,17023.281616656644
1735579328318,187,-94,1005,1026.5622241247727,9872,-4063,-14894,18324.72616439329
1735579328348,187,-94,1005,1026.5622241247727,9816,-4068,-16541,19659.785375227268
1735579328378,187,-94,1005,1026.5622241247727,9771,-4084,17809,20719.845028377986
1735579328408,199,-117,967,994.1725202398223,9743,-4107,16159,19310.79436481058
1735579328437,199,-117,967,994.1725202398223,9733,-4134,14515,17958.465134860497
1735579328468,199,-117,967,994.1725202398223,9731,-4162,12870,16662.878052725464
1735579328498,96,-110,948,959.1767303265858,9740,-4189,11219,15436.362330549255
1735579328528,96,-110,948,959.1767303265858,9826,-4189,9444,14257.879681074603
1735579328557,96,-110,948,959.1767303265858,9895,-4172,7671,13197.001553383254
1735579328617,96,-110,948,959.1767303265858,9946,-4141,5902,12284.315243431358
1735579328618,126,-83,976,987.5935398735656,9950,-4112,4167,11544.476298212925
1735579328647,126,-83,976,987.5935398735656,9933,-4087,2445,11015.719813067142
1735579328678,126,-83,976,987.5935398735656,9913,-4066,724,10738.905949862863
1735579328707,193,-102,992,1015.7347094591186,9872,-4054,-964,10715.437275258533
1735579328737,193,-102,992,1015.7347094591186,9813,-4059,-2602,10933.474013322573
1735579328767,193,-102,992,1015.7347094591186,9767,-4076,-4241,11401.497533219046
1735579328798,175,-125,955,978.915215940584,9735,-4100,-5886,12092.362093486947
1735579328828,175,-125,955,978.915215940584,9748,-4121,-7559,13005.561348899939
1735579328886,175,-125,955,978.915215940584,9764,-4139,-9234,14061.784132890109
1735579328889,175,-125,955,978.915215940584,9782,-4154,-10909,15229.889067225671
1735579328918,88,-103,941,950.7018460064122,9838,-4154,-12654,16557.94902758189
1735579328948,88,-103,941,950.7018460064122,9896,-4135,-14431,17980.066796316412
1735579328978,88,-103,941,950.7018460064122,9938,-4105,-16204,19446.96595872991
1735579329008,131,-82,992,1003.966632911672,9947,-4072,-17955,20926.20409916715
1735579329038,131,-82,992,1003.966632911672,9916,-4050,16328,19527.75307095007
1735579329068,131,-82,992,1003.966632911672,9885,-4034,14613,18097.683553427494
1735579329098,198,-112,1002,1027.497931871398,9851,-4025,12902,16724.366355709863
1735579329127,198,-112,1002,1027.497931871398,9793,-4037,11271,15467.244712617694
1735579329157,198,-112,1002,1027.497931871398,9748,-4059,9639,14297.178253067981
1735579329188,198,-112,1002,1027.497931871398,9717,-4090,8006,13237.984174337118
1735579329218,168,-124,955,977.5607398008576,9726,-4116,6335,12315.387001633364
1735579329247,168,-124,955,977.5607398008576,9749,-4137,4653,11567.548530263446
1735579329277,168,-124,955,977.5607398008576,9773,-4152,2969,11025.678845313789
1735579329308,94,-103,953,963.1479637106647,9816,-4160,1255,10734.73246056929
1735579329338,94,-103,953,963.1479637106647,9876,-4148,-514,10724.06061154076
1735579329367,94,-103,953,963.1479637106647,9922,-4123,-2282,10984.203976620245
1735579329398,147,-104,985,1001.3241233486788,9951,-4091,-4044,11494.025317529104
1735579329427,147,-104,985,1001.3241233486788,9929,-4068,-5742,12169.808092159876
1735579329458,147,-104,985,1001.3241233486788,9906,-4050,-7440,13033.991560531256
1735579329488,147,-104,985,1001.3241233486788,9882,-4036,-9136,14050.256794806279
1735579329518,205,-104,1000,1026.0804062060633,9821,-4038,-10780,15131.618717110208
1735579329548,205,-104,1000,1026.0804062060633,9761,-4056,-12404,16296.854696535771
1735579329578,205,-104,1000,1026.0804062060633,9715,-4086,-14029,17546.77924862566
1735579329608,146,-116,953,971.0720879522797,9709,-4117,-15690,18904.773735752566
1735579329667,146,-116,953,971.0720879522797,9746,-4136,-17400,20367.891692563568
1735579329668,146,-116,953,971.0720879522797,9781,-4147,16887,19950.848077212155
1735579329697,88,-107,948,958.0694129341568,9814,-4152,15177,18544.406946570172
1735579329728,88,-107,948,958.0694129341568,9878,-4140,13403,17156.773968319336
1735579329757,88,-107,948,958.0694129341568,9927,-4114,11632,15835.837489694064
1735579329787,88,-107,948,958.0694129341568,9959,-4079,9865,14599.251590406955
1735579329817,142,-89,995,1009.0143705616883,9941,-4049,8141,13471.962106538156
1735579329848,142,-89,995,1009.0143705616883,9904,-4029,6438,12480.781265609938
1735579329892,142,-89,995,1009.0143705616883,9869,-4017,4735,11659.91745253799
1735579329908,206,-110,989,1016.1973233580179,9819,-4017,3063,11042.23795251669
1735579329938,206,-110,989,1016.1973233580179,9757,-4036,1442,10656.81514337187
1735579329968,206,-110,989,1016.1973233580179,9712,-4067,-181,10530.72618578605
1735579329999,162,-110,949,968.9917440308767,9684,-4104,-1811,10672.50640665069
1735579330058,162,-110,949,968.9917440308767,9706,-4132,-3503,11115.343854330373
1735579330058,162,-110,949,968.9917440308767,9732,-4156,-5197,11789.527937962572
1735579330088,162,-110,949,968.9917440308767,9758,-4174,-6892,12654.663330172005
1735579330118,84,-107,954,963.6498326674478,9828,-4177,-8647,13740.72494448528
1735579330148,84,-107,954,963.6498326674478,9901,-4159,-10429,14969.673443332022
1735579330177,84,-107,954,963.6498326674478,9955,-4126,-12207,16283.020297229872
1735579330207,143,-83,993,1006.6712472301967,9966,-4090,-13955,17629.27341100591
1735579330238,143,-83,993,1006.6712472301967,9927,-4066,-15656,18978.620102631277
1735579330268,143,-83,993,1006.6712472301967,9890,-4050,-17357,20383.327721449215
1735579330297,206,-112,998,1025.1751069939223,9852,-4042,16944,20012.46621483719
1735579330358,206,-112,998,1025.1751069939223,9794,-4054,15320,18629.539768872444
1735579330358,206,-112,998,1025.1751069939223,9749,-4077,13695,17297.917649243216
1735579330388,206,-112,998,1025.1751069939223,9717,-4109,12069,16030.119494252063
1735579330418,163,-125,959,980.7522622966516,9735,-4134,10393,14828.170150089323
1735579330448,163,-125,959,980.7522622966516,9767,-4150,8701,13723.126101584872
1735579330477,163,-125,959,980.7522622966516,9797,-4160,7008,12743.58163939793
1735579330508,88,-115,951,961.9615376926461,9845,-4160,5286,11923.565783774584
1735579330538,88,-115,951,961.9615376926461,9913,-4139,3511,11301.593294752736
1735579330568,88,-115,951,961.9615376926461,9962,-4105,1738,10913.895409064538
1735579330598,142,-81,996,1009.3270035028291,9991,-4062,-26,10785.202872454463
1735579330628,142,-81,996,1009.3270035028291,9940,-4034,-1725,10865.191254644347
1735579330658,142,-81,996,1009.3270035028291,9892,-4018,-3424,11212.48250834756
1735579330718,142,-81,996,1009.3270035028291,9849,-4011,-5123,11804.069255981176
1735579330718,208,-105,993,1019.9696073903378,9783,-4020,-6767,12556.264492276356
1735579330748,208,-105,993,1019.9696073903378,9725,-4047,-8388,13465.228479309217
1735579330778,208,-105,993,1019.9696073903378,9683,-4084,-10012,14514.809299470662
1735579330807,171,-120,956,978.5586339100994,9676,-4123,-11660,15702.856587258257
1735579330837,171,-120,956,978.5586339100994,9705,-4154,-13341,17012.496054371328
1735579330867,171,-120,956,978.5586339100994,9738,-4179,-15024,18385.136958967698
1735579330898,101,-100,945,955.6285889402849,9773,-4197,-16709,19806.99419397098
1735579330958,101,-100,945,955.6285889402849,9845,-4194,17524,20533.003603954294
1735579330959,101,-100,945,955.6285889402849,9902,-4177,15761,19076.321815276653
1735579330988,101,-100,945,955.6285889402849,9944,-4149,14000,17666.2768290322
1735579331018,140,-96,1000,1014.305673847879,9944,-4122,12277,16327.851940778983
1735579331048,140,-96,1000,1014.305673847879,9929,-4099,10569,15069.525639515
1735579331078,140,-96,1000,1014.305673847879,9910,-4080,8862,13906.456917561713
1735579331107,216,-117,979,1009.3492953383383,9870,-4070,7192,12872.710048781491
1735579331138,216,-117,979,1009.3492953383383,9810,-4080,5581,12001.252476304297
1735579331167,216,-117,979,1009.3492953383383,9764,-4101,3969,11309.591416138781
1735579331198,133,-122,951,967.9741732091823,9735,-4128,2349,10831.823946132065
1735579331227,133,-122,951,967.9741732091823,9786,-4137,620,10642.601420705372
1735579331257,133,-122,951,967.9741732091823,9830,-4135,-1106,10721.490614648692
1735579331288,133,-122,951,967.9741732091823,9865,-4124,-2833,11061.260778048767
1735579331318,106,-92,963,973.1747016851599,9893,-4110,-4573,11647.998883928518
1735579331347,106,-92,963,973.1747016851599,9910,-4090,-6321,12445.530964968912
1735579331377,106,-92,963,973.1747016851599,9918,-4066,-8067,13415.49734448932
1735579331408,168,-94,1010,1028.1828631133667,9898,-4045,-9786,14494.765434459434
1735579331439,168,-94,1010,1028.1828631133667,9849,-4040,-11458,15640.018062649417
1735579331468,168,-94,1010,1028.1828631133667,9807,-4044,-13130,16879.812943276356
1735579331498,207,-112,966,994.2580148029987,9772,-4056,-14802,18194.568530196037
1735579331529,207,-112,966,994.2580148029987,9730,-4082,-16428,19524.7229941938
1735579331558,207,-112,966,994.2580148029987,9701,-4116,17943,20808.70265057387
1735579331618,115,-118,935,949.4071834571297,9690,-4153,16308,19418.91791527015
1735579331618,115,-118,935,949.4071834571297,9767,-4166,14558,18019.023530702212
1735579331647,115,-118,935,949.4071834571297,9833,-4164,12808,16675.480472837957
1735579331677,115,-118,935,949.4071834571297,9886,-4149,11059,15402.878886753606
1735579331708,108,-86,974,983.735736872459,9915,-4129,9313,14215.76009223566
1735579331767,108,-86,974,983.735736872459,9927,-4106,7567,13140.169481403198
1735579331768,108,-86,974,983.735736872459,9930,-4080,5823,12213.051584268364
1735579331798,190,-87,1010,1031.3917781328296,9921,-4054,4083,11468.742128062693
1735579331828,190,-87,1010,1031.3917781328296,9845,-4053,2441,10922.880343572386
1735579331857,190,-87,1010,1031.3917781328296,9783,-4066,797,10624.248396945546
1735579331887,179,-116,966,989.2689219822889,9736,-4089,-849,10593.885878184643
1735579331917,179,-116,966,989.2689219822889,9734,-4112,-2513,10861.605268099187
1735579331948,179,-116,966,989.2689219822889,9738,-4136,-4179,11375.376081695058
1735579331979,179,-116,966,989.2689219822889,9747,-4158,-5846,12102.424922303795
1735579332008,94,-116,940,951.7835888478011,9813,-4165,-7589,13085.68358932769
1735579332038,94,-116,940,951.7835888478011,9885,-4150,-9362,14233.157379864806
1735579332068,94,-116,940,951.7835888478011,9940,-4120,-11132,15482.229296842235
1735579332098,133,-94,979,992.4545329636013,9960,-4086,-12880,16786.643380974052
1735579332128,133,-94,979,992.4545329636013,9940,-4058,-14595,18118.636510510387
1735579332157,133,-94,979,992.4545329636013,9917,-4035,-16309,19509.269463514003
1735579332188,193,-109,1004,1028.1760549633511,9887,-4018,17981,20909.649781859094
1735579332218,193,-109,1004,1028.1760549633511,9821,-4022,16348,19490.654914599458
1735579332248,193,-109,1004,1028.1760549633511,9768,-4038,14712,18115.248052400497
1735579332277,193,-109,1004,1028.1760549633511,9729,-4064,13075,16796.58185465126
1735579332307,164,-113,952,972.6093768826208,9726,-4087,11399,15531.768926944542
1735579332337,164,-113,952,972.6093768826208,9736,-4108,9712,14352.292639156993
1735579332368,164,-113,952,972.6093768826208,9750,-4126,8022,13283.029022026565
1735579332397,100,-102,942,952.7685972994702,9784,-4139,6308,12355.113961433137
1735579332427,100,-102,942,952.7685972994702,9840,-4135,4546,11601.290488562037
1735579332458,100,-102,942,952.7685972994702,9884,-4119,2785,11064.16928648509
1735579332488,145,-86,987,1001.2941625716192,9915,-4096,1028,10776.883826041738
1735579332518,145,-86,987,1001.2941625716192,9890,-4082,-675,10720.561972210226
1735579332548,145,-86,987,1001.2941625716192,9866,-4073,-2378,10935.363231278603
1735579332578,145,-86,987,1001.2941625716192,9844,-4069,-4081,11406.825062216041
1735579332608,205,-116,989,1016.6621857824751,9800,-4078,-5727,12061.036978634964
1735579332638,205,-116,989,1016.6621857824751,9761,-4099,-7352,12889.174760239695
1735579332668,205,-116,989,1016.6621857824751,9734,-4128,-8979,13871.32225132125
1735579332698,149,-117,951,969.6860316617951,9740,-4152,-10640,15010.539763779316
1735579332728,149,-117,951,969.6860316617951,9779,-4164,-12350,16293.871148379687
1735579332758,149,-117,951,969.6860316617951,9814,-4167,-14060,17645.45508055828
1735579332817,94,-105,957,967.3210428808007,9846,-4164,-15769,19051.08849908582
1735579332818,94,-105,957,967.3210428808007,9905,-4147,-17538,20564.242704267035
1735579332847,94,-105,957,967.3210428808007,9948,-4117,16695,19865.4327413223
1735579332879,94,-105,957,967.3210428808007,9974,-4079,14932,18414.22116191722
1735579332907,169,-98,994,1013.015794546166,9939,-4052,13236,17040.95422797679
1735579332937,169,-98,994,1013.015794546166,9887,-4039,11567,15743.626615237037
1735579332967,169,-98,994,1013.015794546166,9841,-4037,9898,14529.73000437379
1735579332998,210,-116,984,1012.8237753923434,9794,-4046,8246,13427.176471619043
1735579333029,210,-116,984,1012.8237753923434,9746,-4068,6625,12466.906793587574
1735579333059,210,-116,984,1012.8237753923434,9713,-4099,5003,11669.369263160714
1735579333088,123,-112,944,958.5452519312795,9697,-4134,3373,11067.92184648952
1735579333118,123,-112,944,958.5452519312795,9757,-4150,1633,10727.918623852438
1735579333148,123,-112,944,958.5452519312795,9810,-4153,-107,10653.40124091832
1735579333178,123,-112,944,958.5452519312795,9854,-4145,-1846,10848.504827855311
1735579333208,106,-99,961,971.883737902842,9893,-4132,-3593,11307.277391131784
1735579333238,106,-99,961,971.883737902842,9920,-4110,-5343,11993.587828502363
1735579333268,106,-99,961,971.883737902842,9937,-4083,-7091,12872.340074749423
1735579333298,168,-92,1000,1018.1787662291922,9920,-4059,-8809,13873.729203065772
1735579333327,168,-92,1000,1018.1787662291922,9869,-4050,-10478,14952.86410691945
1735579333357,168,-92,1000,1018.1787662291922,9825,-4052,-12149,16141.484752029473
1735579333388,198,-107,977,1002.5876520284897,9787,-4062,-13819,17414.074020745404
1735579333418,198,-107,977,1002.5876520284897,9748,-4082,-15456,18723.625824075847
1735579333447,198,-107,977,1002.5876520284897,9720,-4110,-17096,20090.88639159557
1735579333477,198,-107,977,1002.5876520284897,9703,-4142,17263,20231.5481859397
1735579333508,118,-116,948,962.3325828423352,9751,-4163,15547,18818.123684363432
1735579333539,118,-116,948,962.3325828423352,9814,-4166,13800,17438.75431331034
1735579333568,118,-116,948,962.3325828423352,9866,-4156,12056,16123.195340874587
1735579333598,102,-94,964,973.9281287651569,9907,-4138,10310,14885.153442272605
1735579333626,102,-94,964,973.9281287651569,9933,-4114,8555,13739.632818965723
1735579333658,102,-94,964,973.9281287651569,9947,-4084,6804,12724.63284342617
1735579333688,184,-103,1011,1032.7565056682045,9946,-4052,5057,11870.756884040715
1735579333718,184,-103,1011,1032.7565056682045,9882,-4041,3407,11206.750376447224
1735579333748,184,-103,1011,1032.7565056682045,9827,-4042,1756,10769.922423118933
1735579333778,184,-103,1011,1032.7565056682045,9782,-4054,103,10589.28935292638
1735579333807,201,-114,968,995.1989750798581,9747,-4075,-1539,10676.05521716706
1735579333867,201,-114,968,995.1989750798581,9723,-4103,-3178,11021.389295365625
1735579333869,201,-114,968,995.1989750798581,9710,-4136,-4818,11601.884329711273
1735579333899,102,-117,946,958.6495710112221,9740,-4162,-6505,12429.998753016833
1735579333929,102,-117,946,958.6495710112221,9820,-4163,-8271,13497.125990372913
1735579333957,102,-117,946,958.6495710112221,9884,-4147,-10035,14683.061329300508
1735579333987,125,-84,965,976.6811147964314,9933,-4121,-11794,15960.750796876693
1735579334017,125,-84,965,976.6811147964314,9926,-4098,-13520,17265.84721350215
1735579334048,125,-84,965,976.6811147964314,9914,-4077,-15245,18636.50584202951
1735579334077,125,-84,965,976.6811147964314,9898,-4059,-16969,20059.73195234672
1735579334108,189,-112,998,1021.8948086765096,9854,-4052,17362,20370.54402808133
1735579334137,189,-112,998,1021.8948086765096,9809,-4059,15718,18967.010465542535
1735579334168,189,-112,998,1021.8948086765096,9775,-4074,14072,17611.623576490612
1735579334199,187,-112,961,985.4105743292996,9753,-4093,12420,16313.493126856676
1735579334229,187,-112,961,985.4105743292996,9742,-4115,10763,15089.133772354196
1735579334258,187,-112,961,985.4105743292996,9738,-4139,9104,13958.60956542592
1735579334288,92,-110,950,960.762197424524,9744,-4163,7441,12947.763745141476
1735579334318,92,-110,950,960.762197424524,9826,-4163,5665,12081.93155087381
1735579334347,92,-110,950,960.762197424524,9893,-4146,3891,11410.549767649234
1735579334377,92,-110,950,960.762197424524,9941,-4115,2121,10966.099899234914
1735579334407,133,-84,985,997.4818294084359,9939,-4087,390,10753.575684394471
1735579334438,133,-84,985,997.4818294084359,9915,-4066,-1323,10797.680769498606
1735579334468,133,-84,985,997.4818294084359,9890,-4049,-3036,11109.626321348527
1735579334497,199,-109,997,1022.4925427600926,9847,-4044,-4717,11643.3429048534
1735579334527,199,-109,997,1022.4925427600926,9791,-4056,-6347,12353.105925231921
1735579334558,199,-109,997,1022.4925427600926,9748,-4079,-7978,13240.476917392363
1735579334587,166,-122,961,982.8331496240855,9721,-4108,-9615,14276.614794831441
1735579334618,166,-122,961,982.8331496240855,9742,-4129,-11301,15481.208156988265
1735579334647,166,-122,961,982.8331496240855,9764,-4145,-12988,16769.16411154712
1735579334678,166,-122,961,982.8331496240855,9786,-4156,-14675,18121.637812295
1735579334708,98,-107,958,968.9256937453976,9842,-4156,-16415,19585.441659559277
1735579334738,98,-107,958,968.9256937453976,9898,-4139,17820,20800.33954049789
1735579334767,98,-107,958,968.9256937453976,9939,-4111,16058,19327.271043786808
1735579334798,149,-91,1005,1020.0524496318804,9943,-4080,14323,17906.92542007142
1735579334828,149,-91,1005,1020.0524496318804,9908,-4062,12629,16557.77608859354
1735579334858,149,-91,1005,1020.0524496318804,9874,-4050,10935,15279.810240968309
1735579334917,217,-114,982,1012.1309203853027,9840,-4046,9243,14093.571761622388
1735579334918,217,-114,982,1012.1309203853027,9777,-4062,7632,13051.32165721158
1735579334948,217,-114,982,1012.1309203853027,9729,-4089,6020,12149.64040620133
1735579334978,217,-114,982,1012.1309203853027,9696,-4126,4405,11421.047106110718
1735579335007,132,-122,948,964.889630994136,9735,-4149,2707,10923.015838128224
1735579335037,132,-122,948,964.889630994136,9791,-4157,977,10681.70674564697
1735579335067,132,-122,948,964.889630994136,9840,-4153,-752,10706.937610726982
1735579335098,107,-98,955,965.9596264854965,9881,-4142,-2486,10998.659963831959
1735579335128,107,-98,955,965.9596264854965,9912,-4123,-4236,11540.82185115081
1735579335158,107,-98,955,965.9596264854965,9933,-4098,-5984,12299.038539658293
1735579335188,174,-97,995,1014.7462737058954,9939,-4069,-7727,13230.533284792416
1735579335218,174,-97,995,1014.7462737058954,9886,-4057,-9390,14225.482241386406
1735579335248,174,-97,995,1014.7462737058954,9839,-4055,-11054,15344.049726196798
1735579335278,174,-97,995,1014.7462737058954,9801,-4062,-12719,16562.983004277943
1735579335307,209,-107,971,998.9849848721451,9756,-4080,-14356,17830.33011472306
1735579335338,209,-107,971,998.9849848721451,9720,-4109,-15982,19151.673686652037
1735579335367,209,-107,971,998.9849848721451,9697,-4145,-17609,20525.343237081324
1735579335397,105,-118,949,962.0550919775852,9722,-4175,16710,19778.06888955542
1735579335427,105,-118,949,962.0550919775852,9804,-4179,14947,18357.430811526978
1735579335457,105,-118,949,962.0550919775852,9873,-4167,13185,16990.71049132437
1735579335488,106,-90,964,973.9774124690982,9926,-4143,11428,15693.600893357776
1735579335518,106,-90,964,973.9774124690982,9943,-4116,9680,14474.360262201573
1735579335547,106,-90,964,973.9774124690982,9950,-4085,7934,13365.555768466944
1735579335577,177,-103,1006,1026.6323587341283,9943,-4055,6192,12395.448277492831
1735579335608,177,-103,1006,1026.6323587341283,9886,-4043,4535,11603.66623098062
1735579335638,177,-103,1006,1026.6323587341283,9837,-4042,2876,11017.064445667911
1735579335668,177,-103,1006,1026.6323587341283,9796,-4051,1217,10670.206464731598
1735579335698,200,-115,971,998.031061640869,9761,-4068,-429,10583.467579201062
1735579335728,200,-115,971,998.031061640869,9735,-4093,-2069,10761.20973682792
1735579335758,200,-115,971,998.031061640869,9719,-4122,-3711,11190.235296900597
1735579335788,101,-111,952,963.7561932356128,9716,-4152,-5356,11845.94850571283
1735579335817,101,-111,952,963.7561932356128,9792,-4159,-7121,12801.921183947354
1735579335848,101,-111,952,963.7561932356128,9855,-4151,-8883,13901.781001008469
1735579335877,114,-98,972,983.5568107638725,9905,-4131,-10643,15114.484278333814
1735579335908,114,-98,972,983.5568107638725,9923,-4109,-12382,16390.965011249336
1735579335967,114,-98,972,983.5568107638725,9932,-4083,-14120,17739.501486794943
1735579335968,114,-98,972,983.5568107638725,9932,-4056,-15856,19144.411612791864
1735579335998,181,-102,1005,1026.2504567599472,9884,-4041,-17532,20527.88739739187
1735579336056,181,-102,1005,1026.2504567599472,9829,-4041,16814,19890.94060118827
1735579336057,181,-102,1005,1026.2504567599472,9784,-4052,15161,18493.27664314791
1735579336087,195,-114,959,985.2421022266558,9751,-4071,13508,17149.959358552427
1735579336117,195,-114,959,985.2421022266558,9730,-4096,11863,15880.204186344708
1735579336148,195,-114,959,985.2421022266558,9718,-4125,10217,14691.57030408935
1735579336178,97,-112,946,957.5327670633523,9719,-4155,8565,13604.49230952776
1735579336208,97,-112,946,957.5327670633523,9799,-4161,6797,12630.658375555884
1735579336238,97,-112,946,957.5327670633523,9865,-4151,5029,11825.390775784113
1735579336269,97,-112,946,957.5327670633523,9916,-4127,3264,11225.545911001389
1735579336298,121,-90,974,985.6048904099451,9930,-4102,1522,10851.165283046794
1735579336328,121,-90,974,985.6048904099451,9925,-4078,-209,10732.166137364815
