Timestamp,Acc_X,Acc_Y,Acc_Z,Acc_Betrag,Ori_X,Ori_Y,Ori_Z,Ori_Betrag
1735579891908,150,-111,973,990.7320525752662,9831,-4100,-17155,20192.884538866656
1735579891908,150,-111,973,990.7320525752662,9836,-4098,17145,20186.419320919696
1735579891908,149,-108,964,981.4076624930132,9839,-4097,15445,18765.376495024022
1735579891936,149,-108,964,981.4076624930132,9840,-4095,13745,17393.09201953465
1735579891966,149,-108,964,981.4076624930132,9841,-4092,12045,16083.276096616635
1735579891996,143,-104,972,987.9519219071341,9841,-4089,10344,14851.38168656371
1735579892026,143,-104,972,987.9519219071341,9840,-4084,8638,13715.673516090998
1735579892056,143,-104,972,987.9519219071341,9839,-4080,6932,12708.459584072336
1735579892086,149,-96,975,990.9803227107993,9837,-4076,5226,11861.341450274502
1735579892116,149,-96,975,990.9803227107993,9824,-4076,3527,11205.555809508067
1735579892146,149,-96,975,990.9803227107993,9813,-4078,1827,10782.5313354518
1735579892176,149,-96,975,990.9803227107993,9805,-4083,127,10621.913339883733
1735579892206,155,-104,966,983.8683855069233,9801,-4090,-1568,10735.284113613388
1735579892236,155,-104,966,983.8683855069233,9801,-4098,-3261,11112.48514059749
1735579892267,155,-104,966,983.8683855069233,9802,-4105,-4955,11725.282683159498
1735579892296,155,-100,973,990.3302479476228,9804,-4113,-6650,12540.242621257374
1735579892327,155,-100,973,990.3302479476228,9805,-4119,-8345,13518.254732028096
1735579892356,155,-100,973,990.3302479476228,9808,-4126,-10041,14630.188686411395
1735579892386,152,-109,972,989.8328141661095,9812,-4132,-11737,15846.322507130795
1735579892416,152,-109,972,989.8328141661095,9827,-4136,-13439,17154.68291750098
1735579892446,152,-109,972,989.8328141661095,9840,-4136,-15140,18524.354131790937
1735579892476,152,-109,972,989.8328141661095,9851,-4134,-16841,19943.706726684486
1735579892506,159,-105,974,992.4625937535379,9853,-4131,17465,20473.71473377511
1735579892536,159,-105,974,992.4625937535379,9851,-4128,15774,19049.977978989897
1735579892567,159,-105,974,992.4625937535379,9848,-4126,14083,17673.083177533
1735579892596,144,-109,960,976.8403144833858,9851,-4123,12387,16354.788259100147
1735579892626,144,-109,960,976.8403144833858,9860,-4116,10680,15107.06642601402
1735579892656,144,-109,960,976.8403144833858,9866,-4108,8974,13955.153026749653
1735579892686,146,-112,971,988.2818423911268,9869,-4098,7268,12923.412436349774
1735579892716,146,-112,971,988.2818423911268,9870,-4089,5566,12046.459106310036
1735579892746,146,-112,971,988.2818423911268,9868,-4079,3865,11355.786630612605
1735579892776,146,-112,971,988.2818423911268,9864,-4069,2164,10887.522812834883
1735579892806,143,-102,984,999.5544007206411,9855,-4061,460,10668.849328770184
1735579892837,143,-102,984,999.5544007206411,9844,-4055,-1244,10718.903721929775
1735579892867,143,-102,984,999.5544007206411,9833,-4052,-2950,11036.715679947545
1735579892897,154,-113,975,993.5340960430095,9823,-4052,-4649,11598.415150355673
1735579892926,154,-113,975,993.5340960430095,9815,-4055,-6341,12368.731988364854
1735579892956,154,-113,975,993.5340960430095,9810,-4059,-8032,13312.573192287056
1735579892987,155,-104,977,994.6707998126817,9807,-4065,-9725,14397.121205296564
1735579893016,155,-104,977,994.6707998126817,9799,-4071,-11417,15586.575345469575
1735579893046,155,-104,977,994.6707998126817,9794,-4079,-13110,16865.134953506895
1735579893076,155,-104,977,994.6707998126817,9792,-4087,-14804,18213.875178006463
1735579893107,142,-97,969,984.141250024609,9796,-4095,-16507,19626.81048973572
1735579893136,142,-97,969,984.141250024609,9801,-4100,17783,20714.842263459308
1735579893167,142,-97,969,984.141250024609,9807,-4105,16073,19270.952311704787
1735579893197,146,-108,969,985.8706811747675,9815,-4108,14365,17876.32831428199
1735579893227,146,-108,969,985.8706811747675,9826,-4110,12660,16544.424317576
1735579893257,146,-108,969,985.8706811747675,9835,-4109,10954,15284.018516084046
1735579893287,152,-103,972,989.1900727362765,9842,-4106,9250,14116.894134334223
1735579893317,152,-103,972,989.1900727362765,9837,-4104,7553,13063.582739815292
1735579893347,152,-103,972,989.1900727362765,9833,-4104,5856,12158.266364905812
1735579893377,156,-108,977,995.2532341067774,9830,-4104,4159,11435.42727666964
1735579893407,156,-108,977,995.2532341067774,9830,-4105,2466,10934.398977538729
1735579893436,156,-108,977,995.2532341067774,9830,-4106,774,10681.161547322463
1735579893467,156,-108,977,995.2532341067774,9831,-4107,-918,10693.86431557835
1735579893497,149,-121,974,992.7325923933394,9842,-4107,-2617,10980.942673559497
1735579893527,149,-121,974,992.7325923933394,9855,-4102,-4318,11514.883976836241
1735579893557,149,-121,974,992.7325923933394,9865,-4095,-6018,12259.835806404586
1735579893587,149,-111,977,994.5104323233618,9871,-4086,-7717,13178.927346335891
1735579893617,149,-111,977,994.5104323233618,9866,-4077,-9415,14233.836798277547
1735579893647,149,-111,977,994.5104323233618,9859,-4069,-11114,15403.81894206758
1735579893677,147,-107,964,980.9964322055407,9852,-4063,-12811,16664.08095275584
1735579893706,147,-107,964,980.9964322055407,9842,-4059,-14511,17997.487769130446
1735579893736,147,-107,964,980.9964322055407,9833,-4056,-16210,19388.22129541542
1735579893767,147,-107,964,980.9964322055407,9825,-4056,-17910,20826.66226259023
1735579893827,146,-107,970,986.7446478192826,9820,-4056,16388,19530.74704152404
1735579893828,146,-107,970,986.7446478192826,9816,-4057,14686,18124.340015570222
1735579893857,146,-107,970,986.7446478192826,9813,-4059,12984,16773.63127053889
1735579893887,145,-102,975,990.9863773029375,9809,-4062,11281,15491.200276285888
1735579893917,145,-102,975,990.9863773029375,9805,-4067,9579,14298.103195878815
1735579893947,145,-102,975,990.9863773029375,9802,-4072,7876,13217.101195042731
1735579893977,143,-111,972,988.7133052609336,9801,-4077,6173,12279.554511463353
1735579894007,143,-111,972,988.7133052609336,9811,-4081,4466,11526.293333071131
1735579894037,143,-111,972,988.7133052609336,9820,-4083,2759,10987.054655366013
1735579894067,143,-111,972,988.7133052609336,9828,-4083,1053,10694.357484206332
1735579894097,168,-104,972,991.8790248815628,9818,-4085,-634,10652.80737646185
1735579894127,168,-104,972,991.8790248815628,9803,-4092,-2312,10871.458825751031
1735579894156,168,-104,972,991.8790248815628,9793,-4101,-3990,11342.008199609098
1735579894187,147,-109,969,986.1293018666466,9794,-4111,-5678,12044.187021131813
1735579894217,147,-109,969,986.1293018666466,9809,-4118,-7381,12948.110518527405
1735579894247,147,-109,969,986.1293018666466,9822,-4121,-9084,13999.049289148174
1735579894277,154,-108,979,996.905712693031,9834,-4121,-10788,15168.09615607707
1735579894307,154,-108,979,996.905712693031,9840,-4121,-12484,16421.281831818123
1735579894337,154,-108,979,996.905712693031,9844,-4120,-14181,17747.66173331011
1735579894366,154,-108,979,996.905712693031,9847,-4118,-15877,19131.138544268608
1735579894397,152,-101,964,981.1223165334687,9846,-4115,-17574,20560.214420088134
1735579894427,152,-101,964,981.1223165334687,9843,-4113,16727,19839.20227730944
1735579894456,152,-101,964,981.1223165334687,9840,-4112,15029,18428.3744535431
1735579894486,140,-102,978,993.2210227336109,9841,-4110,13326,17068.08885024917
1735579894517,140,-102,978,993.2210227336109,9846,-4106,11615,15770.579475719971
1735579894547,140,-102,978,993.2210227336109,9849,-4100,9903,14556.174291344549
1735579894577,147,-95,969,984.6801511150715,9850,-4094,8192,13449.617094921326
1735579894607,147,-95,969,984.6801511150715,9840,-4091,6490,12477.25855306365
1735579894636,147,-95,969,984.6801511150715,9831,-4091,4788,11675.17819992483
1735579894667,147,-95,969,984.6801511150715,9823,-4091,3085,11079.026807441167
1735579894697,149,-115,979,996.9287838155742,9825,-4093,1385,10733.196122311378
1735579894727,149,-115,979,996.9287838155742,9832,-4093,-312,10654.492808200679
1735579894757,149,-115,979,996.9287838155742,9837,-4092,-2011,10842.285460178588
1735579894787,155,-105,972,989.8656474491879,9838,-4089,-3709,11281.083547248465
1735579894817,155,-105,972,989.8656474491879,9831,-4089,-5402,11939.434073690427
1735579894847,155,-105,972,989.8656474491879,9825,-4090,-7095,12790.533608884345
1735579894877,160,-110,972,991.2033091147346,9821,-4091,-8789,13799.813150908964
1735579894907,160,-110,972,991.2033091147346,9818,-4095,-10477,14930.829782701296
1735579894937,160,-110,972,991.2033091147346,9817,-4098,-12166,16161.022523343008
1735579894967,160,-110,972,991.2033091147346,9817,-4102,-13854,17468.06254282369
1735579894997,151,-107,968,985.532343457078,9821,-4105,-15549,18843.41972679057
1735579895027,151,-107,968,985.532343457078,9826,-4107,-17248,20270.94543922409
1735579895057,151,-107,968,985.532343457078,9831,-4107,17053,20107.730329403166
1735579895087,160,-103,977,995.3582269715763,9831,-4107,15357,18690.99941148145
1735579895117,160,-103,977,995.3582269715763,9826,-4110,13668,17327.91389636964
1735579895146,160,-103,977,995.3582269715763,9821,-4113,11978,16026.2688733217
1735579895176,144,-108,977,993.4430028944792,9818,-4117,10289,14805.61832548712
1735579895206,144,-108,977,993.4430028944792,9831,-4117,8582,13683.894694128569
1735579895236,144,-108,977,993.4430028944792,9841,-4115,6875,12690.316426314988
1735579895266,144,-108,977,993.4430028944792,9849,-4111,5169,11858.401367806708
1735579895297,160,-101,979,997.116843704889,9844,-4107,3474,11217.863477507648
1735579895327,160,-101,979,997.116843704889,9835,-4107,1784,10806.356000058484
1735579895357,160,-101,979,997.116843704889,9827,-4108,95,10651.50778059144
1735579895387,148,-105,975,991.7429102343006,9824,-4110,-1598,10768.318345962845
1735579895417,148,-105,975,991.7429102343006,9829,-4111,-3300,11153.455159725168
1735579895446,148,-105,975,991.7429102343006,9832,-4110,-5002,11772.014610932149
1735579895477,148,-105,974,990.7598094392,9835,-4109,-6704,12591.85141271926
1735579895507,148,-105,974,990.7598094392,9838,-4107,-8406,13576.24870868238
1735579895536,148,-105,974,990.7598094392,9840,-4104,-10108,14691.496860429164
1735579895567,148,-105,974,990.7598094392,9841,-4102,-11810,15910.618624051045
1735579895597,146,-105,971,987.5130378886145,9842,-4098,-13512,17211.412260474153
1735579895626,146,-105,971,987.5130378886145,9842,-4095,-15215,18577.680533371222
1735579895657,146,-105,971,987.5130378886145,9841,-4091,-16918,19995.006526630594
1735579895687,143,-107,968,984.3383564608259,9841,-4088,17377,20384.237881265024
1735579895717,143,-107,968,984.3383564608259,9843,-4084,15670,18950.266620815655
1735579895747,143,-107,968,984.3383564608259,9844,-4079,13963,17564.39426795015
1735579895777,154,-110,975,993.1973620585186,9843,-4074,12256,16238.585560325135
1735579895807,154,-110,975,993.1973620585186,9836,-4072,10563,14996.834632681657
1735579895837,154,-110,975,993.1973620585186,9829,-4071,8869,13850.683845933385
1735579895867,154,-110,975,993.1973620585186,9824,-4071,7176,12828.834436533974
1735579895897,149,-103,976,992.666107006782,9818,-4074,5479,11958.68057103291
1735579895927,149,-103,976,992.666107006782,9813,-4077,3779,11278.197506694056
1735579895957,149,-103,976,992.666107006782,9810,-4082,2080,10827.059804028055
1735579895987,144,-102,969,984.9370538262839,9809,-4086,378,10632.721241526084
1735579896017,144,-102,969,984.9370538262839,9812,-4089,-1326,10712.307921265146
1735579896047,144,-102,969,984.9370538262839,9814,-4092,-3031,11056.492255683988
1735579896076,148,-102,977,993.3966982026868,9818,-4094,-4737,11644.446272794597
1735579896107,148,-102,977,993.3966982026868,9819,-4096,-6441,12436.899050808444
1735579896136,148,-102,977,993.3966982026868,9820,-4097,-8144,13399.348678200744
1735579896167,148,-102,977,993.3966982026868,9821,-4098,-9847,14498.588000215745
1735579896197,155,-108,966,984.2992431166449,9822,-4100,-11544,15701.771237666151
1735579896227,155,-108,966,984.2992431166449,9823,-4102,-13240,16988.682497474605
1735579896257,155,-108,966,984.2992431166449,9824,-4104,-14935,18341.428979226235
1735579896287,149,-95,972,987.9321839073773,9823,-4106,-16631,19746.916873274167
1735579896317,149,-95,972,987.9321839073773,9819,-4109,17666,20624.84419335089
1735579896347,149,-95,972,987.9321839073773,9816,-4112,15965,19187.069213405157
1735579896377,146,-99,968,983.9415633054638,9815,-4116,14263,17796.31562992745
1735579896407,146,-99,968,983.9415633054638,9819,-4118,12557,16463.563830471216
1735579896437,146,-99,968,983.9415633054638,9824,-4120,10852,15206.948411828062
1735579896467,146,-99,968,983.9415633054638,9828,-4120,9146,14043.265289810628
1735579896498,145,-106,976,992.3895404527398,9837,-4120,7439,13003.064638768816
1735579896527,145,-106,976,992.3895404527398,9847,-4117,5733,12115.295580381026
1735579896557,145,-106,976,992.3895404527398,9853,-4112,4027,11410.823020273341
1735579896587,151,-104,968,985.2111448821516,9855,-4106,2324,10926.172111036874
1735579896617,151,-104,968,985.2111448821516,9851,-4102,626,10689.269432472924
1735579896647,151,-104,968,985.2111448821516,9846,-4098,-1071,10718.41224249189
1735579896676,148,-104,961,977.8757589796364,9842,-4095,-2769,11013.68920934307
1735579896706,148,-104,961,977.8757589796364,9841,-4092,-4470,11557.27671209788
1735579896736,148,-104,961,977.8757589796364,9838,-4089,-6170,12311.582554651533
1735579896767,148,-104,961,977.8757589796364,9836,-4087,-7871,13243.983766223817
1735579896826,148,-95,975,990.7340712825011,9828,-4085,-9571,14313.659560014692
1735579896827,148,-95,975,990.7340712825011,9818,-4086,-11271,15495.933692423958
1735579896857,148,-95,975,990.7340712825011,9810,-4088,-12972,16769.634104535497
1735579896886,152,-105,958,975.6500397171109,9800,-4095,-14661,18103.975972144905
1735579896916,152,-105,958,975.6500397171109,9795,-4107,-16342,19490.265211125272
1735579896947,152,-105,958,975.6500397171109,9793,-4119,17974,20879.025025129886
1735579896976,150,-113,966,984.0858702369422,9797,-4130,16286,19449.213480241302
1735579897006,150,-113,966,984.0858702369422,9817,-4136,14586,18061.876452904886
1735579897036,150,-113,966,984.0858702369422,9835,-4137,12886,16729.942916818334
1735579897067,150,-113,966,984.0858702369422,9850,-4135,11187,15468.344901766317
1735579897096,144,-105,970,986.2357730279307,9859,-4130,9483,14289.299143065065
1735579897126,144,-105,970,986.2357730279307,9865,-4123,7777,13221.160425620741
1735579897156,144,-105,970,986.2357730279307,9868,-4115,6071,12295.027043483882
1735579897186,145,-103,974,990.1060549254307,9868,-4106,4366,11545.501981291241
1735579897216,145,-103,974,990.1060549254307,9864,-4097,2663,11007.97320127552
1735579897246,145,-103,974,990.1060549254307,9859,-4090,960,10716.789677883951
1735579897276,147,-104,974,990.5054265373815,9852,-4083,-742,10690.33942398463
1735579897306,147,-104,974,990.5054265373815,9845,-4078,-2442,10932.40472174352
1735579897336,147,-104,974,990.5054265373815,9837,-4075,-4142,11424.900787315399
1735579897367,148,-109,973,990.2090688334459,9831,-4073,-5843,12139.956301404054
1735579897396,148,-109,973,990.2090688334459,9829,-4072,-7541,13040.59454166105
1735579897426,148,-109,973,990.2090688334459,9827,-4072,-9240,14090.021752999532
1735579897455,148,-109,973,990.2090688334459,9826,-4071,-10938,15256.577630648362
1735579897487,152,-105,979,996.2780736320558,9821,-4072,-12635,16512.9176707207
1735579897516,152,-105,979,996.2780736320558,9816,-4074,-14331,17841.77381876589
1735579897546,152,-105,979,996.2780736320558,9812,-4077,-16026,19228.36313886338
1735579897576,145,-108,979,995.5551215276831,9810,-4081,-17723,20663.86677270254
1735579897607,145,-108,979,995.5551215276831,9814,-4085,16572,19688.397725564162
1735579897636,145,-108,979,995.5551215276831,9819,-4088,14868,18280.64356088155
1735579897667,146,-100,971,986.9939209539236,9824,-4089,13164,16926.954628638905
1735579897697,146,-100,971,986.9939209539236,9821,-4090,11460,15636.871202385726
1735579897727,146,-100,971,986.9939209539236,9819,-4091,9756,14433.591999221815
1735579897756,146,-100,971,986.9939209539236,9818,-4092,8052,13340.625622511112
1735579897787,144,-102,972,987.8886576937707,9819,-4094,6347,12387.81683752226
1735579897816,144,-102,972,987.8886576937707,9822,-4095,4640,11609.061503842591
1735579897846,144,-102,972,987.8886576937707,9824,-4096,2934,11040.676971997686
1735579897876,145,-105,966,982.4489808636375,9826,-4096,1229,10716.246217776074
1735579897906,145,-105,966,982.4489808636375,9830,-4095,-473,10659.345852349477
1735579897936,145,-105,966,982.4489808636375,9832,-4094,-2176,10870.328237914437
1735579897966,156,-106,981,998.9659653862087,9834,-4092,-3880,11336.067219278475
1735579897997,156,-106,981,998.9659653862087,9829,-4091,-5572,12016.351609369625
1735579898026,156,-106,981,998.9659653862087,9825,-4092,-7265,12886.245147443067
1735579898056,156,-106,981,998.9659653862087,9822,-4094,-8957,13909.003163419009
1735579898086,147,-107,972,988.8589383729106,9824,-4096,-10656,15061.15958351149
1735579898116,147,-107,972,988.8589383729106,9828,-4097,-12358,16312.42339445614
1735579898146,147,-107,972,988.8589383729106,9831,-4097,-14060,17638.525165103798
1735579898176,152,-108,968,985.7951105579699,9834,-4096,-15760,19022.68046306829
1735579898207,152,-108,968,985.7951105579699,9834,-4095,-17456,20449.658114501573
1735579898236,152,-108,968,985.7951105579699,9834,-4095,16847,19932.335287165926
1735579898267,143,-98,977,992.261054360192,9834,-4094,15151,18520.831325834162
1735579898297,143,-98,977,992.261054360192,9831,-4092,13445,17151.123869880947
1735579898326,143,-98,977,992.261054360192,9828,-4091,11740,15847.822090116988
1735579898356,143,-98,977,992.261054360192,9826,-4090,10034,14627.355605166642
1735579898386,144,-116,972,989.4321603829138,9833,-4089,8328,13519.00122050442
1735579898416,144,-116,972,989.4321603829138,9843,-4086,6623,12547.676039809125
1735579898446,144,-116,972,989.4321603829138,9851,-4080,4919,11742.451277310032
1735579898476,153,-100,973,990.0191917331704,9848,-4075,3218,11133.025330070888
1735579898506,153,-100,973,990.0191917331704,9832,-4073,1524,10750.819922219885
1735579898536,153,-100,973,990.0191917331704,9818,-4075,-168,10631.414440233248
1735579898567,158,-109,962,980.9633020658825,9807,-4079,-1863,10783.610666191542
1735579898597,158,-109,962,980.9633020658825,9804,-4085,-3552,11199.21180262254
1735579898626,158,-109,962,980.9633020658825,9803,-4092,-5241,11845.30936700262
1735579898657,158,-109,962,980.9633020658825,9804,-4099,-6931,12686.960944213552
1735579898687,151,-108,976,993.4993709107218,9810,-4105,-8627,13693.511383133255
1735579898716,151,-108,976,993.4993709107218,9818,-4109,-10326,14829.13621894411
1735579898746,151,-108,976,993.4993709107218,9826,-4111,-12025,16063.972796291708
1735579898776,149,-117,967,985.3826667848384,9834,-4112,-13724,17377.11932398463
1735579898806,149,-117,967,985.3826667848384,9847,-4110,-15425,18755.962625256
1735579898836,149,-117,967,985.3826667848384,9856,-4105,-17124,20179.770489279603
1735579898867,151,-107,978,995.3562176427091,9863,-4098,17175,20225.05866493346
1735579898897,151,-107,978,995.3562176427091,9857,-4091,15476,18799.024070413867
1735579898927,151,-107,978,995.3562176427091,9851,-4085,13778,17423.051110525965
1735579898957,151,-107,978,995.3562176427091,9845,-4080,12079,16108.155263716575
1735579898987,151,-99,970,986.6620495387466,9834,-4077,10383,14870.64806926719
1735579899017,151,-99,970,986.6620495387466,9822,-4077,8686,13730.994465077903
1735579899047,151,-99,970,986.6620495387466,9812,-4079,6988,12717.929430532315
1735579899077,145,-105,968,984.4155626563407,9809,-4083,5289,11868.48309599841
1735579899107,145,-105,968,984.4155626563407,9813,-4087,3585,11218.322646456554
1735579899137,145,-105,968,984.4155626563407,9818,-4089,1881,10800.518783836265
1735579899167,151,-111,972,989.9020153530348,9821,-4091,177,10640.4723109456
1735579899197,151,-111,972,989.9020153530348,9825,-4092,-1520,10751.069202642126
1735579899225,151,-111,972,989.9020153530348,9827,-4092,-3218,11120.697684947649
1735579899255,151,-111,972,989.9020153530348,9830,-4092,-4916,11727.762787505551
1735579899286,147,-103,975,991.3843855942054,9828,-4091,-6617,12534.374894664672
1735579899315,147,-103,975,991.3843855942054,9826,-4090,-8320,13509.28480712432
1735579899346,147,-103,975,991.3843855942054,9824,-4091,-10023,14618.74775758854
1735579899376,145,-110,974,990.8587184861422,9826,-4091,-11725,15835.472269559881
1735579899406,145,-110,974,990.8587184861422,9833,-4090,-13427,17137.68706681272
1735579899435,145,-110,974,990.8587184861422,9838,-4088,-15130,18504.45589581061
1735579899466,151,-100,972,988.7289820774953,9843,-4084,-16834,19923.535353947602
1735579899496,151,-100,972,988.7289820774953,9834,-4081,17464,20453.689471584337
1735579899525,151,-100,972,988.7289820774953,9826,-4080,15763,19017.593039078314
1735579899556,151,-100,972,988.7289820774953,9820,-4081,14062,17630.280910978134
1735579899585,201,-132,966,995.4802860930998,9795,-4094,12413,16333.567583354226
1735579899615,201,-132,966,995.4802860930998,9776,-4113,10782,15124.10225434885
1735579899645,201,-132,966,995.4802860930998,9765,-4136,9150,14006.577776173594
1735579899675,156,-103,997,1014.3736983971933,9785,-4153,7479,12997.271829118601
1735579899705,156,-103,997,1014.3736983971933,9820,-4157,5763,12121.271302961582
1735579899736,156,-103,997,1014.3736983971933,9849,-4155,4048,11430.360011828148
1735579899766,149,-104,969,985.8894461348087,9864,-4148,2341,10953.75191429859
1735579899796,149,-104,969,985.8894461348087,9865,-4140,643,10717.801733564584
1735579899826,149,-104,969,985.8894461348087,9863,-4133,-1054,10745.76074552193
1735579899856,149,-104,969,985.8894461348087,9860,-4126,-2752,11037.072981547237
1735579899885,149,-104,962,979.01021445131,9862,-4121,-4454,11579.28326797475
1735579899916,149,-104,962,979.01021445131,9862,-4115,-6155,12331.921748048842
1735579899946,149,-104,962,979.01021445131,9860,-4109,-7856,13259.721603412343
1735579899977,151,-109,965,982.8056776392777,9858,-4103,-9556,14329.407140562376
1735579900007,151,-109,965,982.8056776392777,9857,-4099,-11252,15510.311215446323
1735579900037,151,-109,965,982.8056776392777,9854,-4095,-12949,16779.36059568421
1735579900067,153,-107,962,979.9499987244247,9851,-4090,-14646,18118.377879931748
1735579900127,153,-107,962,979.9499987244247,9846,-4085,-16342,19511.327607315707
1735579900127,153,-107,962,979.9499987244247,9840,-4081,17962,20883.333187017823
1735579900157,153,-107,962,979.9499987244247,9834,-4078,16266,19440.17479345286
1735579900187,144,-105,976,992.1375912644374,9830,-4077,14567,18040.186196378352
1735579900217,144,-105,976,992.1375912644374,9828,-4075,12864,16693.642652219438
1735579900247,144,-105,976,992.1375912644374,9826,-4074,11161,15418.03077568598
1735579900277,153,-102,973,990.2232071608905,9821,-4074,9459,14231.029407600843
1735579900307,153,-102,973,990.2232071608905,9812,-4078,7763,13159.391969236269
1735579900337,153,-102,973,990.2232071608905,9805,-4084,6066,12231.657164914328
1735579900367,145,-106,967,983.539526404506,9802,-4090,4367,11483.814392439474
1735579900397,145,-106,967,983.539526404506,9812,-4092,2654,10957.350227130644
1735579900426,145,-106,967,983.539526404506,9821,-4092,941,10680.916908205962
1735579900455,145,-106,967,983.539526404506,9828,-4090,-771,10672.962334797214
1735579900486,155,-117,972,991.2103712128924,9835,-4089,-2471,10934.028854909795
1735579900516,155,-117,972,991.2103712128924,9840,-4087,-4167,11440.850405455007
1735579900547,155,-117,972,991.2103712128924,9845,-4083,-5862,12163.797022311743
1735579900577,151,-107,981,998.3040618969753,9843,-4080,-7556,13062.319281046532
1735579900607,151,-107,981,998.3040618969753,9837,-4078,-9252,14106.599767484722
1735579900637,151,-107,981,998.3040618969753,9832,-4077,-10948,15269.212717098417
1735579900667,146,-106,969,985.6535902638411,9827,-4077,-12644,16524.60571390434
1735579900697,146,-106,969,985.6535902638411,9824,-4076,-14347,17859.483783133262
1735579900726,146,-106,969,985.6535902638411,9822,-4077,-16049,19252.63654671744
1735579900756,146,-106,969,985.6535902638411,9821,-4077,-17751,20692.31671418162
1735579900785,156,-98,966,983.4103924608485,9810,-4081,16553,19669.582354488364
1735579900817,156,-98,966,983.4103924608485,9799,-4088,14861,18264.212712296143
1735579900847,156,-98,966,983.4103924608485,9791,-4097,13168,16912.87420872041
1735579900877,152,-103,973,990.1727122073199,9791,-4107,11473,15632.045899369667
1735579900907,152,-103,973,990.1727122073199,9799,-4115,9773,14438.322444106863
1735579900937,152,-103,973,990.1727122073199,9808,-4121,8072,13354.276056754255
1735579900967,144,-99,971,986.5992094057242,9816,-4126,6372,12408.872470937882
1735579900997,144,-99,971,986.5992094057242,9825,-4127,4662,11631.723775949977
1735579901027,144,-99,971,986.5992094057242,9833,-4125,2952,11064.25858338461
1735579901057,144,-99,971,986.5992094057242,9840,-4123,1242,10740.916767203813
1735579901087,147,-98,960,976.1214063834477,9839,-4119,-463,10676.44374311971
1735579901117,147,-98,960,976.1214063834477,9836,-4116,-2167,10880.45224243919
1735579901147,147,-98,960,976.1214063834477,9833,-4114,-3871,11340.084920316955
1735579901177,155,-101,971,988.466994896643,9831,-4114,-5572,12025.83639502883
1735579901207,155,-101,971,988.466994896643,9829,-4116,-7266,12897.497935646277
1735579901237,155,-101,971,988.466994896643,9828,-4118,-8961,13922.895855388706
1735579901267,151,-111,964,982.0478603408288,9828,-4120,-10656,15070.312538232245
1735579901297,151,-111,964,982.0478603408288,9839,-4120,-12355,16322.57167238055
1735579901327,151,-111,964,982.0478603408288,9848,-4117,-14053,17647.084801745586
1735579901357,145,-110,972,988.8928152231666,9853,-4112,-15751,19028.50897994901
1735579901387,145,-110,972,988.8928152231666,9859,-4105,-17455,20462.84269108278
1735579901417,145,-110,972,988.8928152231666,9861,-4096,16840,19939.96331491109
1735579901447,145,-110,972,988.8928152231666,9861,-4087,15137,18522.193687573836
1735579901477,150,-104,958,975.2333054197852,9852,-4083,13440,17157.109109637324
1735579901507,150,-104,958,975.2333054197852,9841,-4082,11746,15858.011256144322
1735579901537,150,-104,958,975.2333054197852,9832,-4083,10051,14641.096748536293
1735579901567,153,-125,976,995.796163880942,9825,-4085,8357,13529.866924696636
1735579901597,153,-125,976,995.796163880942,9836,-4086,6667,12565.47575700976
1735579901626,153,-125,976,995.796163880942,9845,-4084,4977,11763.231273761474
1735579901656,152,-98,968,984.749714394475,9852,-4080,3286,11158.230146398666
1735579901687,152,-98,968,984.749714394475,9835,-4075,1591,10764.020206224066
1735579901717,152,-98,968,984.749714394475,9820,-4075,-103,10632.433117588844
1735579901747,152,-98,968,984.749714394475,9808,-4077,-1799,10772.891626671086
1735579901777,144,-121,979,996.904208036058,9810,-4084,-3496,11186.472723785635
1735579901807,144,-121,979,996.904208036058,9821,-4089,-5196,11839.35716160299
1735579901837,144,-121,979,996.904208036058,9832,-4091,-6896,12686.974462022063
1735579901867,97,-108,936,947.1900548464389,9857,-4082,-8627,13720.360855312807
1735579901897,97,-108,936,947.1900548464389,9892,-4059,-10397,14913.911425243212
1735579901927,97,-108,936,947.1900548464389,9914,-4028,-12165,16201.8333839106
1735579901957,172,-117,996,1017.491523306214,9922,-3998,-13920,17555.52585370202
1735579901987,172,-117,996,1017.491523306214,9876,-3991,-15569,18864.178169217976
1735579902017,172,-117,996,1017.491523306214,9837,-3993,-17219,20228.80567408763
1735579902047,172,-117,996,1017.491523306214,9806,-4003,17130,20139.97380832458
1735579902077,156,-112,961,980.0005102039488,9783,-4012,15452,18723.448854311002
1735579902107,156,-112,961,980.0005102039488,9769,-4024,13768,17354.646668831952
1735579902137,156,-112,961,980.0005102039488,9760,-4039,12082,16048.23494967593
1735579902167,145,-104,966,982.3426082584426,9758,-4054,10390,14819.095114074948
1735579902197,145,-104,966,982.3426082584426,9760,-4069,8688,13685.602105862936
1735579902227,145,-104,966,982.3426082584426,9765,-4083,6985,12681.338218027307
1735579902256,132,-101,969,983.1510565523489,9772,-4095,5282,11838.94138003901
1735579902286,132,-101,969,983.1510565523489,9786,-4102,3563,11193.175108073669
1735579902317,132,-101,969,983.1510565523489,9800,-4106,1844,10784.22792785835
1735579902347,132,-101,969,983.1510565523489,9811,-4107,126,10636.68397575109
1735579902376,155,-106,969,987.0268486723145,9819,-4111,-1573,10760.455891829119
1735579902407,155,-106,969,987.0268486723145,9823,-4115,-3265,11139.334764697576
1735579902437,155,-106,969,987.0268486723145,9828,-4118,-4956,11751.997447242746
1735579902467,154,-108,953,971.385093564854,9833,-4121,-6652,12566.607895530122
1735579902497,154,-108,953,971.385093564854,9839,-4122,-8350,13546.929725956357
1735579902527,154,-108,953,971.385093564854,9845,-4123,-10047,14658.286496040388
1735579902557,127,-110,972,986.414213198492,9849,-4121,-11745,15872.317631650394
1735579902587,127,-110,972,986.414213198492,9870,-4110,-13472,17198.947177080347
1735579902617,127,-110,972,986.414213198492,9884,-4094,-15198,18585.841277703843
1735579902647,127,-110,972,986.414213198492,9892,-4077,-16922,20020.6812321659
1735579902677,126,-101,958,971.5147965934435,9870,-4059,17354,20372.866685864316
1735579902707,126,-101,958,971.5147965934435,9846,-4046,15632,18912.251478869457
1735579902736,126,-101,958,971.5147965934435,9823,-4038,13910,17500.99634306573
1735579902767,153,-90,974,990.0429283621999,9798,-4040,12202,16162.029823014187
1735579902797,153,-90,974,990.0429283621999,9763,-4054,10515,14910.275316036254
1735579902827,153,-90,974,990.0429283621999,9738,-4074,8826,13759.520195123085
1735579902857,154,-104,972,989.6039611885151,9730,-4097,7135,12742.312741413938
1735579902886,154,-104,972,989.6039611885151,9752,-4118,5440,11901.807761848617
1735579902916,154,-104,972,989.6039611885151,9775,-4133,3744,11253.881552602195
1735579902947,154,-104,972,989.6039611885151,9797,-4144,2048,10832.739681170226
1735579902977,149,-103,997,1013.3207784309961,9819,-4152,356,10666.705255138533
1735579903007,149,-103,997,1013.3207784309961,9839,-4155,-1337,10763.712881715119
1735579903037,149,-103,997,1013.3207784309961,9857,-4155,-3031,11118.067952661559
1735579903067,135,-113,963,978.9601626215441,9869,-4150,-4732,11705.190515322678
1735579903097,135,-113,963,978.9601626215441,9885,-4141,-6443,12504.93322653104
1735579903127,135,-113,963,978.9601626215441,9896,-4128,-8154,13470.668728760276
1735579903157,150,-98,963,979.5269266334642,9902,-4112,-9866,14570.384483602345
1735579903187,150,-98,963,979.5269266334642,9879,-4097,-11565,15752.119698631039
1735579903217,150,-98,963,979.5269266334642,9856,-4087,-13264,17022.86700294636
1735579903247,150,-98,963,979.5269266334642,9835,-4081,-14964,18365.812859767466
1735579903277,148,-102,972,988.4796406603426,9828,-4080,-16661,19769.291970123766
1735579903338,148,-102,972,988.4796406603426,9823,-4080,17640,20598.72153799842
1735579903338,148,-102,972,988.4796406603426,9819,-4081,15942,19162.846500454987
1735579903367,155,-118,955,974.6660966710599,9809,-4084,14250,17775.20849385458
1735579903397,155,-118,955,974.6660966710599,9803,-4089,12566,16453.664819729373
1735579903427,155,-118,955,974.6660966710599,9798,-4096,10881,15204.413208012995
1735579903456,169,-104,956,976.3774884746166,9802,-4104,9194,14051.749214955411
1735579903487,169,-104,956,976.3774884746166,9797,-4118,7518,13017.6594286377
1735579903517,169,-104,956,976.3774884746166,9797,-4133,5842,12132.26532845371
1735579903547,169,-104,956,976.3774884746166,9800,-4148,4165,11427.735077433323
1735579903577,142,-104,977,992.7280594402478,9821,-4153,2464,10943.98218200304
1735579903607,142,-104,977,992.7280594402478,9844,-4151,753,10709.908776455568
1735579903666,142,-104,977,992.7280594402478,9863,-4144,-956,10740.83055447762
1735579903667,143,-110,971,987.6183473386873,9871,-4132,-2663,11027.313090685328
1735579903697,143,-110,971,987.6183473386873,9874,-4118,-4368,11555.65766194205
1735579903727,143,-110,971,987.6183473386873,9872,-4104,-6073,12295.54915406384
1735579903757,158,-103,974,992.0932415856888,9871,-4093,-7776,13215.727978435392
1735579903787,158,-103,974,992.0932415856888,9857,-4091,-9464,14264.081673910872
1735579903817,158,-103,974,992.0932415856888,9846,-4091,-11151,15428.052307404198
1735579903847,158,-103,974,992.0932415856888,9836,-4094,-12839,16683.754163856527
1735579903877,162,-103,976,994.7004574242438,9824,-4097,-14526,18008.36086377658
1735579903907,162,-103,976,994.7004574242438,9813,-4102,-16212,19389.43828479825
1735579903967,162,-103,976,994.7004574242438,9805,-4109,-17898,20817.307943151536
1735579903968,143,-113,978,994.8376752013365,9813,-4113,16405,19553.407963830756
1735579903997,143,-113,978,994.8376752013365,9835,-4111,14695,18154.078632637902
1735579904027,143,-113,978,994.8376752013365,9852,-4104,12986,16808.953447493393
1735579904057,130,-107,974,988.4457496494181,9863,-4094,11279,15532.399878962684
1735579904087,130,-107,974,988.4457496494181,9871,-4084,9561,14336.262344139772
1735579904117,130,-107,974,988.4457496494181,9874,-4072,7843,13251.026714937978
1735579904146,130,-107,974,988.4457496494181,9874,-4059,6127,12309.000203103418
1735579904177,154,-95,971,987.715546096142,9847,-4051,4431,11532.899505328225
1735579904207,154,-95,971,987.715546096142,9816,-4051,2743,10967.611681674365
1735579904237,154,-95,971,987.715546096142,9790,-4057,1055,10649.712390482666
1735579904266,156,-109,962,980.6431563010063,9777,-4069,-637,10609.064944659354
1735579904296,156,-109,962,980.6431563010063,9777,-4082,-2330,10848.103659165505
1735579904327,156,-109,962,980.6431563010063,9780,-4095,-4025,11340.989815708328
1735579904357,153,-99,979,995.8167502105997,9788,-4107,-5721,12058.284869748268
1735579904387,153,-99,979,995.8167502105997,9795,-4116,-7420,12959.162048527674
1735579904417,153,-99,979,995.8167502105997,9802,-4124,-9119,14008.666638906074
1735579904447,153,-99,979,995.8167502105997,9810,-4130,-10819,15177.080121024597
1735579904477,136,-104,977,991.8875944379988,9832,-4130,-12532,16455.277208239306
1735579904507,136,-104,977,991.8875944379988,9854,-4124,-14250,17809.300716198824
1735579904537,136,-104,977,991.8875944379988,9870,-4114,-15967,19216.841181630243
1735579904567,148,-111,965,982.5731524929836,9878,-4104,-17676,20660.55846292641
1735579904597,148,-111,965,982.5731524929836,9880,-4097,16626,19769.26111416408
1735579904627,148,-111,965,982.5731524929836,9880,-4089,14929,18363.26120273847
1735579904657,156,-93,980,996.6870120554396,9879,-4081,13233,17010.628765568898
1735579904687,156,-93,980,996.6870120554396,9861,-4074,11544,15719.438062475389
1735579904717,156,-93,980,996.6870120554396,9845,-4072,9856,14513.646853909599
1735579904747,156,-93,980,996.6870120554396,9830,-4072,8167,13413.052337182615
1735579904777,153,-109,973,990.9687179724696,9825,-4074,6475,12452.057099130248
1735579904807,153,-109,973,990.9687179724696,9826,-4076,4782,11663.25752095014
1735579904837,153,-109,973,990.9687179724696,9827,-4078,3089,11078.89588361584
1735579904867,147,-108,956,973.2466285582499,9833,-4079,1393,10736.227410035614
1735579904897,147,-108,956,973.2466285582499,9840,-4078,-306,10655.952327220688
1735579904927,147,-108,956,973.2466285582499,9847,-4076,-2005,10844.22473024236
1735579904957,143,-104,982,997.7920625060113,9855,-4073,-3707,11289.473105508512
1735579904987,143,-104,982,997.7920625060113,9869,-4065,-5418,11969.799914785543
1735579905017,143,-104,982,997.7920625060113,9878,-4054,-7129,12838.708696749842
1735579905047,143,-104,982,997.7920625060113,9883,-4042,-8838,13860.79712714965
1735579905076,155,-138,995,1016.4123179104039,9880,-4031,-10535,14994.985361780118
1735579905107,155,-138,995,1016.4123179104039,9881,-4020,-12227,16226.339390016468
1735579905137,155,-138,995,1016.4123179104039,9879,-4009,-13918,17532.1831498533
1735579905167,166,-89,961,979.2844326343599,9843,-3998,-15602,18875.67368334174
1735579905197,166,-89,961,979.2844326343599,9775,-4000,-17277,20249.576637549733
1735579905227,166,-89,961,979.2844326343599,9720,-4016,17045,20028.44679449707
1735579905257,191,235,1073,1114.9147949507174,9696,-4040,15358,18606.509076127095
1735579905287,191,235,1073,1114.9147949507174,9433,-4106,13678,17115.151445429867
1735579905317,191,235,1073,1114.9147949507174,9233,-4221,11993,15712.962133219822
1735579905347,219,-177,1047,1084.20431653817,9055,-4382,10340,14426.037189748264
1735579905377,219,-177,1047,1084.20431653817,9183,-4557,8790,13503.993409358582
1735579905407,219,-177,1047,1084.20431653817,9332,-4706,7225,12705.639889434928
1735579905437,219,-177,1047,1084.20431653817,9491,-4826,5647,12052.301274030615
1735579905467,58,-101,922,929.3271759719502,9828,-4851,3789,11596.478172272822
1735579905497,58,-101,922,929.3271759719502,10132,-4797,1873,11365.595540929653
1735579905527,58,-101,922,929.3271759719502,10355,-4684,-19,11365.13273129707
1735579905557,142,-102,970,985.6307625069339,10483,-4537,-1871,11574.89952440193
1735579905587,142,-102,970,985.6307625069339,10460,-4413,-3581,11904.18959862451
1735579905617,142,-102,970,985.6307625069339,10409,-4293,-5282,12436.906930583666
1735579905647,146,-97,978,993.5839169390777,10339,-4180,-6973,13152.56819028132
1735579905677,146,-97,978,993.5839169390777,10250,-4078,-8649,14017.766762220008
1735579905707,146,-97,978,993.5839169390777,10153,-3994,-10323,15019.979161104053
1735579905737,146,-97,978,993.5839169390777,10054,-3929,-11996,16137.65698606833
1735579905767,147,-119,982,1000.046998895552,9985,-3889,-13685,17381.132615569102
1735579905796,147,-119,982,1000.046998895552,9926,-3861,-15372,18701.101063841135
1735579905826,147,-119,982,1000.046998895552,9870,-3846,-17060,20081.140804247152
1735579905856,115,-130,966,981.4687972625518,9826,-3846,17248,20219.680907472302
1735579905887,115,-130,966,981.4687972625518,9806,-3852,15539,18773.813171542963
1735579905917,115,-130,966,981.4687972625518,9791,-3861,13829,17378.49944615472
1735579905947,187,-86,937,959.3403983988165,9782,-3867,12107,16038.100323916171
1735579905977,187,-86,937,959.3403983988165,9699,-3882,10440,14769.364407448276
1735579906006,187,-86,937,959.3403983988165,9635,-3913,8770,13603.59121702795
1735579906037,187,-86,937,959.3403983988165,9590,-3957,7099,12570.670228750732
1735579906067,319,-128,1044,1099.1273811528854,9539,-4028,5510,11729.339495470322
1735579906097,319,-128,1044,1099.1273811528854,9495,-4114,3968,11082.646119045758
1735579906127,319,-128,1044,1099.1273811528854,9478,-4207,2423,10649.04981676769
1735579906157,69,-112,947,956.0930917018488,9546,-4286,786,10493.507897743251
1735579906187,69,-112,947,956.0930917018488,9731,-4311,-1042,10694.056573630047
1735579906217,69,-112,947,956.0930917018488,9888,-4298,-2870,11157.161287711135
1735579906247,155,-108,1007,1024.567225710446,10000,-4256,-4682,11833.62412788238
1735579906277,155,-108,1007,1024.567225710446,9997,-4227,-6374,12587.113012919206
1735579906307,155,-108,1007,1024.567225710446,9987,-4199,-8065,13506.14656369462
1735579906337,155,-108,1007,1024.567225710446,9972,-4173,-9754,14560.055940826602
1735579906367,136,-108,980,995.2688079107071,9970,-4142,-11463,15746.664186423739
1735579906398,136,-108,980,995.2688079107071,9964,-4110,-13176,17022.936644421843
1735579906427,136,-108,980,995.2688079107071,9952,-4079,-14888,18366.629767053073
1735579906457,147,-104,971,987.5555680568056,9931,-4052,-16593,19757.81146787265
1735579906487,147,-104,971,987.5555680568056,9901,-4031,17710,20686.296478586977
1735579906517,147,-104,971,987.5555680568056,9871,-4017,16015,19236.76571048262
1735579906547,141,-115,984,1000.6807682772763,9845,-4009,14320,17834.19485146442
1735579906577,141,-115,984,1000.6807682772763,9835,-4005,12617,16491.086653098395
1735579906607,141,-115,984,1000.6807682772763,9826,-4003,10914,15221.356082819953
1735579906637,141,-115,984,1000.6807682772763,9819,-4003,9211,14045.614653691735
1735579906667,163,-109,978,997.4637838037028,9792,-4008,7525,12983.564726222148
1735579906697,163,-109,978,997.4637838037028,9765,-4022,5846,12070.93306252669
1735579906727,163,-109,978,997.4637838037028,9746,-4040,4165,11342.545613750028
1735579906757,146,-98,979,994.6662756925058,9737,-4060,2477,10836.433822988078
1735579906786,146,-98,979,994.6662756925058,9737,-4078,774,10584.815964389745
1735579906816,146,-98,979,994.6662756925058,9741,-4097,-929,10608.276532971791
1735579906846,175,-112,995,1016.4615093548796,9749,-4114,-2632,10903.917690445027
1735579906877,175,-112,995,1016.4615093548796,9752,-4132,-4300,11430.876081910783
1735579906906,175,-112,995,1016.4615093548796,9758,-4149,-5970,12168.552296801785
1735579906942,175,-112,995,1016.4615093548796,9767,-4165,-7640,13080.944690655946
1735579906966,146,-117,954,972.1733384535908,9792,-4163,-9343,14159.99583333272
1735579906997,146,-117,954,972.1733384535908,9819,-4153,-11056,15358.88361828424
1735579907027,146,-117,954,972.1733384535908,9838,-4137,-12767,16640.231428679108
1735579907057,165,-100,984,1002.7367550858002,9849,-4128,-14468,17982.386076380408
1735579907086,165,-100,984,1002.7367550858002,9844,-4126,-16154,19361.816237119907
1735579907117,165,-100,984,1002.7367550858002,9839,-4125,-17839,20785.847757548883
1735579907147,140,-100,964,979.2323524067207,9831,-4125,16477,19625.38445483298
1735579907176,140,-100,964,979.2323524067207,9838,-4123,14773,18221.60536286526
1735579907207,140,-100,964,979.2323524067207,9842,-4119,13069,16870.977624310926
1735579907240,140,-100,964,979.2323524067207,9845,-4115,11365,15589.11399021766
1735579907267,142,-113,989,1005.5118099753976,9871,-4120,9648,14404.6848282078
1735579907296,142,-113,989,1005.5118099753976,9897,-4119,7932,13335.418778576097
1735579907327,142,-113,989,1005.5118099753976,9918,-4114,6217,12407.369140958126
1735579907357,147,-103,975,991.3843855942054,9918,-4098,4511,11640.85258905034
1735579907387,147,-103,975,991.3843855942054,9900,-4083,2814,11072.465172670447
1735579907418,147,-103,975,991.3843855942054,9883,-4071,1117,10746.832975346737
1735579907446,160,-94,966,983.662543761833,9864,-4062,-579,10683.33192407687
1735579907477,160,-94,966,983.662543761833,9831,-4059,-2264,10874.269538686265
1735579907505,160,-94,966,983.662543761833,9804,-4063,-3950,11323.819364507719
1735579907536,160,-94,966,983.662543761833,9782,-4072,-5637,12001.853065256215
1735579907567,150,-108,968,985.4887112493983,9781,-4083,-7331,12887.29649693837
1735579907596,150,-108,968,985.4887112493983,9788,-4093,-9029,13931.275390286419
1735579907627,150,-108,968,985.4887112493983,9797,-4101,-10728,15096.005895600332
1735579907657,147,-107,971,987.8760043649203,9806,-4107,-12428,16354.82402840214
1735579907687,147,-107,971,987.8760043649203,9817,-4111,-14130,17689.847653385827
1735579907716,147,-107,971,987.8760043649203,9826,-4112,-15833,19082.52365385669
1735579907748,148,-102,963,979.631052999036,9833,-4111,-17536,20520.709198270903
1735579907776,148,-102,963,979.631052999036,9830,-4110,16760,19859.974823750406
1735579907807,148,-102,963,979.631052999036,9827,-4109,15057,18443.61838143481
1735579907837,148,-102,963,979.631052999036,9825,-4108,13354,17080.269465087487
1735579907867,148,-110,968,985.4075299083116,9830,-4106,11653,15788.620744067544
1735579907897,148,-110,968,985.4075299083116,9837,-4103,9952,14582.30029864973
1735579907927,148,-110,968,985.4075299083116,9841,-4098,8252,13480.88977033786
1735579907957,143,-107,971,987.2887115732661,9843,-4093,6549,12511.063064344293
1735579907987,143,-107,971,987.2887115732661,9845,-4088,4843,11708.561739171895
1735579908017,143,-107,971,987.2887115732661,9845,-4083,3138,11110.44364550759
1735579908047,139,-107,966,981.7973314284369,9845,-4078,1431,10751.83100685646
1735579908077,139,-107,966,981.7973314284369,9848,-4071,-281,10659.97682924311
1735579908108,139,-107,966,981.7973314284369,9849,-4065,-1994,10839.882932947201
1735579908136,139,-107,966,981.7973314284369,9848,-4058,-3706,11277.628474107489
1735579908167,166,-101,978,997.1163422590164,9825,-4055,-5392,11918.360373809814
1735579908197,166,-101,978,997.1163422590164,9798,-4059,-7069,12745.471587979788
1735579908228,166,-101,978,997.1163422590164,9778,-4069,-8746,13735.303454965966
1735579908257,156,-108,969,987.4011342914287,9768,-4083,-10429,14860.980923209612
1735579908288,156,-108,969,987.4011342914287,9773,-4096,-12121,16099.918819671111
1735579908317,156,-108,969,987.4011342914287,9779,-4108,-13814,17416.403216508283
1735579908347,152,-107,984,1001.4035150727203,9789,-4119,-15509,18796.80193543572
1735579908377,152,-107,984,1001.4035150727203,9803,-4127,-17211,20232.386389153406
1735579908407,152,-107,984,1001.4035150727203,9817,-4132,17086,20134.00876626411
1735579908437,152,-107,984,1001.4035150727203,9829,-4134,15383,18717.26171212018
1735579908467,141,-104,958,973.8896241361235,9838,-4133,13672,17343.34215196137
1735579908498,141,-104,958,973.8896241361235,9847,-4129,11957,16030.654977261534
1735579908527,141,-104,958,973.8896241361235,9853,-4123,10242,14797.94924981161
1735579908557,153,-100,975,991.9848789170126,9862,-4124,8539,13681.40858976151
1735579908587,153,-100,975,991.9848789170126,9867,-4130,6847,12700.236139536933
1735579908617,153,-100,975,991.9848789170126,9873,-4134,5156,11880.674265377365
1735579908648,135,-117,959,975.4973090685592,9872,-4132,3464,11248.51563540719
1735579908677,135,-117,959,975.4973090685592,9883,-4118,1754,10849.337721722926
1735579908707,135,-117,959,975.4973090685592,9888,-4101,44,10704.797102234119
1735579908738,135,-117,959,975.4973090685592,9888,-4084,-1663,10826.687812992484
1735579908767,141,-100,966,981.3444858967721,9881,-4069,-3372,11205.414137817486
1735579908797,141,-100,966,981.3444858967721,9866,-4057,-5079,11814.967033386085
1735579908827,141,-100,966,981.3444858967721,9850,-4048,-6785,12627.15443003688
1735579908857,164,-119,974,994.8532555105803,9838,-4046,-8481,13604.547805789063
1735579908887,164,-119,974,994.8532555105803,9830,-4050,-10160,14705.679175067025
1735579908917,164,-119,974,994.8532555105803,9824,-4055,-11839,15909.617280123366
1735579908947,127,-91,1000,1012.1314143924197,9814,-4055,-13515,17187.578247094614
1735579908977,127,-91,1000,1012.1314143924197,9798,-4042,-15224,18550.168301123307
1735579909007,127,-91,1000,1012.1314143924197,9781,-4033,-16933,19966.460352300805
1735579909037,155,-110,958,976.6724118147292,9770,-4030,17348,20313.712216136173
1735579909068,155,-110,958,976.6724118147292,9767,-4035,15641,18876.34485275155
1735579909097,155,-110,958,976.6724118147292,9765,-4042,13935,17489.34572818549
1735579909128,155,-110,958,976.6724118147292,9766,-4048,12227,16163.557436406132
1735579909157,153,-106,966,983.7687736455148,9761,-4051,10538,14924.38159522866
1735579909188,153,-106,966,983.7687736455148,9757,-4056,8847,13781.131811284587
1735579909217,153,-106,966,983.7687736455148,9755,-4061,7155,12761.10383156567
1735579909247,165,-121,962,983.5191914751841,9754,-4069,5466,11898.50549438878
1735579909277,165,-121,962,983.5191914751841,9759,-4083,3795,11238.816441245048
1735579909307,165,-121,962,983.5191914751841,9766,-4096,2122,10800.687755879253
1735579909337,148,-121,972,990.6205126081329,9783,-4100,439,10616.4876489355
1735579909368,148,-121,972,990.6205126081329,9822,-4077,-1283,10711.661962552776
1735579909397,148,-121,972,990.6205126081329,9847,-4048,-3004,11062.2659975251
1735579909427,148,-121,972,990.6205126081329,9860,-4014,-4723,11646.395365090437
1735579909456,130,-104,964,978.2699014075819,9851,-4011,-6453,12440.720678481614
1735579909486,130,-104,964,978.2699014075819,9843,-4010,-8189,13417.319777064271
1735579909517,130,-104,964,978.2699014075819,9835,-4011,-9926,14537.56588979049
1735579909547,169,-83,933,951.8082790142141,9818,-4072,-11683,15794.517941361806
1735579909577,169,-83,933,951.8082790142141,9770,-4270,-13447,17161.223994808763
1735579909607,169,-83,933,951.8082790142141,9784,-4472,-15228,18644.501173268218
1735579909637,147,-96,954,970.0211337903933,9859,-4626,-17016,20202.574415158084
1735579909668,147,-96,954,970.0211337903933,9994,-4668,17189,20423.809169692122
1735579909697,147,-96,954,970.0211337903933,10116,-4685,15391,19004.35639531105
1735579909727,147,-96,954,970.0211337903933,10219,-4678,13596,17639.808984226558
1735579909757,164,-97,950,968.9195013002886,10300,-4724,11756,16328.18765203291
1735579909787,164,-97,950,968.9195013002886,10377,-4757,9918,15122.099788058535
1735579909817,164,-97,950,968.9195013002886,10448,-4774,8078,14043.000534073906
1735579909846,124,-92,988,999.9919999679997,10516,-4728,6277,13127.869933846847
1735579909877,124,-92,988,999.9919999679997,10567,-4637,4482,12379.482299353233
1735579909908,124,-92,988,999.9919999679997,10581,-4536,2700,11824.671538778572
1735579909937,156,-85,953,969.4173507834487,10557,-4428,942,11486.72263963921
1735579909967,156,-85,953,969.4173507834487,10467,-4330,-745,11351.740571383756
1735579909997,156,-85,953,969.4173507834487,10369,-4249,-2429,11466.045656633327
1735579910027,156,-85,953,969.4173507834487,10270,-4187,-4112,11828.457760841013
1735579910057,137,-97,973,987.3737894029798,10212,-4110,-5817,12450.483243633558
1735579910087,137,-97,973,987.3737894029798,10152,-4043,-7526,13268.369492895501
1735579910117,137,-97,973,987.3737894029798,10087,-3988,-9233,14244.297174659057
1735579910147,129,-93,986,998.7422089808761,10013,-3945,-10943,15348.369392218836
1735579910176,129,-93,986,998.7422089808761,9941,-3917,-12658,16564.76181537181
1735579910207,129,-93,986,998.7422089808761,9874,-3903,-14373,17869.314872148847
1735579910237,122,-95,975,987.1848864321212,9814,-3916,-16093,19251.86487070798
1735579910267,122,-95,975,987.1848864321212,9770,-3966,-17829,20713.65001635395
1735579910297,122,-95,975,987.1848864321212,9747,-4024,16431,19523.686793226323
1735579910327,122,-95,975,987.1848864321212,9743,-4086,14687,18092.24734520286
1735579910357,157,-77,961,976.779913798395,9715,-4155,12990,16744.71110530128
1735579910386,157,-77,961,976.779913798395,9699,-4233,11301,15482.296050650886
1735579910417,157,-77,961,976.779913798395,9704,-4312,9607,14319.755898757492
1735579910448,147,-89,982,996.9222637698488,9759,-4376,7887,13288.800773583747
1735579910476,147,-89,982,996.9222637698488,9841,-4418,6149,12416.690621900829
1735579910508,147,-89,982,996.9222637698488,9919,-4443,4408,11728.48131686281
1735579910537,135,-99,987,1001.0968984069424,9984,-4451,2666,11251.631570576776
1735579910567,135,-99,987,1001.0968984069424,10043,-4442,912,11019.299297142265
1735579910597,135,-99,987,1001.0968984069424,10089,-4422,-840,11047.515784102778
1735579910627,135,-99,987,1001.0968984069424,10121,-4392,-2588,11332.345255947685
1735579910657,142,-94,975,989.7600719366285,10116,-4362,-4327,11835.684559838523
1735579910687,142,-94,975,989.7600719366285,10102,-4335,-6061,12553.021548615297
1735579910718,142,-94,975,989.7600719366285,10084,-4310,-7794,13453.980526223457
1735579910747,140,-91,979,993.1374527224316,10081,-4274,-9519,14508.79036997916
1735579910777,140,-91,979,993.1374527224316,10076,-4230,-11239,15675.898602632004
1735579910807,140,-91,979,993.1374527224316,10061,-4187,-12957,16930.40280087866
1735579910838,138,-97,972,986.5277492295896,10036,-4147,-14669,18250.985343262975
1735579910867,138,-97,972,986.5277492295896,10008,-4111,-16375,19626.538411039273
1735579910897,138,-97,972,986.5277492295896,9977,-4081,17920,20912.233022802706
1735579910927,138,-97,972,986.5277492295896,9944,-4058,16217,19451.004832655817
1735579910957,141,-90,977,991.2164243998382,9906,-4035,14515,18030.398941787174
1735579910987,141,-90,977,991.2164243998382,9868,-4020,12815,16666.194796653494
1735579911017,141,-90,977,991.2164243998382,9833,-4014,11114,15372.738240144467
1735579911047,144,-92,969,983.9517264581632,9804,-4016,9413,14172.199582280797
1735579911077,144,-92,969,983.9517264581632,9781,-4024,7712,13089.51798195793
1735579911106,144,-92,969,983.9517264581632,9764,-4037,6010,12155.375971149555
1735579911137,147,-79,963,977.3530580092335,9755,-4053,4305,11407.009204870486
1735579911168,147,-79,963,977.3530580092335,9741,-4071,2600,10872.90770677283
1735579911196,147,-79,963,977.3530580092335,9735,-4092,893,10597.742118017404
1735579911227,147,-79,963,977.3530580092335,9735,-4113,-814,10599.508950890131
1735579911274,123,-86,975,986.4836541980815,9756,-4130,-2540,10894.403884563855
1735579911286,123,-86,975,986.4836541980815,9785,-4140,-4275,11452.573946497792
1735579911318,123,-86,975,986.4836541980815,9810,-4143,-6010,12227.863631885988
1735579911347,147,-91,972,987.2557925887293,9823,-4146,-7730,13169.417033414957
1735579911376,147,-91,972,987.2557925887293,9824,-4152,-9429,14235.733946656912
1735579911408,147,-91,972,987.2557925887293,9826,-4157,-11128,15416.332540523379
1735579911449,141,-82,979,992.4948362586074,9829,-4161,-12829,16688.51110794489
1735579911465,141,-82,979,992.4948362586074,9832,-4162,-14543,18041.322484784756
1735579911498,141,-82,979,992.4948362586074,9834,-4162,-16256,19449.61017604209
1735579911526,141,-82,979,992.4948362586074,9835,-4161,-17970,20903.637147635338
1735579911556,141,-82,978,991.5084467618015,9837,-4158,16316,19500.44586669751
1735579911587,141,-82,978,991.5084467618015,9838,-4155,14602,18090.568620140166
1735579911617,141,-82,978,991.5084467618015,9838,-4151,12889,16737.483861082586
1735579911647,145,-83,972,986.2545310415562,9834,-4148,11178,15455.133257270867
1735579911678,145,-83,972,986.2545310415562,9827,-4146,9470,14263.244546736201
1735579911707,145,-83,972,986.2545310415562,9821,-4145,7763,13187.010085686596
1735579911740,138,-89,977,990.7037902420683,9814,-4142,6052,12251.427018923143
1735579911779,138,-89,977,990.7037902420683,9815,-4133,4323,11493.660992042527
1735579911799,138,-89,977,990.7037902420683,9814,-4123,2596,10956.867298639698
1735579911827,138,-89,977,990.7037902420683,9811,-4114,868,10673.993676220724
1735579911857,137,-93,971,985.0172587320488,9823,-4124,-838,10686.48440788644
1735579911887,137,-93,971,985.0172587320488,9837,-4131,-2546,10968.766840442913
1735579911917,137,-93,971,985.0172587320488,9850,-4135,-4255,11498.9456038369
1735579911947,143,-91,974,988.6384576780331,9852,-4130,-5965,12235.196320451912
1735579911977,143,-91,974,988.6384576780331,9845,-4124,-7673,13145.582147626632
1735579912007,143,-91,974,988.6384576780331,9839,-4119,-9381,14204.7612792331
1735579912037,149,-89,976,991.3112528363632,9829,-4104,-11100,15383.824524480251
1735579912067,149,-89,976,991.3112528363632,9802,-4071,-12836,16655.78401036709
1735579912097,149,-89,976,991.3112528363632,9772,-4044,-14571,18004.442812817062
1735579912127,149,-89,976,991.3112528363632,9741,-4023,-16304,19413.70716787497
1735579912157,130,-83,969,981.1982470428695,9707,-3985,17943,20785.98862214641
1735579912188,130,-83,969,981.1982470428695,9671,-3953,16186,19265.021308059848
1735579912218,130,-83,969,981.1982470428695,9634,-3930,14429,17789.179210969796
1735579912247,145,-94,984,999.0580563711,9612,-3954,12709,16417.77515377769
1735579912277,145,-94,984,999.0580563711,9609,-4000,11013,15153.186133615596
1735579912307,145,-94,984,999.0580563711,9617,-4046,9315,13986.637551606176
1735579912337,139,-81,973,986.2104237940299,9636,-4082,7606,12937.018821969767
1735579912366,139,-81,973,986.2104237940299,9652,-4098,5873,12018.603787462169
1735579912397,139,-81,973,986.2104237940299,9669,-4111,4139,11292.528636226698
1735579912427,139,-81,973,986.2104237940299,9687,-4121,2404,10798.139932414286
1735579912457,126,-86,965,976.9836231994884,9715,-4132,663,10578.006333898653
1735579912507,126,-86,965,976.9836231994884,9746,-4136,-1081,10642.3480961675
1735579912517,126,-86,965,976.9836231994884,9771,-4134,-2827,10979.723402709196
1735579912546,133,-76,982,993.8757467611331,9791,-4145,-4551,11565.306178394068
1735579912577,133,-76,982,993.8757467611331,9804,-4163,-6262,12355.631469091331
1735579912608,133,-76,982,993.8757467611331,9819,-4178,-7973,13320.554568035071
1735579912638,132,-85,979,991.5089510438119,9835,-4194,-9683,14424.886481355754
1735579912680,132,-85,979,991.5089510438119,9861,-4211,-11389,15642.2876523864
1735579912697,132,-85,979,991.5089510438119,9886,-4223,-13096,16943.197484536384
1735579912727,132,-85,979,991.5089510438119,9909,-4229,-14803,18308.50979735926
1735579912757,148,-84,980,994.6657730112161,9927,-4258,-16485,19708.655915612308
1735579912786,148,-84,980,994.6657730112161,9946,-4285,17837,20867.264075580202
1735579912819,148,-84,980,994.6657730112161,9968,-4308,16159,19468.77420383728
1735579912848,140,-89,985,998.8723642187724,9990,-4315,14475,18109.250398622247
1735579912877,140,-89,985,998.8723642187724,10014,-4312,12785,16802.671364994316
1735579912907,140,-89,985,998.8723642187724,10033,-4304,11096,15566.20445066812
1735579912937,140,-86,977,990.7194355618548,10044,-4285,9403,14410.39798201285
1735579912967,140,-86,977,990.7194355618548,10040,-4252,7699,13347.498080164687
1735579912997,140,-86,977,990.7194355618548,10029,-4220,5998,12424.381071103702
1735579913027,140,-86,977,990.7194355618548,10012,-4190,4299,11673.8016515615
1735579913057,141,-100,979,994.1438527698092,9998,-4163,2603,11138.499988777663
1735579913087,141,-100,979,994.1438527698092,9983,-4138,908,10844.712859269257
1735579913118,141,-100,979,994.1438527698092,9965,-4117,-785,10810.510579986498
1735579913147,143,-91,964,978.7880260812348,9942,-4095,-2489,11036.64396453922
1735579913177,143,-91,964,978.7880260812348,9915,-4078,-4192,11511.3063116225
1735579913207,143,-91,964,978.7880260812348,9889,-4067,-5895,12209.989148234326
1735579913237,143,-84,981,994.92009729425,9865,-4062,-7596,13096.460781447788
1735579913267,143,-84,981,994.92009729425,9839,-4064,-9295,14132.198767353932
1735579913296,143,-84,981,994.92009729425,9818,-4070,-10994,15291.372077089747
1735579913327,139,-86,977,990.5786187880294,9801,-4080,-12693,16547.45448702005
1735579913358,139,-86,977,990.5786187880294,9792,-4091,-14399,17887.167075867546
1735579913388,139,-86,977,990.5786187880294,9788,-4104,-16105,19287.788494277927
1735579913417,139,-86,977,990.5786187880294,9788,-4117,-17812,20736.971259082173
1735579913447,150,-85,966,981.264999885352,9787,-4126,16482,19607.79357806482
1735579913477,150,-85,966,981.264999885352,9786,-4136,14781,18203.02867656918
1735579913507,150,-85,966,981.264999885352,9788,-4146,13079,16853.91648846048
1735579913537,134,-83,966,978.7752551020076,9790,-4158,11379,15576.094022571897
1735579913568,134,-83,966,978.7752551020076,9802,-4170,9667,14384.679106605055
1735579913597,134,-83,966,978.7752551020076,9815,-4179,7953,13305.956372993262
1735579913627,149,-91,972,987.5555680568056,9828,-4186,6238,12370.320286880207
1735579913656,149,-91,972,987.5555680568056,9838,-4192,4538,11616.9080223612
1735579913687,149,-91,972,987.5555680568056,9847,-4196,2837,11073.319014640552
1735579913717,149,-91,972,987.5555680568056,9856,-4198,1137,10772.961941824542
1735579913747,141,-91,963,977.512659764568,9866,-4198,-562,10736.712904795397
1735579913777,141,-91,963,977.512659764568,9875,-4195,-2264,10965.370308384483
1735579913807,141,-91,963,977.512659764568,9882,-4190,-3966,11442.865899764796
1735579913838,140,-84,972,985.6165583024668,9884,-4179,-5669,12136.517540052419
1735579913868,140,-84,972,985.6165583024668,9880,-4166,-7372,13012.161234783405
1735579913897,140,-84,972,985.6165583024668,9873,-4153,-9075,14038.488629478603
1735579913927,153,-84,977,992.4686393030261,9866,-4144,-10779,15188.730460443361
1735579913957,153,-84,977,992.4686393030261,9851,-4143,-12469,16422.016045540815
1735579913987,153,-84,977,992.4686393030261,9838,-4144,-14160,17733.14918450753
1735579914017,153,-84,977,992.4686393030261,9828,-4148,-15851,19106.273550852347
1735579914047,141,-89,978,992.1118888512525,9831,-4151,-17558,20546.59889130072
1735579914077,141,-89,978,992.1118888512525,9837,-4152,16729,19846.035221172013
1735579914108,141,-89,978,992.1118888512525,9843,-4151,15017,18428.93754398229
1735579914137,145,-90,969,983.9136140942455,9846,-4154,13310,17069.13975571118
1735579914167,145,-90,969,983.9136140942455,9849,-4158,11607,15780.184219457009
1735579914197,145,-90,969,983.9136140942455,9852,-4162,9904,14576.46610121946
1735579914227,138,-94,977,991.1654755892176,9857,-4161,8195,13477.106328882324
1735579914257,138,-94,977,991.1654755892176,9872,-4146,6468,12509.22555556498
1735579914287,138,-94,977,991.1654755892176,9881,-4128,4743,11711.985058050577
1735579914317,138,-94,977,991.1654755892176,9883,-4109,3019,11120.788236451586
1735579914347,142,-90,977,991.3591680112713,9874,-4120,1325,10780.811704134341
1735579914377,142,-90,977,991.3591680112713,9869,-4134,-366,10706.12315453171
1735579914407,142,-90,977,991.3591680112713,9867,-4149,-2060,10900.251831953241
1735579914437,144,-73,975,988.2762771614018,9858,-4163,-3747,11338.021961523977
1735579914467,144,-73,975,988.2762771614018,9841,-4181,-5430,11992.119996064082
1735579914497,144,-73,975,988.2762771614018,9832,-4202,-7114,12842.664209578945
1735579914528,157,-83,981,996.9448329772315,9831,-4221,-8804,13855.533840310882
1735579914557,157,-83,981,996.9448329772315,9837,-4232,-10489,14989.847030573728
1735579914586,157,-83,981,996.9448329772315,9845,-4243,-12175,16222.13608006048
1735579914617,157,-83,981,996.9448329772315,9854,-4251,-13862,17530.75471849401
1735579914648,143,-91,981,995.5355342728857,9880,-4248,-15563,18917.369611021506
1735579914677,143,-91,981,995.5355342728857,9906,-4237,-17268,20353.496726606954
1735579914707,143,-91,981,995.5355342728857,9924,-4222,17027,20155.142991306213
1735579914737,147,-94,966,981.6318047007238,9928,-4202,15326,18737.883124835633
1735579914766,147,-94,966,981.6318047007238,9923,-4181,13629,17369.407905855627
1735579914796,147,-94,966,981.6318047007238,9913,-4161,11934,16062.43586757625
1735579914827,175,-104,963,984.2814638100222,9899,-4143,10240,14832.809915858828
1735579914857,175,-104,963,984.2814638100222,9868,-4132,8580,13713.76126378172
1735579914887,175,-104,963,984.2814638100222,9841,-4128,6919,12718.420735295715
1735579914917,175,-104,963,984.2814638100222,9817,-4129,5258,11877.234274021877
1735579914947,149,-90,977,992.3860136055929,9824,-4136,3560,11237.930058511665
1735579914977,149,-90,977,992.3860136055929,9833,-4140,1852,10828.545285494261
1735579915007,149,-90,977,992.3860136055929,9841,-4142,144,10678.116922004554
1735579915038,142,-95,973,987.8856209096274,9847,-4141,-1562,10795.885049406555
1735579915067,142,-95,973,987.8856209096274,9855,-4137,-3271,11177.443133382518
1735579915097,142,-95,973,987.8856209096274,9860,-4131,-4980,11793.437200409388
1735579915127,146,-90,971,986.0309325776752,9861,-4124,-6689,12609.100602342738
1735579915157,146,-90,971,986.0309325776752,9850,-4119,-8391,13579.305652352037
1735579915187,146,-90,971,986.0309325776752,9840,-4116,-10093,14684.539659110871
1735579915217,146,-90,971,986.0309325776752,9831,-4115,-11795,15896.660372543662
1735579915247,139,-86,964,977.7591728027919,9825,-4115,-13506,17201.043166040832
1735579915278,139,-86,964,977.7591728027919,9821,-4116,-15220,18575.303416095252
1735579915307,139,-86,964,977.7591728027919,9818,-4117,-16934,20002.579058711402
1735579915338,140,-93,972,986.4243508754232,9819,-4119,17352,20358.55657948274
1735579915367,140,-93,972,986.4243508754232,9824,-4120,15641,18924.224079205997
1735579915398,140,-93,972,986.4243508754232,9829,-4120,13930,17539.34266157087
1735579915426,152,-98,970,986.7157645441771,9832,-4119,12219,16215.37375455774
1735579915457,152,-98,970,986.7157645441771,9830,-4120,10524,14978.580573605765
1735579915487,152,-98,970,986.7157645441771,9829,-4121,8829,13839.910512716475
1735579915528,152,-98,970,986.7157645441771,9828,-4122,7133,12824.202002463935
1735579915547,154,-99,978,994.9879396254007,9826,-4124,5437,11963.219508142447
1735579915576,154,-99,978,994.9879396254007,9825,-4128,3740,11294.184742600946
1735579915608,154,-99,978,994.9879396254007,9825,-4131,2044,10852.360204121498
1735579915637,150,-84,968,983.148005134527,9821,-4133,346,10660.837021547604
1735579915667,150,-84,968,983.148005134527,9811,-4136,-1354,10732.91819590553
1735579915698,150,-84,968,983.148005134527,9804,-4141,-3055,11072.457812066841
1735579915728,145,-88,966,980.7777526024945,9802,-4147,-4757,11657.86695755274
1735579915757,145,-88,966,980.7777526024945,9810,-4152,-6466,12461.314537399336
1735579915787,145,-88,966,980.7777526024945,9819,-4156,-8175,13435.613942057133
1735579915818,145,-88,966,980.7777526024945,9826,-4157,-9885,14544.557401309949
1735579915848,151,-97,974,990.3968901405133,9835,-4158,-11587,15756.736908383029
1735579915878,151,-97,974,990.3968901405133,9842,-4158,-13288,17050.656057759184
1735579915907,151,-97,974,990.3968901405133,9849,-4156,-14988,18409.65184353034
1735579915938,144,-84,968,982.2504772205509,9849,-4152,-16693,19821.658709603493
1735579915967,144,-84,968,982.2504772205509,9844,-4148,17597,20585.544661242267
1735579915997,144,-84,968,982.2504772205509,9839,-4145,15887,19141.15239477498
1735579916027,152,-86,968,983.6279784552694,9835,-4143,14178,17745.62926469501
1735579916057,152,-86,968,983.6279784552694,9831,-4145,12478,16417.37098319947
1735579916087,152,-86,968,983.6279784552694,9828,-4148,10777,15163.746799521548
1735579916117,152,-86,968,983.6279784552694,9827,-4151,9077,14006.87898855416
1735579916147,149,-87,974,989.1642937348679,9828,-4153,7375,12970.25897968117
1735579916177,149,-87,974,989.1642937348679,9831,-4154,5673,12086.654044854597
1735579916207,149,-87,974,989.1642937348679,9833,-4155,3970,11389.153348691025
1735579916237,154,-85,974,989.7560305449015,9831,-4155,2267,10911.089542295947
1735579916267,154,-85,974,989.7560305449015,9825,-4158,567,10683.6827919964
1735579916297,154,-85,974,989.7560305449015,9821,-4161,-1132,10726.014450857318
1735579916327,148,-90,972,987.3135266975734,9818,-4165,-2832,11034.517343318646
1735579916357,148,-90,972,987.3135266975734,9825,-4168,-4538,11597.253683523526
1735579916387,148,-90,972,987.3135266975734,9831,-4169,-6244,12369.99021826614
1735579916417,148,-90,972,987.3135266975734,9837,-4169,-7950,13317.268113243046
1735579916447,146,-92,966,981.293024534466,9844,-4167,-9656,14405.088024722376
1735579916477,146,-92,966,981.293024534466,9850,-4164,-11363,15603.81892358406
1735579916507,146,-92,966,981.293024534466,9854,-4159,-13069,16887.78724404118
1735579916537,146,-90,977,991.9400183478838,9856,-4154,-14775,18239.985663371557
1735579916567,146,-90,977,991.9400183478838,9856,-4150,-16481,19646.54160405846
1735579916597,146,-90,977,991.9400183478838,9854,-4145,17813,20774.631404672382
1735579916627,152,-85,982,997.3229166122676,9852,-4141,16108,19330.73844942298
1735579916657,152,-85,982,997.3229166122676,9841,-4139,14409,17933.094629762036
1735579916687,152,-85,982,997.3229166122676,9832,-4139,12710,16593.482003485584
1735579916717,152,-85,982,997.3229166122676,9824,-4141,11011,15326.479634932479
1735579916748,142,-81,963,976.7773543648522,9820,-4143,9303,14147.178446601994
1735579916777,142,-81,963,976.7773543648522,9818,-4145,7591,13084.243577677695
1735579916807,142,-81,963,976.7773543648522,9817,-4147,5879,12171.020458449653
1735579916837,152,-96,978,994.386242865417,9820,-4152,4173,11449.254691900254
1735579916866,152,-96,978,994.386242865417,9827,-4156,2475,10952.985437769923
1735579916897,152,-96,978,994.386242865417,9834,-4158,777,10705.150582780234
1735579916927,142,-86,964,978.1901655608689,9840,-4159,-921,10722.458766532982
1735579916956,142,-86,964,978.1901655608689,9842,-4156,-2632,11002.941606679551
1735579916987,142,-86,964,978.1901655608689,9843,-4153,-4343,11532.289755291444
1735579917017,150,-98,975,991.3268885690532,9844,-4151,-6054,12279.497261696019
1735579917046,150,-98,975,991.3268885690532,9850,-4149,-7756,13205.765293991863
1735579917077,150,-98,975,991.3268885690532,9854,-4147,-9458,14274.196614871185
1735579917107,150,-98,975,991.3268885690532,9856,-4144,-11160,15455.066224380924
1735579917137,154,-90,966,982.3298834912842,9847,-4140,-12855,16713.887459235808
1735579917167,154,-90,966,982.3298834912842,9836,-4138,-14550,18043.62602139603
1735579917197,154,-90,966,982.3298834912842,9827,-4139,-16244,19431.129303259757
1735579917227,155,-100,971,988.3653170766364,9821,-4142,-17939,20866.622294947498
1735579917257,155,-100,971,988.3653170766364,9827,-4145,16366,19534.505624663245
1735579917287,155,-100,971,988.3653170766364,9832,-4147,14672,18142.034533094684
1735579917317,144,-99,989,1004.3196702245755,9838,-4149,12977,16804.849716674053
1735579917347,144,-99,989,1004.3196702245755,9851,-4147,11268,15530.860697334196
1735579917378,144,-99,989,1004.3196702245755,9861,-4143,9560,14345.639407150871
1735579917407,144,-99,989,1004.3196702245755,9869,-4137,7851,13272.156230243825
1735579917437,150,-89,970,985.5561881496153,9857,-4128,6146,12327.77956486893
1735579917467,150,-89,970,985.5561881496153,9842,-4122,4444,11558.76221746948
1735579917497,150,-89,970,985.5561881496153,9829,-4120,2742,11004.644701215937
1735579917527,156,-87,969,985.3253269859656,9818,-4121,1041,10698.572147721396
1735579917557,156,-87,969,985.3253269859656,9806,-4128,-648,10659.170887081227
1735579917587,156,-87,969,985.3253269859656,9798,-4138,-2339,10890.122542928522
1735579917617,141,-87,976,989.962625557147,9795,-4148,-4032,11375.629784763567
1735579917647,141,-87,976,989.962625557147,9807,-4154,-5744,12100.681840293133
1735579917677,141,-87,976,989.962625557147,9819,-4158,-7456,13011.289751596496
1735579917707,141,-87,976,989.962625557147,9829,-4159,-9169,14070.432935769959
1735579917737,152,-87,966,981.7479309883979,9830,-4160,-10875,15238.114220598296
1735579917767,152,-87,966,981.7479309883979,9829,-4162,-12578,16496.592648180413
1735579917797,152,-87,966,981.7479309883979,9829,-4163,-14281,17829.379433956754
1735579917827,145,-88,962,976.8382670636936,9830,-4165,-15984,19221.456266370664
1735579917858,145,-88,962,976.8382670636936,9835,-4165,-17690,20664.233593337063
1735579917887,145,-88,962,976.8382670636936,9839,-4164,16602,19742.624470925846
1735579917917,149,-91,982,997.3996190093517,9842,-4162,14895,18331.61839554817
1735579917947,149,-91,982,997.3996190093517,9846,-4161,13193,16979.778738252156
1735579917977,149,-91,982,997.3996190093517,9849,-4158,11490,15694.325885491227
1735579918007,149,-91,982,997.3996190093517,9851,-4155,9788,14495.211968094844
1735579918037,141,-98,966,981.1427011398495,9861,-4149,8076,13404.30147378072
1735579918067,141,-98,966,981.1427011398495,9871,-4139,6361,12451.115733138135
1735579918097,141,-98,966,981.1427011398495,9876,-4128,4648,11669.604277780802
1735579918127,151,-92,982,997.7920625060113,9873,-4116,2939,11093.029613230103
1735579918157,151,-92,982,997.7920625060113,9859,-4108,1237,10752.009765620565
1735579918187,151,-92,982,997.7920625060113,9845,-4104,-463,10676.198293400137
1735579918217,141,-87,972,986.0192695885817,9831,-4102,-2161,10869.44736405674
1735579918247,141,-87,972,986.0192695885817,9818,-4104,-3865,11321.402960764182
1735579918277,141,-87,972,986.0192695885817,9809,-4108,-5569,12004.41193894978
1735579918307,141,-87,972,986.0192695885817,9801,-4114,-7273,12879.48469466073
1735579918337,139,-93,969,983.3264971513785,9810,-4117,-8989,13927.95426471526
1735579918367,139,-93,969,983.3264971513785,9819,-4118,-10706,15099.308626556383
1735579918398,139,-93,969,983.3264971513785,9826,-4117,-12423,16365.53983222063
1735579918427,145,-92,982,996.9017002693896,9828,-4117,-14132,17698.946211568644
1735579918457,145,-92,982,996.9017002693896,9825,-4118,-15834,19084.13228312988
1735579918487,145,-92,982,996.9017002693896,9823,-4121,-17535,20517.07081919834
1735579918517,137,-85,966,979.3620372466967,9821,-4123,16760,19858.216687306038
1735579918547,137,-85,966,979.3620372466967,9821,-4123,15044,18432.935360381427
1735579918577,137,-85,966,979.3620372466967,9820,-4123,13328,17060.68911269413
1735579918607,137,-85,966,979.3620372466967,9819,-4123,11612,15755.965029156418
1735579918637,139,-103,958,973.4957627026427,9827,-4124,9898,14544.67974896663
1735579918667,139,-103,958,973.4957627026427,9837,-4123,8185,13444.698695024743
1735579918697,139,-103,958,973.4957627026427,9845,-4119,6472,12481.064457809678
1735579918727,138,-92,948,962.3990856188508,9850,-4113,4758,11686.651915754144
1735579918757,138,-92,948,962.3990856188508,9847,-4106,3043,11094.254999773531
1735579918787,138,-92,948,962.3990856188508,9844,-4100,1328,10746.065326434602
1735579918817,139,-89,973,986.8996909514158,9840,-4096,-385,10665.413306571856
1735579918847,139,-89,973,986.8996909514158,9835,-4094,-2097,10857.507540867748
1735579918877,139,-89,973,986.8996909514158,9831,-4094,-3809,11310.07860273305
1735579918908,139,-89,973,986.8996909514158,9827,-4094,-5521,11992.172697222135
1735579918937,153,-96,973,989.6231606020547,9820,-4095,-7219,12857.503101302367
1735579918967,153,-96,973,989.6231606020547,9813,-4098,-8912,13874.880792280703
1735579918997,153,-96,973,989.6231606020547,9808,-4102,-10605,15016.300909345151
1735579919027,142,-89,970,984.3703571319079,9805,-4107,-12304,16260.193418283807
1735579919057,142,-89,970,984.3703571319079,9804,-4111,-14011,17587.690524909744
1735579919087,142,-89,970,984.3703571319079,9804,-4116,-15719,18977.5349558366
1735579919117,151,-89,974,989.6453910366076,9805,-4121,-17427,20416.19442991274
1735579919147,151,-89,974,989.6453910366076,9799,-4131,16872,19943.669321366116
1735579919177,151,-89,974,989.6453910366076,9798,-4141,15170,18527.751752438828
1735579919207,151,-89,974,989.6453910366076,9798,-4151,13469,17165.242963616914
1735579919238,155,-86,969,985.0796922076914,9798,-4158,11769,15868.179763287282
1735579919267,155,-86,969,985.0796922076914,9797,-4165,10070,14653.782242138035
1735579919297,155,-86,969,985.0796922076914,9798,-4172,8371,13545.480021025463
1735579919327,146,-93,980,995.1708396049394,9808,-4179,6670,12575.762601130797
1735579919358,146,-93,980,995.1708396049394,9827,-4183,4963,11777.044917974967
1735579919388,146,-93,980,995.1708396049394,9843,-4182,3256,11179.235617876564
1735579919417,145,-96,977,992.3557829730222,9855,-4179,1549,10815.935789380408
1735579919447,145,-96,977,992.3557829730222,9868,-4173,-159,10715.25240020038
1735579919477,145,-96,977,992.3557829730222,9876,-4165,-1868,10879.890854231948
1735579919508,145,-96,977,992.3557829730222,9881,-4155,-3576,11299.821326021045
1735579919537,151,-81,972,986.9883484621286,9867,-4147,-5275,11932.347757252133
1735579919567,151,-81,972,986.9883484621286,9848,-4143,-6972,12757.599186367315
1735579919597,151,-81,972,986.9883484621286,9832,-4143,-8669,13747.153669032728
1735579919627,160,-100,977,995.0522599341202,9825,-4146,-10366,14871.91638626307
1735579919657,160,-100,977,995.0522599341202,9828,-4150,-12056,16098.422904123248
1735579919687,160,-100,977,995.0522599341202,9832,-4153,-13747,17403.897322151726
1735579919717,143,-86,977,991.1478194497529,9835,-4156,-15438,18770.4929343904
1735579919747,143,-86,977,991.1478194497529,9838,-4154,-17149,20202.231584654208
1735579919777,143,-86,977,991.1478194497529,9840,-4152,17140,20195.155458673747
1735579919807,143,-86,977,991.1478194497529,9842,-4150,15430,18766.255993138322
1735579919837,148,-77,965,979.3150667686064,9837,-4148,13723,17386.58109002457
1735579919867,148,-77,965,979.3150667686064,9829,-4148,12019,16070.827794485262
1735579919897,148,-77,965,979.3150667686064,9822,-4150,10314,14834.850184615954
1735579919927,149,-90,971,986.4795993835859,9821,-4153,8609,13704.536876523774
1735579919957,149,-90,971,986.4795993835859,9827,-4156,6904,12708.559359738616
1735579919987,149,-90,971,986.4795993835859,9833,-4157,5199,11874.263724543092
1735579920016,143,-88,981,995.2657936450946,9836,-4156,3494,11235.09092086041
1735579920047,143,-88,981,995.2657936450946,9839,-4154,1783,10827.775671854308
1735579920077,143,-88,981,995.2657936450946,9840,-4151,72,10679.961844501131
1735579920107,143,-88,981,995.2657936450946,9841,-4149,-1638,10804.745531478287
1735579920137,153,-94,973,989.431149701686,9839,-4148,-3338,11187.227940826091
1735579920167,153,-94,973,989.431149701686,9837,-4149,-5034,11803.470930196761
1735579920197,153,-94,973,989.431149701686,9836,-4150,-6730,12619.916639978253
1735579920227,149,-90,974,989.4326657231405,9836,-4151,-8428,13601.796976870372
1735579920257,149,-90,974,989.4326657231405,9837,-4150,-10129,14716.851225720806
1735579920287,149,-90,974,989.4326657231405,9837,-4150,-11831,15936.17363108221
1735579920317,147,-88,971,985.9989858006954,9837,-4149,-13534,17238.03718524821
1735579920348,147,-88,971,985.9989858006954,9837,-4148,-15241,18608.077654610108
1735579920377,147,-88,971,985.9989858006954,9837,-4147,-16948,20029.949625498313
1735579920407,147,-88,971,985.9989858006954,9837,-4146,17344,20365.908302847678
1735579920437,144,-102,977,992.8086421863984,9843,-4145,15637,18936.246803419097
1735579920467,144,-102,977,992.8086421863984,9851,-4141,13930,17556.622169426555
1735579920497,144,-102,977,992.8086421863984,9856,-4136,12222,16236.51797646281
1735579920527,146,-89,977,991.8497870141426,9857,-4129,10516,14993.176648062277
1735579920557,146,-89,977,991.8497870141426,9848,-4124,8811,13842.839340250974
1735579920587,146,-89,977,991.8497870141426,9840,-4121,7106,12818.091784661241
1735579920617,149,-88,965,980.3927784311755,9834,-4120,5402,11952.554538674985
1735579920647,149,-88,965,980.3927784311755,9827,-4120,3699,11279.49156655565
1735579920677,149,-88,965,980.3927784311755,9821,-4121,1997,10836.17510932709
1735579920707,149,-88,965,980.3927784311755,9816,-4123,294,10650.794383519005
1735579920737,159,-98,963,980.945462296452,9813,-4129,-1399,10737.821520215355
1735579920767,159,-98,963,980.945462296452,9812,-4136,-3089,11087.098854073594
1735579920797,159,-98,963,980.945462296452,9812,-4143,-4780,11674.25342366697
1735579920827,148,-89,971,986.2383079154855,9813,-4148,-6475,12467.016403293934
1735579920857,148,-89,971,986.2383079154855,9814,-4152,-8178,13432.54942295021
1735579920887,148,-89,971,986.2383079154855,9815,-4155,-9881,14533.836761158424
1735579920917,140,-91,970,984.2667321412423,9820,-4158,-11586,15746.64281680384
1735579920947,140,-91,970,984.2667321412423,9834,-4158,-13304,17058.5150584686
1735579920977,140,-91,970,984.2667321412423,9846,-4155,-15021,18434.70048576868
1735579921007,139,-97,981,995.5355342728857,9854,-4150,-16736,19859.9474319546
1735579921037,139,-97,981,995.5355342728857,9864,-4143,17549,20553.11037288517
1735579921067,139,-97,981,995.5355342728857,9870,-4134,15837,19113.27876111265
1735579921097,139,-97,981,995.5355342728857,9872,-4124,14125,17719.463451244792
1735579921127,147,-83,969,983.5949369532156,9858,-4115,12421,16382.754041979633
1735579921157,147,-83,969,983.5949369532156,9838,-4111,10720,15119.68799281255
1735579921187,147,-83,969,983.5949369532156,9822,-4111,9019,13954.008958001998
1735579921217,142,-93,979,993.6065619751109,9810,-4115,7316,12910.97134223448
1735579921247,142,-93,979,993.6065619751109,9815,-4119,5605,12029.81342332457
1735579921276,142,-93,979,993.6065619751109,9821,-4122,3893,11340.122309746046
1735579921307,147,-88,964,979.1062250848985,9825,-4123,2183,10876.361661879399
1735579921337,147,-88,964,979.1062250848985,9819,-4125,480,10661.087467983742
1735579921367,147,-88,964,979.1062250848985,9814,-4127,-1221,10716.229094228996
1735579921397,147,-88,964,979.1062250848985,9811,-4131,-2925,11039.769336358437
1735579921427,147,-92,971,986.3640301633064,9812,-4136,-4626,11609.55279069784
1735579921458,147,-92,971,986.3640301633064,9816,-4141,-6328,12391.340565088185
1735579921486,147,-92,971,986.3640301633064,9820,-4145,-8030,13345.19857476838
1735579921518,138,-93,967,981.2145534998958,9828,-4146,-9739,14443.926786023252
1735579921547,138,-93,967,981.2145534998958,9840,-4144,-11456,15660.085312666723
1735579921577,138,-93,967,981.2145534998958,9849,-4139,-13173,16960.602907915745
1735579921607,142,-92,980,994.4988687776372,9855,-4132,-14889,18326.94109773914
1735579921637,142,-92,980,994.4988687776372,9856,-4125,-16601,19742.07592934441
1735579921667,142,-92,980,994.4988687776372,9855,-4118,17687,20661.77431877524
1735579921697,142,-92,980,994.4988687776372,9852,-4111,15976,19214.442510778186
1735579921727,171,-85,979,997.4502493859029,9825,-4113,14294,17825.98749017849
1735579921757,171,-85,979,997.4502493859029,9795,-4124,12623,16501.197835308805
1735579921787,171,-85,979,997.4502493859029,9774,-4139,10951,15250.796634930255
1735579921817,150,-88,967,982.513613137243,9769,-4156,9265,14090.632420157726
1735579921847,150,-88,967,982.513613137243,9781,-4168,7560,13045.834009368662
1735579921877,150,-88,967,982.513613137243,9795,-4178,5855,12152.313936037037
1735579921907,162,-89,971,988.4361385542315,9808,-4185,4150,11442.621596469928
1735579921937,162,-89,971,988.4361385542315,9813,-4193,2458,10950.70691782042
1735579921967,162,-89,971,988.4361385542315,9820,-4199,766,10707.509374266268
1735579921997,162,-89,971,988.4361385542315,9827,-4204,-926,10728.514389233955
1735579922027,146,-82,942,956.7674743635467,9836,-4208,-2632,11017.33107426658
1735579922057,146,-82,942,956.7674743635467,9847,-4209,-4343,11555.98282276328
1735579922087,146,-82,942,956.7674743635467,9856,-4208,-6054,12308.48959052247
1735579922117,128,-74,969,980.2147723840934,9867,-4202,-7773,13245.150886267775
1735579922147,128,-74,969,980.2147723840934,9879,-4192,-9504,14335.045203974769
1735579922177,128,-74,969,980.2147723840934,9886,-4180,-11235,15538.037874841211
1735579922207,153,-82,981,996.2399309403332,9887,-4167,-12962,16826.470277512155
1735579922237,153,-82,981,996.2399309403332,9871,-4160,-14658,18154.867253714634
1735579922267,153,-82,981,996.2399309403332,9856,-4156,-16354,19541.401894439405
1735579922297,153,-82,981,996.2399309403332,9843,-4155,17949,20888.16112059652
1735579922327,114,-84,950,960.4957053521895,9850,-4146,16220,19424.217255786654
1735579922357,114,-84,950,960.4957053521895,9862,-4132,14478,17998.470823933905
1735579922387,114,-84,950,960.4957053521895,9868,-4116,12737,16629.794015561347
1735579922417,50,-104,953,959.9609367052391,9892,-4096,10974,15331.586871553773
1735579922446,50,-104,953,959.9609367052391,9944,-4057,9169,14121.364877376407
1735579922477,50,-104,953,959.9609367052391,9975,-4008,7368,13032.732368924024
1735579922507,81,-75,965,971.2934674957925,9988,-3956,5573,12102.413354368624
1735579922538,81,-75,965,971.2934674957925,9945,-3916,3813,11347.99762072587
1735579922567,81,-75,965,971.2934674957925,9899,-3885,2054,10830.620573171234
1735579922597,81,-75,965,971.2934674957925,9855,-3865,296,10589.941737327925
1735579922627,196,-89,1014,1036.5968358045475,9763,-3872,-1371,10591.892843113548
1735579922657,196,-89,1014,1036.5968358045475,9671,-3906,-3000,10852.883349598853
1735579922686,196,-89,1014,1036.5968358045475,9604,-3958,-4631,11373.15879604255
1735579922716,206,-104,988,1014.5915434301628,9563,-4020,-6265,12118.64654159036
1735579922748,206,-104,988,1014.5915434301628,9546,-4086,-7898,13046.06898648018
1735579922778,206,-104,988,1014.5915434301628,9548,-4155,-9535,14118.943090755767
1735579922808,146,-96,940,956.1025049648181,9568,-4221,-11177,15306.495157285353
1735579922837,146,-96,940,956.1025049648181,9641,-4269,-12894,16656.184376981422
1735579922867,146,-96,940,956.1025049648181,9713,-4302,-14614,18067.057563421888
1735579922896,146,-96,940,956.1025049648181,9780,-4320,-16335,19522.88464853491
1735579922927,152,-88,937,953.318939285274,9833,-4328,17952,20921.132306832726
1735579922957,152,-88,937,953.318939285274,9875,-4326,16242,19494.421381513224
1735579922987,152,-88,937,953.318939285274,9909,-4316,14533,18111.439092463082
1735579923017,161,-99,944,962.7346467225535,9937,-4301,12828,16786.904241104134
1735579923047,161,-99,944,962.7346467225535,9957,-4280,11130,15535.029739269892
1735579923078,161,-99,944,962.7346467225535,9968,-4256,9434,14369.235052708964
1735579923108,160,-86,938,955.4266062864274,9970,-4230,7741,13312.283087434702
1735579923137,160,-86,938,955.4266062864274,9956,-4206,6048,12385.098949947876
1735579923167,160,-86,938,955.4266062864274,9938,-4184,4357,11629.83873490944
1735579923197,160,-86,938,955.4266062864274,9918,-4167,2666,11083.238200092967
1735579923227,170,-91,969,987.9989878537326,9894,-4154,985,10775.768046872576
1735579923257,170,-91,969,987.9989878537326,9871,-4148,-692,10729.464525315325
1735579923287,170,-91,969,987.9989878537326,9851,-4145,-2369,10946.935050506147
1735579923317,181,-85,998,1017.8359396287792,9832,-4147,-4044,11411.387689496838
1735579923348,181,-85,998,1017.8359396287792,9810,-4155,-5713,12088.775537663027
1735579923378,181,-85,998,1017.8359396287792,9795,-4166,-7382,12953.436030644532
1735579923407,170,-83,1024,1041.328478435119,9786,-4181,-9053,13971.51981711367
1735579923437,170,-83,1024,1041.328478435119,9790,-4197,-10740,15126.351476810261
1735579923466,170,-83,1024,1041.328478435119,9797,-4211,-12428,16375.863763478248
1735579923497,170,-83,1024,1041.328478435119,9806,-4224,-14116,17699.188342972117
1735579923527,140,-89,1014,1027.4809000657872,9827,-4229,-15822,19099.47784626585
1735579923557,140,-89,1014,1027.4809000657872,9854,-4226,-17540,20557.528839819246
1735579923587,140,-89,1014,1027.4809000657872,9874,-4219,16743,19890.296277330814
1735579923617,124,-94,1015,1026.8578285235012,9896,-4207,15019,18471.600526213206
1735579923647,124,-94,1015,1026.8578285235012,9920,-4187,13283,17098.989970170755
1735579923677,124,-94,1015,1026.8578285235012,9934,-4163,11549,15792.223592642044
1735579923707,107,-94,985,995.2436887516544,9938,-4136,9819,14569.938263424454
1735579923737,107,-94,985,995.2436887516544,9943,-4104,8075,13450.341631348998
1735579923766,107,-94,985,995.2436887516544,9939,-4073,6334,12469.667437425907
1735579923797,107,-94,985,995.2436887516544,9927,-4042,4595,11661.780224305377
1735579923827,88,-95,971,979.5968558544887,9922,-4010,2838,11071.60458108941
1735579923857,88,-95,971,979.5968558544887,9913,-3978,1076,10735.447312524988
1735579923887,88,-95,971,979.5968558544887,9898,-3948,-683,10678.183225624105
1735579923917,118,-94,958,969.8061662002361,9869,-3926,-2427,10894.997292335598
1735579923947,118,-94,958,969.8061662002361,9827,-3915,-4148,11362.352661310948
1735579923977,118,-94,958,969.8061662002361,9790,-3914,-5869,12066.84121881116
1735579924008,122,-88,942,953.9350082683831,9760,-3920,-7590,12970.431758426548
1735579924037,122,-88,942,953.9350082683831,9730,-3935,-9308,14028.399374126757
1735579924067,122,-88,942,953.9350082683831,9709,-3954,-11026,15214.186570434846
1735579924095,122,-88,942,953.9350082683831,9697,-3978,-12746,16502.024390964885
1735579924127,133,-90,936,949.6762606277994,9691,-4006,-14461,17862.923556909715
1735579924157,133,-90,936,949.6762606277994,9692,-4036,-16174,19282.697840291956
1735579924187,133,-90,936,949.6762606277994,9699,-4064,-17888,20750.114240649375
1735579924217,153,-93,933,950.0247365200551,9707,-4092,16405,19496.008258102476
1735579924246,153,-93,933,950.0247365200551,9713,-4120,14714,18105.760547405902
1735579924277,153,-93,933,950.0247365200551,9724,-4147,13021,16772.00721440341
1735579924307,160,-90,940,957.7577981932593,9742,-4170,11325,15509.709507273177
1735579924337,160,-90,940,957.7577981932593,9757,-4190,9631,14335.665662954058
1735579924367,160,-90,940,957.7577981932593,9774,-4206,7935,13273.497542094925
1735579924397,160,-90,940,957.7577981932593,9792,-4219,6239,12353.475057650783
1735579924427,161,-90,938,955.962865387563,9810,-4229,4543,11608.591215130284
1735579924457,161,-90,938,955.962865387563,9828,-4236,2847,11074.235368638325
1735579924487,161,-90,938,955.962865387563,9844,-4240,1151,10779.922866143337
1735579924517,164,-102,939,958.6558297950313,9859,-4239,-542,10745.360208015365
1735579924547,164,-102,939,958.6558297950313,9875,-4234,-2232,10973.796289343081
1735579924577,164,-102,939,958.6558297950313,9887,-4227,-3921,11445.284574880608
1735579924608,156,-96,939,956.6990122290291,9896,-4216,-5612,12132.601369862936
1735579924637,156,-96,939,956.6990122290291,9903,-4203,-7313,13008.250727903425
1735579924667,156,-96,939,956.6990122290291,9906,-4189,-9014,14033.13054881198
1735579924697,156,-96,939,956.6990122290291,9904,-4174,-10713,15174.974826997242
1735579924727,130,-94,942,955.5626614722867,9912,-4156,-12431,16433.19326850384
1735579924757,130,-94,942,955.5626614722867,9918,-4135,-14157,17773.170735690353
1735579924787,130,-94,942,955.5626614722867,9918,-4113,-15882,19170.848103305183
1735579924816,115,-100,966,977.9473400955698,9919,-4090,-17610,20621.02715676404
1735579924847,115,-100,966,977.9473400955698,9923,-4064,16651,19804.99497601552
1735579924877,115,-100,966,977.9473400955698,9920,-4037,14915,18361.944178109246
1735579924907,117,-96,976,987.6644166922285,9909,-4012,13181,16971.24585880483
1735579924937,117,-96,976,987.6644166922285,9888,-3992,11454,15649.368166159296
1735579924967,117,-96,976,987.6644166922285,9866,-3977,9728,14414.869718453927
1735579924997,129,-83,990,1001.813355870244,9844,-3966,8002,13291.55732034437
1735579925027,129,-83,990,1001.813355870244,9805,-3965,6290,12305.419537748397
1735579925057,129,-83,990,1001.813355870244,9772,-3972,4577,11498.595435965211
1735579925087,129,-83,990,1001.813355870244,9748,-3985,2864,10913.579843479407
1735579925117,162,-91,997,1014.1666529717885,9720,-4005,1170,10577.680511340848
1735579925147,162,-91,997,1014.1666529717885,9697,-4033,-513,10514.7547284756
1735579925177,162,-91,997,1014.1666529717885,9686,-4064,-2198,10731.537448101273
1735579925207,165,-90,1000,1017.5092137174975,9684,-4098,-3885,11210.115298247383
1735579925237,165,-90,1000,1017.5092137174975,9688,-4133,-5569,11914.394403409684
1735579925267,165,-90,1000,1017.5092137174975,9700,-4166,-7256,12809.960655677285
1735579925297,187,-90,995,1016.4123179104039,9717,-4196,-8944,13857.187340871162
1735579925327,187,-90,995,1016.4123179104039,9721,-4227,-10608,14996.500725169188
1735579925357,187,-90,995,1016.4123179104039,9732,-4257,-12274,16232.219472395018
1735579925387,187,-90,995,1016.4123179104039,9748,-4285,-13942,17543.206462901813
1735579925417,164,-87,960,977.7857638562754,9775,-4306,-15627,18928.692242202047
1735579925447,164,-87,960,977.7857638562754,9807,-4319,-17321,20367.819004498248
1735579925477,164,-87,960,977.7857638562754,9837,-4326,16983,20097.341465975045
1735579925507,143,-90,930,945.2243120021828,9873,-4325,15278,18697.567702778884
1735579925537,143,-90,930,945.2243120021828,9915,-4313,13557,17340.745168532983
1735579925567,143,-90,930,945.2243120021828,9946,-4292,11838,16046.258878629622
1735579925597,112,-91,945,955.9550198623364,9968,-4265,10119,14830.556631495663
1735579925627,112,-91,945,955.9550198623364,10005,-4225,8365,13708.532926611804
1735579925657,112,-91,945,955.9550198623364,10024,-4179,6615,12716.243234540616
1735579925687,112,-91,945,955.9550198623364,10027,-4130,4868,11886.759566845794
1735579925717,114,-92,974,984.9548212989264,10017,-4083,3132,11261.465357581135
1735579925747,114,-92,974,984.9548212989264,9997,-4040,1400,10872.976087530038
1735579925777,114,-92,974,984.9548212989264,9969,-4001,-330,10746.99316087993
1735579925807,169,-86,1005,1022.7326141274659,9917,-3973,-2036,10875.51902209729
1735579925837,169,-86,1005,1022.7326141274659,9840,-3966,-3702,11236.527933485504
1735579925867,169,-86,1005,1022.7326141274659,9776,-3975,-5369,11840.479804467384
1735579925897,197,-94,1013,1036.249969843184,9725,-3996,-7038,12652.157325926673
1735579925927,197,-94,1013,1036.249969843184,9674,-4031,-8678,13606.723374861414
1735579925957,197,-94,1013,1036.249969843184,9640,-4075,-10320,14698.218429456
1735579925987,197,-94,1013,1036.249969843184,9623,-4125,-11964,15898.27191867091
1735579926017,159,-98,958,976.0373968245274,9641,-4171,-13643,17218.524065668345
1735579926048,159,-98,958,976.0373968245274,9677,-4210,-15338,18617.80526807604
1735579926077,159,-98,958,976.0373968245274,9716,-4241,-17035,20064.345541282924
1735579926107,106,-101,928,939.4791109971525,9777,-4259,17239,20270.96275463995
1735579926136,106,-101,928,939.4791109971525,9861,-4253,15471,18832.92783929254
1735579926167,106,-101,928,939.4791109971525,9927,-4232,13706,17444.471588443143
1735579926197,111,-81,960,969.7845121468996,9974,-4198,11947,16119.3886050309
1735579926227,111,-81,960,969.7845121468996,9983,-4161,10203,14868.605146415046
1735579926257,111,-81,960,969.7845121468996,9980,-4123,8462,13718.78176078328
1735579926287,111,-81,960,969.7845121468996,9968,-4087,6724,12699.479083804974
1735579926317,196,-78,1006,1027.8793703543233,9901,-4069,5054,11837.629745857064
1735579926347,196,-78,1006,1027.8793703543233,9824,-4073,3414,11169.409160738987
1735579926377,196,-78,1006,1027.8793703543233,9761,-4091,1772,10730.954570773283
1735579926407,194,-104,987,1011.2472496872365,9722,-4119,127,10559.335869267536
1735579926437,194,-104,987,1011.2472496872365,9711,-4149,-1522,10669.31141170788
1735579926466,194,-104,987,1011.2472496872365,9708,-4181,-3174,11036.31736586077
1735579926497,115,-101,938,950.4051767535781,9716,-4212,-4830,11639.179524347925
1735579926527,115,-101,938,950.4051767535781,9786,-4222,-6581,12525.998602905878
1735579926557,115,-101,938,950.4051767535781,9845,-4217,-8332,13569.4265906854
1735579926587,115,-101,938,950.4051767535781,9892,-4201,-10080,14734.533077094775
1735579926617,90,-86,961,969.0288953380079,9937,-4177,-11843,16013.992225550754
1735579926647,90,-86,961,969.0288953380079,9968,-4144,-13611,17372.19275163616
1735579926677,90,-86,961,969.0288953380079,9984,-4104,-15376,18786.81580257815
1735579926707,185,-84,1005,1025.3321413083665,9959,-4069,-17100,20202.68402960359
1735579926737,185,-84,1005,1025.3321413083665,9887,-4057,17246,20288.82781237004
1735579926767,185,-84,1005,1025.3321413083665,9826,-4060,15592,18871.786878830524
1735579926797,188,-95,995,1017.0516211087813,9774,-4073,13937,17503.15325877026
1735579926827,188,-95,995,1017.0516211087813,9738,-4094,12282,16199.90753060029
1735579926857,188,-95,995,1017.0516211087813,9714,-4121,10625,14974.480358262854
1735579926887,188,-95,995,1017.0516211087813,9700,-4153,8966,13846.536209464084
1735579926917,130,-104,945,959.5524998664742,9737,-4177,7255,12841.009422938681
1735579926947,130,-104,945,959.5524998664742,9787,-4188,5521,11991.92036331129
1735579926977,130,-104,945,959.5524998664742,9830,-4188,3788,11336.542153584574
1735579927007,89,-88,952,960.192168266332,9875,-4179,2044,10915.933400309843
1735579927037,89,-88,952,960.192168266332,9921,-4156,274,10759.81658765613
1735579927067,89,-88,952,960.192168266332,9952,-4123,-1491,10874.948919420265
1735579927097,172,-86,1002,1020.2862343479892,9965,-4086,-3254,11251.006043905585
1735579927127,172,-86,1002,1020.2862343479892,9905,-4070,-4922,11785.584796691253
1735579927157,172,-86,1002,1020.2862343479892,9852,-4066,-6590,12530.85631551172
1735579927187,172,-86,1002,1020.2862343479892,9807,-4072,-8260,13453.104957592504
1735579927217,196,-102,998,1022.1663269742356,9766,-4089,-9913,14503.870035269896
1735579927248,196,-102,998,1022.1663269742356,9736,-4115,-11559,15663.122357946388
1735579927277,196,-102,998,1022.1663269742356,9717,-4145,-13207,16912.3021200545
1735579927307,148,-105,944,961.2829968328786,9723,-4174,-14874,18253.626516393942
1735579927337,148,-105,944,961.2829968328786,9758,-4191,-16579,19688.73500253381
1735579927367,148,-105,944,961.2829968328786,9791,-4201,17715,20672.041674687094
1735579927397,78,-90,944,951.4830529231722,9825,-4205,16008,19247.56384584813
1735579927427,78,-90,944,951.4830529231722,9898,-4187,14215,17820.426425874324
1735579927457,78,-90,944,951.4830529231722,9953,-4154,12426,16453.674392062097
1735579927486,78,-90,944,951.4830529231722,9988,-4111,10642,15162.870077923902
1735579927517,145,-80,998,1011.6466774521626,9961,-4078,8919,13978.560941670641
1735579927547,145,-80,998,1011.6466774521626,9916,-4058,7223,12921.53818243014
1735579927576,145,-80,998,1011.6466774521626,9874,-4048,5526,12017.439660759692
1735579927607,198,-82,1007,1029.5518442506914,9821,-4047,3849,11298.010931132967
1735579927638,198,-82,1007,1029.5518442506914,9753,-4065,2211,10795.080129392278
1735579927667,198,-82,1007,1029.5518442506914,9702,-4095,570,10546.218706247277
1735579927697,179,-102,968,989.6812618211986,9668,-4135,-1071,10569.554862906953
1735579927727,179,-102,968,989.6812618211986,9680,-4174,-2738,10891.34151516699
1735579927757,179,-102,968,989.6812618211986,9699,-4210,-4407,11454.970536845567
1735579927787,179,-102,968,989.6812618211986,9723,-4241,-6078,12225.583585252689
1735579927817,107,-98,934,945.203152766642,9793,-4253,-7817,13232.397628547897
1735579927847,107,-98,934,945.203152766642,9867,-4244,-9583,14394.551538689908
1735579927878,107,-98,934,945.203152766642,9925,-4220,-11347,15654.661733809517
1735579927907,93,-82,956,964.0067427150082,9964,-4188,-13106,16987.874381452202
1735579927937,93,-82,956,964.0067427150082,9984,-4150,-14870,18385.310875805175
1735579927967,93,-82,956,964.0067427150082,9991,-4107,-16630,19830.391574550413
1735579927997,185,-76,1010,1029.6120628663982,9983,-4065,17613,20649.51047845929
1735579928027,185,-76,1010,1029.6120628663982,9900,-4051,15961,19213.904392392506
1735579928057,185,-76,1010,1029.6120628663982,9829,-4053,14308,17825.68130535268
1735579928087,185,-76,1010,1029.6120628663982,9771,-4068,12653,16496.044192472327
1735579928117,193,-99,1003,1026.1866301994,9731,-4091,11003,15247.775280348278
1735579928147,193,-99,1003,1026.1866301994,9707,-4121,9355,14096.96829109011
1735579928177,193,-99,1003,1026.1866301994,9694,-4154,7705,13061.254801894036
1735579928207,152,-103,947,964.635682524755,9705,-4187,6035,12171.245581287068
1735579928237,152,-103,947,964.635682524755,9744,-4211,4331,11464.537408897055
1735579928267,152,-103,947,964.635682524755,9781,-4227,2626,10974.122561735858
1735579928297,83,-95,946,954.3741404711258,9819,-4235,918,10732.693510950548
1735579928327,83,-95,946,954.3741404711258,9901,-4218,-873,10797.381812272824
1735579928357,83,-95,946,954.3741404711258,9962,-4185,-2660,11127.949901037477
1735579928387,83,-95,946,954.3741404711258,10002,-4140,-4443,11701.275699683347
1735579928418,128,-76,978,989.2643731581563,9985,-4101,-6175,12435.797159812475
1735579928446,128,-76,978,989.2643731581563,9948,-4071,-7889,13333.119139946211
1735579928477,128,-76,978,989.2643731581563,9911,-4049,-9602,14381.263018247042
1735579928507,193,-90,1016,1038.0775500895875,9864,-4037,-11295,15529.742109899958
1735579928537,193,-90,1016,1038.0775500895875,9804,-4043,-12943,16732.767673042017
1735579928566,193,-90,1016,1038.0775500895875,9757,-4061,-14593,18017.947136119587
1735579928597,190,-104,984,1007.5574425311938,9718,-4088,-16241,19362.88586445729
1735579928627,190,-104,984,1007.5574425311938,9698,-4120,-17890,20762.410842674315
1735579928657,190,-104,984,1007.5574425311938,9689,-4155,16459,19545.828890072684
1735579928687,118,-99,933,945.628891267605,9695,-4190,14802,18183.738037048377
1735579928717,118,-99,933,945.628891267605,9762,-4206,13052,16832.759250936848
1735579928747,118,-99,933,945.628891267605,9821,-4209,11301,15552.502145957094
1735579928777,118,-99,933,945.628891267605,9869,-4199,9552,14362.084319485108
1735579928807,94,-83,950,958.2405752210663,9913,-4181,7801,13289.241174724762
1735579928837,94,-83,950,958.2405752210663,9946,-4152,6034,12351.97053105293
1735579928867,94,-83,950,958.2405752210663,9965,-4117,4271,11597.083900705384
1735579928897,171,-76,1000,1017.3578524786644,9968,-4080,2513,11059.95447549401
1735579928927,171,-76,1000,1017.3578524786644,9901,-4064,847,10736.07498110925
1735579928957,171,-76,1000,1017.3578524786644,9842,-4062,-819,10678.74379316219
1735579928987,201,-94,995,1019.4420042356505,9792,-4071,-2489,10892.723534543598
1735579929017,201,-94,995,1019.4420042356505,9743,-4093,-4128,11345.443226247267
1735579929047,201,-94,995,1019.4420042356505,9709,-4123,-5770,12023.173873815516
1735579929077,201,-94,995,1019.4420042356505,9688,-4160,-7414,12889.155907195785
1735579929107,148,-113,953,971.0211120258921,9716,-4190,-9099,13955.234036016738
1735579929137,148,-113,953,971.0211120258921,9763,-4209,-10805,15158.491844507487
1735579929167,148,-113,953,971.0211120258921,9806,-4218,-12512,16446.863044361984
1735579929197,96,-93,937,946.4850764803426,9847,-4218,-14222,17805.061555636363
1735579929227,96,-93,937,946.4850764803426,9908,-4198,-15995,19277.751243337487
1735579929257,96,-93,937,946.4850764803426,9953,-4166,-17765,20784.922179310655
1735579929287,140,-76,990,1002.7342619059149,9978,-4127,16470,19693.99687722124
1735579929317,140,-76,990,1002.7342619059149,9945,-4102,14764,18267.597680045397
1735579929346,140,-76,990,1002.7342619059149,9911,-4083,13058,16894.08695372437
1735579929375,140,-76,990,1002.7342619059149,9879,-4071,11353,15590.326840704784
1735579929408,201,-94,1003,1027.2516731551232,9822,-4073,9695,14389.37239771075
1735579929437,201,-94,1003,1027.2516731551232,9768,-4090,8059,13307.494317113196
1735579929467,201,-94,1003,1027.2516731551232,9728,-4117,6421,12361.7520602866
1735579929497,163,-116,964,984.5410098111709,9717,-4147,4764,11589.365556405579
1735579929527,163,-116,964,984.5410098111709,9744,-4170,3076,11036.132112293692
1735579929557,163,-116,964,984.5410098111709,9771,-4187,1388,10720.538885709058
1735579929587,97,-89,940,949.1733245303515,9803,-4197,-304,10667.991094859426
1735579929617,97,-89,940,949.1733245303515,9863,-4187,-2077,10914.378910409881
1735579929647,97,-89,940,949.1733245303515,9908,-4164,-3847,11415.199034620466
1735579929677,97,-89,940,949.1733245303515,9939,-4133,-5614,12140.11556781895
1735579929708,123,-82,980,991.0867772299255,9937,-4106,-7350,13024.043342986846
1735579929737,123,-82,980,991.0867772299255,9921,-4084,-9075,14052.07892092839
1735579929767,123,-82,980,991.0867772299255,9903,-4064,-10798,15204.680496478708
1735579929797,188,-84,1010,1030.7764064044152,9864,-4053,-12497,16428.643096738087
1735579929827,188,-84,1010,1030.7764064044152,9801,-4060,-14148,17683.582923152197
1735579929857,188,-84,1010,1030.7764064044152,9752,-4080,-15800,19010.20525928113
1735579929887,182,-110,970,993.0377636323807,9714,-4107,-17454,20392.92428760525
1735579929917,182,-110,970,993.0377636323807,9713,-4136,16883,19911.919897388096
1735579929947,182,-110,970,993.0377636323807,9718,-4164,15220,18531.77865181861
1735579929978,182,-110,970,993.0377636323807,9729,-4190,13555,17203.126634423174
1735579930007,92,-93,937,946.0877337752562,9792,-4201,11809,15905.475346559122
1735579930037,92,-93,937,946.0877337752562,9861,-4191,10030,14676.67203421811
1735579930067,92,-93,937,946.0877337752562,9914,-4167,8254,13556.540893605566
1735579930097,125,-79,974,985.1609005639638,9936,-4140,6501,12574.843816127499
1735579930127,125,-79,974,985.1609005639638,9925,-4118,4778,11759.797319682002
1735579930157,125,-79,974,985.1609005639638,9910,-4098,3057,11151.096493170526
1735579930187,200,-86,1020,1042.9745922121017,9891,-4082,1337,10783.421256725529
1735579930217,200,-86,1020,1042.9745922121017,9822,-4086,-299,10642.202826482871
1735579930247,200,-86,1020,1042.9745922121017,9768,-4103,-1937,10770.348276634326
1735579930277,200,-86,1020,1042.9745922121017,9727,-4131,-3576,11156.498823555712
1735579930307,177,-112,965,987.4705058886569,9723,-4160,-5238,11801.651282765475
1735579930337,177,-112,965,987.4705058886569,9739,-4185,-6910,12653.475649006481
1735579930367,177,-112,965,987.4705058886569,9758,-4207,-8583,13659.623054828417
1735579930397,102,-99,945,955.6306818012908,9801,-4219,-10291,14824.44747705627
1735579930427,102,-99,945,955.6306818012908,9869,-4208,-12058,16140.005855017525
1735579930457,102,-99,945,955.6306818012908,9922,-4184,-13823,17522.193612673043
1735579930487,117,-66,975,984.2103433717815,9958,-4152,-15582,18952.561621057983
1735579930517,117,-66,975,984.2103433717815,9943,-4125,-17317,20390.12905795351
1735579930547,117,-66,975,984.2103433717815,9924,-4101,16948,20063.366641717934
1735579930577,117,-66,975,984.2103433717815,9903,-4082,15215,18607.212526329677
1735579930608,200,-87,1018,1041.1018201885922,9846,-4076,13545,17234.399235250414
1735579930637,200,-87,1018,1041.1018201885922,9787,-4088,11905,15944.470452166168
1735579930667,200,-87,1018,1041.1018201885922,9741,-4111,10263,14734.876008979512
1735579930697,173,-111,952,973.9373696496094,9721,-4140,8610,13629.730041347115
1735579930727,173,-111,952,973.9373696496094,9734,-4164,6935,12656.376930227703
1735579930757,173,-111,952,973.9373696496094,9751,-4186,5259,11843.212317610454
1735579930787,88,-96,938,946.9973600807976,9775,-4203,3578,11225.770263104443
1735579930817,88,-96,938,946.9973600807976,9854,-4195,1794,10858.995211344372
1735579930847,88,-96,938,946.9973600807976,9915,-4171,13,10756.608898718963
1735579930907,88,-96,938,946.9973600807976,9958,-4135,-1763,10925.573577620537
1735579930908,139,-68,985,997.0807389574828,9940,-4108,-3488,11306.874369161444
1735579930936,139,-68,985,997.0807389574828,9902,-4091,-5192,11905.576382519244
1735579930966,139,-68,985,997.0807389574828,9867,-4082,-6897,12711.76706835049
1735579930996,199,-102,1010,1034.458795699471,9826,-4081,-8581,13668.884299751755
1735579931026,199,-102,1010,1034.458795699471,9782,-4096,-10220,14727.971347066099
1735579931056,199,-102,1010,1034.458795699471,9749,-4118,-11861,15896.04497980551
1735579931086,160,-112,960,979.6652489498645,9728,-4145,-13505,17152.260317520835
1735579931116,160,-112,960,979.6652489498645,9752,-4165,-15197,18530.988586689055
1735579931146,160,-112,960,979.6652489498645,9777,-4179,-16889,19957.256600044006
1735579931176,160,-112,960,979.6652489498645,9800,-4189,17417,20419.099147611778
1735579931206,89,-87,949,957.1264284304347,9855,-4183,15663,18972.297778603413
1735579931236,89,-87,949,957.1264284304347,9906,-4161,13884,17555.859790964383
1735579931266,89,-87,949,957.1264284304347,9941,-4130,12109,16202.106714868904
1735579931296,144,-77,993,1006.3369217116104,9942,-4099,10363,14934.421113655528
1735579931326,144,-77,993,1006.3369217116104,9905,-4082,8662,13776.864411033448
1735579931356,144,-77,993,1006.3369217116104,9871,-4072,6960,12745.957202187681
1735579931386,192,-94,1005,1027.4847930748172,9838,-4069,5259,11874.345708290626
1735579931416,192,-94,1005,1027.4847930748172,9786,-4081,3613,11201.523378540975
1735579931446,192,-94,1005,1027.4847930748172,9746,-4102,1965,10755.098558358264
1735579931476,192,-94,1005,1027.4847930748172,9719,-4131,315,10565.195076287044
1735579931506,153,-109,956,974.2822999521237,9733,-4156,-1368,10671.225281100573
1735579931536,153,-109,956,974.2822999521237,9762,-4173,-3068,11050.936476154408
1735579931566,153,-109,956,974.2822999521237,9790,-4185,-4768,11665.853976456247
1735579931596,90,-90,946,954.5239651260727,9834,-4187,-6497,12507.978813541378
1735579931626,90,-90,946,954.5239651260727,9891,-4171,-8275,13553.772426892818
1735579931656,90,-90,946,954.5239651260727,9933,-4144,-10049,14724.796297402556
1735579931686,162,-77,992,1008.0858098396187,9957,-4110,-11818,15990.593266042382
1735579931716,162,-77,992,1008.0858098396187,9908,-4094,-13498,17237.322994015052
1735579931749,162,-77,992,1008.0858098396187,9864,-4088,-15180,18559.165929534658
1735579931776,162,-77,992,1008.0858098396187,9827,-4090,-16861,19939.692826119463
1735579931807,198,-98,998,1022.1604570711978,9782,-4102,17483,20449.18621852713
1735579931837,198,-98,998,1022.1604570711978,9747,-4125,15840,19050.596683568732
1735579931866,198,-98,998,1022.1604570711978,9722,-4154,14196,17700.26598670201
1735579931896,141,-102,942,957.9399772428333,9728,-4181,12525,16400.92588849788
1735579931926,141,-102,942,957.9399772428333,9768,-4196,10807,15159.534590481331
1735579931956,141,-102,942,957.9399772428333,9804,-4202,9089,14013.74828516625
1735579931986,87,-80,945,952.3623260083318,9839,-4202,7371,12992.088592678238
1735579932016,87,-80,945,952.3623260083318,9894,-4186,5589,12109.944384678238
1735579932046,87,-80,945,952.3623260083318,9935,-4158,3811,11424.399765414373
1735579932077,87,-80,945,952.3623260083318,9960,-4123,2036,10970.233589126532
1735579932106,164,-77,992,1008.4091431556935,9926,-4099,331,10744.153666064163
1735579932137,164,-77,992,1008.4091431556935,9877,-4090,-1345,10774.611547522258
1735579932166,164,-77,992,1008.4091431556935,9834,-4091,-3023,11071.69210193275
1735579932196,190,-99,1002,1024.6487202939356,9796,-4099,-4692,11609.404851240222
1735579932226,190,-99,1002,1024.6487202939356,9765,-4116,-6343,12350.316999980203
1735579932256,190,-99,1002,1024.6487202939356,9744,-4139,-7996,13266.984321992697
1735579932286,139,-99,952,967.1742345616947,9733,-4164,-9652,14325.895748608531
1735579932316,139,-99,952,967.1742345616947,9767,-4179,-11371,15561.42573802285
1735579932346,139,-99,952,967.1742345616947,9799,-4187,-13091,16879.740845167024
1735579932376,139,-99,952,967.1742345616947,9827,-4189,-14810,18260.71603196326
1735579932406,83,-87,949,956.5871627823573,9880,-4177,-16574,19742.32015240357
1735579932436,83,-87,949,956.5871627823573,9928,-4151,17644,20666.560454028146
1735579932466,83,-87,949,956.5871627823573,9959,-4114,15867,19179.89483808501
1735579932496,165,-73,1002,1018.1149247506394,9948,-4080,14127,17753.344276501823
1735579932528,165,-73,1002,1018.1149247506394,9887,-4066,12449,16409.226855644356
1735579932557,165,-73,1002,1018.1149247506394,9834,-4065,10771,15140.879168661244
1735579932586,194,-102,1005,1028.622865777346,9787,-4074,9093,13966.584908273031
1735579932616,194,-102,1005,1028.622865777346,9748,-4095,7451,12934.833976514736
1735579932646,194,-102,1005,1028.622865777346,9721,-4124,5807,12050.994398803778
1735579932676,124,-107,943,957.1175476397871,9709,-4156,4157,11349.787046460388
1735579932737,124,-107,943,957.1175476397871,9765,-4169,2419,10889.781770081529
1735579932737,124,-107,943,957.1175476397871,9814,-4171,680,10685.234531820066
1735579932766,124,-107,943,957.1175476397871,9854,-4163,-1056,10749.2800224015
1735579932797,93,-70,945,952.1417961627354,9886,-4148,-2814,11084.110068020796
1735579932826,93,-70,945,952.1417961627354,9905,-4127,-4581,11667.335385596833
1735579932856,93,-70,945,952.1417961627354,9915,-4102,-6345,12465.65898779523
1735579932886,174,-77,1000,1017.9415503848932,9914,-4076,-8106,13439.062764940121
1735579932916,174,-77,1000,1017.9415503848932,9854,-4072,-9771,14462.19004853691
1735579932946,174,-77,1000,1017.9415503848932,9804,-4080,-11438,15607.455269838194
1735579932976,193,-104,993,1016.9139589955485,9763,-4097,-13106,16848.40686830657
1735579933006,193,-104,993,1016.9139589955485,9737,-4121,-14752,18149.746940384597
1735579933037,193,-104,993,1016.9139589955485,9722,-4149,-16400,19511.316844334215
1735579933068,193,-104,993,1016.9139589955485,9716,-4180,17949,20833.618432715906
1735579933097,125,-94,945,957.8548950650093,9754,-4199,16237,19401.347530519626
1735579933157,125,-94,945,957.8548950650093,9801,-4205,14500,17999.767387385873
1735579933157,125,-94,945,957.8548950650093,9841,-4202,12763,16655.217020501415
1735579933186,111,-76,958,967.3990903448276,9874,-4193,11028,15384.859732867246
1735579933216,111,-76,958,967.3990903448276,9899,-4178,9280,14197.333728556217
1735579933246,111,-76,958,967.3990903448276,9915,-4160,7533,13128.553385655252
1735579933276,178,-77,1016,1034.3447201006056,9921,-4138,5789,12209.087025654293
1735579933306,178,-77,1016,1034.3447201006056,9873,-4131,4123,11469.107157926463
1735579933336,178,-77,1016,1034.3447201006056,9832,-4134,2456,10944.867107461836
1735579933366,178,-77,1016,1034.3447201006056,9799,-4144,788,10668.368244488001
1735579933396,198,-101,976,1000.9900099401592,9769,-4162,-862,10653.574470570898
1735579933427,198,-101,976,1000.9900099401592,9750,-4185,-2507,10902.374695450528
1735579933456,198,-101,976,1000.9900099401592,9740,-4211,-4153,11395.066037544495
1735579933486,105,-96,941,951.6942786420437,9769,-4231,-5845,12144.906216187921
1735579933517,105,-96,941,951.6942786420437,9842,-4228,-7611,13140.329866483566
1735579933547,105,-96,941,951.6942786420437,9899,-4210,-9376,14269.676835864224
1735579933577,112,-69,966,974.9158938082813,9941,-4183,-11134,15501.191115523994
1735579933606,112,-69,966,974.9158938082813,9944,-4156,-12878,16792.806674287654
1735579933636,112,-69,966,974.9158938082813,9939,-4130,-14619,18153.671309131936
1735579933666,112,-69,966,974.9158938082813,9928,-4105,-16359,19571.231182529114
1735579933696,200,-90,1007,1030.606132331843,9875,-4094,17971,20910.124389873916
1735579933726,200,-90,1007,1030.606132331843,9816,-4102,16334,19493.070974066657
1735579933787,200,-90,1007,1030.606132331843,9770,-4120,14695,18120.991280832295
1735579933787,184,-106,965,988.0875467285275,9743,-4144,13047,16802.469877967345
1735579933816,184,-106,965,988.0875467285275,9740,-4167,11385,15551.518060948263
1735579933846,184,-106,965,988.0875467285275,9743,-4191,9721,14387.090428575195
1735579933876,93,-87,950,958.4977829916979,9756,-4213,8052,13332.801993579595
1735579933906,93,-87,950,958.4977829916979,9829,-4211,6272,12396.763529244236
1735579933936,93,-87,950,958.4977829916979,9888,-4195,4495,11643.693314408449
1735579933966,93,-87,950,958.4977829916979,9931,-4166,2720,11107.597264935383
1735579933997,124,-76,974,984.7984565381894,9935,-4140,982,10807.781872336247
1735579934027,124,-76,974,984.7984565381894,9922,-4118,-742,10768.220465796565
1735579934056,124,-76,974,984.7984565381894,9906,-4098,-2466,11000.163453331046
1735579934086,201,-89,1009,1032.6679040233603,9870,-4086,-4161,11464.127398105797
1735579934117,201,-89,1009,1032.6679040233603,9810,-4094,-5800,12109.373889677368
1735579934147,201,-89,1009,1032.6679040233603,9763,-4114,-7440,12945.839679217412
1735579934177,165,-105,966,985.5993100646936,9727,-4141,-9081,13936.53367950582
1735579934207,165,-105,966,985.5993100646936,9739,-4164,-10764,15101.348052409096
1735579934237,165,-105,966,985.5993100646936,9754,-4185,-12448,16358.71159352105
1735579934267,165,-105,966,985.5993100646936,9772,-4202,-14133,17688.710439147337
1735579934297,81,-98,935,943.6047901531657,9843,-4201,-15895,19162.047776790456
1735579934328,81,-98,935,943.6047901531657,9914,-4177,-17686,20700.949760820153
1735579934358,81,-98,935,943.6047901531657,9966,-4140,16527,19738.350614983006
1735579934388,143,-74,990,1003.0079760400712,9973,-4101,14775,18291.515929523175
1735579934417,143,-74,990,1003.0079760400712,9928,-4077,13074,16914.98120010779
1735579934447,143,-74,990,1003.0079760400712,9887,-4063,11374,15608.6070486767
1735579934477,197,-103,1006,1030.2688969390467,9846,-4057,9674,14387.120663982769
1735579934507,197,-103,1006,1030.2688969390467,9794,-4068,8033,13304.1402954118
1735579934538,197,-103,1006,1030.2688969390467,9754,-4089,6391,12357.399321863804
1735579934567,197,-103,1006,1030.2688969390467,9725,-4117,4748,11578.809006111122
1735579934597,146,-108,951,968.1843832659149,9738,-4139,3059,11014.41991209705
1735579934628,146,-108,951,968.1843832659149,9765,-4152,1350,10696.580247911012
1735579934658,146,-108,951,968.1843832659149,9791,-4160,-358,10644.12725403074
1735579934687,85,-88,940,947.9287947942081,9831,-4160,-2092,10877.988095231582
1735579934717,85,-88,940,947.9287947942081,9883,-4144,-3871,11394.343596714994
1735579934747,85,-88,940,947.9287947942081,9921,-4117,-5647,12135.260153783272
1735579934778,151,-73,998,1011.9950592764769,9943,-4084,-7418,13060.207846738122
1735579934807,151,-73,998,1011.9950592764769,9895,-4067,-9111,14052.111407187178
1735579934837,151,-73,998,1011.9950592764769,9852,-4060,-10803,15174.001219190672
1735579934867,151,-73,998,1011.9950592764769,9815,-4062,-12496,16400.73428234236
1735579934897,193,-91,1000,1022.5116136259774,9765,-4075,-14158,17675.118500309978
1735579934928,193,-91,1000,1022.5116136259774,9724,-4101,-15805,19004.53635319736
1735579934957,193,-91,1000,1022.5116136259774,9696,-4134,-17455,20390.669361254426
1735579934987,154,-101,952,969.6499368328758,9696,-4168,16876,19904.37178109372
1735579935017,154,-101,952,969.6499368328758,9727,-4194,15175,18506.34458773531
1735579935048,154,-101,952,969.6499368328758,9759,-4212,13473,17161.024270130267
1735579935078,104,-79,941,950.0199997894781,9794,-4225,11769,15883.400832315478
1735579935108,104,-79,941,950.0199997894781,9849,-4221,10005,14660.138710121402
1735579935137,104,-79,941,950.0199997894781,9893,-4205,8244,13546.845020151372
1735579935167,104,-79,941,950.0199997894781,9925,-4181,6484,12570.944355934442
1735579935197,162,-77,996,1012.0222329573595,9912,-4165,4776,11764.571602910155
1735579935228,162,-77,996,1012.0222329573595,9885,-4156,3089,11159.18823212513
1735579935258,162,-77,996,1012.0222329573595,9861,-4153,1403,10791.438226668399
1735579935288,201,-100,1000,1024.8907258825207,9832,-4156,-267,10677.633117877764
1735579935318,201,-100,1000,1024.8907258825207,9801,-4168,-1908,10819.994870608765
1735579935347,201,-100,1000,1024.8907258825207,9778,-4186,-3551,11213.450896133625
1735579935377,141,-106,943,959.3570763798014,9765,-4207,-5197,11834.816559626093
1735579935406,141,-106,943,959.3570763798014,9810,-4213,-6917,12721.25614866708
1735579935437,141,-106,943,959.3570763798014,9848,-4211,-8636,13758.49268633741
1735579935467,141,-106,943,959.3570763798014,9878,-4200,-10354,14913.75874821636
1735579935497,90,-86,956,964.0705368384619,9921,-4179,-12111,16203.907028861897
1735579935527,90,-86,956,964.0705368384619,9956,-4146,-13883,17579.787854237606
1735579935557,90,-86,956,964.0705368384619,9976,-4106,-15651,19008.77726209658
1735579935587,173,-71,1003,1020.2837840522607,9952,-4071,-17382,20438.91555342406
1735579935617,173,-71,1003,1020.2837840522607,9881,-4059,16950,20035.27244636319
1735579935647,173,-71,1003,1020.2837840522607,9820,-4062,15282,18613.75212040818
1735579935677,201,-104,988,1013.588180672999,9767,-4075,13614,17243.57590524657
1735579935707,201,-104,988,1013.588180672999,9730,-4101,11976,15966.078948821467
1735579935737,201,-104,988,1013.588180672999,9706,-4133,10338,14770.320544930635
1735579935767,201,-104,988,1013.588180672999,9693,-4169,8697,13673.793146014752
1735579935797,112,-107,950,962.5450638801282,9745,-4192,6978,12697.6522633123
1735579935827,112,-107,950,962.5450638801282,9812,-4197,5225,11882.372574532412
1735579935858,112,-107,950,962.5450638801282,9867,-4187,3474,11267.534512926952
1735579935887,108,-76,961,970.0314427893562,9906,-4170,1726,10885.624097864118
1735579935916,108,-76,961,970.0314427893562,9920,-4148,-21,10752.336722777984
1735579935947,108,-76,961,970.0314427893562,9925,-4124,-1767,10891.982831422385
1735579935977,177,-83,1016,1034.63713445826,9921,-4099,-3511,11294.032185185237
1735579936008,177,-83,1016,1034.63713445826,9866,-4093,-5175,11868.918653356757
1735579936037,177,-83,1016,1034.63713445826,9820,-4097,-6840,12649.24539251255
1735579936067,177,-83,1016,1034.63713445826,9783,-4110,-8506,13599.677385879417
1735579936097,193,-103,978,1002.1686484818811,9754,-4130,-10160,14677.295936241117
1735579936127,193,-103,978,1002.1686484818811,9736,-4156,-11808,15858.464490611947
1735579936157,193,-103,978,1002.1686484818811,9728,-4184,-13459,17125.551699142427
1735579936187,110,-94,938,949.0943051140914,9755,-4206,-15151,18504.1417525915
1735579936217,110,-94,938,949.0943051140914,9818,-4207,-16910,20001.001799909922
1735579936247,110,-94,938,949.0943051140914,9870,-4196,17331,20381.042097989004
1735579936277,103,-82,979,987.8127352894373,9909,-4176,15578,18928.84943677243
1735579936307,103,-82,979,987.8127352894373,9932,-4152,13824,17521.036042426258
1735579936337,103,-82,979,987.8127352894373,9944,-4123,12073,16175.277246464742
1735579936367,103,-82,979,987.8127352894373,9947,-4093,10324,14909.07220453372
1735579936397,191,-85,1010,1031.4097149047996,9895,-4076,8644,13756.581588461575
1735579936428,191,-85,1010,1031.4097149047996,9832,-4078,6996,12737.437889936893
1735579936458,191,-85,1010,1031.4097149047996,9780,-4092,5347,11873.637732388503
1735579936487,176,-109,972,993.8012879846756,9748,-4112,3692,11205.485799375232
1735579936517,176,-109,972,993.8012879846756,9744,-4133,2024,10776.075398771112
1735579936547,176,-109,972,993.8012879846756,9745,-4154,355,10599.375736334663
1735579936578,106,-95,930,940.8299527544816,9756,-4174,-1318,10692.938604518404
1735579936608,106,-95,930,940.8299527544816,9815,-4175,-3079,11101.580563145051
1735579936637,106,-95,930,940.8299527544816,9863,-4164,-4839,11748.76955259571
1735579936667,123,-80,976,986.9675779882539,9899,-4145,-6593,12595.192535249313
1735579936697,123,-80,976,986.9675779882539,9900,-4129,-8322,13576.241195559249
