Timestamp,Acc_X,Acc_Y,Acc_Z,Acc_Betrag,Ori_X,Ori_Y,Ori_Z,Ori_Betrag
1735578091497,149,-17,928,940.0393608780432,9969,-4314,-5622,12231.044150030692
1735578091520,149,-17,928,940.0393608780432,9912,-4272,-7362,13065.097473804013
1735578091520,149,-17,928,940.0393608780432,9855,-4241,-9101,14068.948326012147
1735578091549,149,-17,928,940.0393608780432,9802,-4222,-10840,15212.169076104827
1735578091579,161,-186,1005,1034.6699956991117,9846,-4230,-12542,16496.61722899577
1735578091609,161,-186,1005,1034.6699956991117,9923,-4220,-14238,17860.430369954694
1735578091639,161,-186,1005,1034.6699956991117,9984,-4195,-15932,19264.13519989932
1735578091669,43,-64,914,917.2464227240137,10002,-4131,-17680,20728.90650758018
1735578091699,43,-64,914,917.2464227240137,9976,-4046,16484,19687.88835807436
1735578091729,43,-64,914,917.2464227240137,9932,-3968,14654,18141.922830835767
1735578091759,131,-123,974,990.4372771660001,9875,-3911,12835,16659.79504675853
1735578091789,131,-123,974,990.4372771660001,9808,-3902,11125,15335.84340686876
1735578091820,131,-123,974,990.4372771660001,9751,-3906,9413,14104.729915882828
1735578091849,131,-123,974,990.4372771660001,9705,-3922,7701,12995.172565225905
1735578091879,-4,-148,981,992.1093689709819,9765,-3895,5811,12012.242546668795
1735578091909,-4,-148,981,992.1093689709819,9837,-3842,3877,11249.829420929012
1735578091939,-4,-148,981,992.1093689709819,9878,-3773,1949,10752.16322420749
1735578091969,84,-121,956,967.2812414184408,9853,-3718,106,10531.684053369623
1735578091999,84,-121,956,967.2812414184408,9768,-3696,-1649,10573.241745084617
1735578092029,84,-121,956,967.2812414184408,9693,-3692,-3406,10917.231746189142
1735578092059,220,-164,968,1006.1411431802201,9626,-3713,-5150,11531.207438945845
1735578092089,220,-164,968,1006.1411431802201,9520,-3786,-6722,12253.549689783773
1735578092120,220,-164,968,1006.1411431802201,9449,-3877,-8296,13158.20451277453
1735578092149,220,-164,968,1006.1411431802201,9409,-3980,-9873,14207.244982754397
1735578092179,3,-45,919,920.1059721575554,9488,-4028,-11690,15585.34657939951
1735578092209,3,-45,919,920.1059721575554,9579,-4048,-13590,17112.324359945964
1735578092239,3,-45,919,920.1059721575554,9659,-4048,-15490,18698.200047063354
1735578092269,172,-27,890,906.8698914397809,9644,-4075,-17245,20174.30013655988
1735578092300,172,-27,890,906.8698914397809,9542,-4149,17161,20068.978200197438
1735578092329,172,-27,890,906.8698914397809,9475,-4241,15564,18708.281642096368
1735578092359,56,-5,984,985.6048904099451,9467,-4332,13932,17392.266586043348
1735578092389,56,-5,984,985.6048904099451,9598,-4375,12100,16052.172096012428
1735578092419,56,-5,984,985.6048904099451,9716,-4389,10266,14800.49772811712
1735578092449,56,-5,984,985.6048904099451,9815,-4379,8433,13661.089085427999
1735578092479,66,-95,1010,1016.6026755817634,9860,-4374,6679,12687.021596891842
1735578092509,66,-95,1010,1016.6026755817634,9916,-4355,4931,11899.90932738565
1735578092539,66,-95,1010,1016.6026755817634,9955,-4326,3186,11312.245444649794
1735578092569,146,-102,911,928.2461957907503,10006,-4273,1397,10969.511110345802
1735578092599,146,-102,911,928.2461957907503,10019,-4212,-362,10874.389592064466
1735578092629,146,-102,911,928.2461957907503,10014,-4149,-2117,11044.278428217935
1735578092659,122,-103,1026,1038.3491705587287,9989,-4093,-3861,11464.732487066587
1735578092690,122,-103,1026,1038.3491705587287,9966,-4049,-5616,12134.867654820138
1735578092719,122,-103,1026,1038.3491705587287,9936,-4011,-7368,13003.831781440424
1735578092749,122,-103,1026,1038.3491705587287,9901,-3979,-9119,14036.32441203893
1735578092780,-37,-195,963,983.2410691178436,9950,-3911,-10990,15332.270575488812
1735578092809,-37,-195,963,983.2410691178436,10019,-3811,-12908,16778.574015690367
1735578092840,-37,-195,963,983.2410691178436,10045,-3698,-14816,18278.158687351413
1735578092870,150,-109,1022,1038.684263864626,9972,-3623,-16613,19711.89189296654
1735578092899,150,-109,1022,1038.684263864626,9786,-3620,17735,20576.696066181277
1735578092930,150,-109,1022,1038.684263864626,9633,-3656,16082,19099.52221915512
1735578092960,120,-104,970,982.9120001302252,9537,-3715,14394,17661.90335156435
1735578092989,120,-104,970,982.9120001302252,9524,-3767,12608,16243.722756806705
1735578093019,120,-104,970,982.9120001302252,9527,-3821,10818,14912.84325673679
1735578093049,120,-104,970,982.9120001302252,9544,-3873,9025,13694.476623807133
1735578093079,-7,-92,1003,1007.2348286273664,9604,-3926,7207,12632.93873174409
1735578093109,-7,-92,1003,1007.2348286273664,9688,-3956,5339,11747.859422039404
1735578093139,-7,-92,1003,1007.2348286273664,9765,-3965,3471,11096.138562581129
1735578093169,158,-72,916,932.3111068736658,9777,-3967,1684,10684.69344436236
1735578093199,158,-72,916,932.3111068736658,9707,-3995,25,10496.975707316846
1735578093230,158,-72,916,932.3111068736658,9656,-4037,-1635,10592.871659753082
1735578093260,107,-163,1055,1072.8667205203076,9629,-4092,-3307,10972.618374845631
1735578093290,107,-163,1055,1072.8667205203076,9740,-4139,-5057,11729.116335001541
1735578093320,107,-163,1055,1072.8667205203076,9843,-4161,-6807,12670.194118481373
1735578093349,107,-163,1055,1072.8667205203076,9933,-4163,-8558,13756.250288505222
1735578093380,229,-8,942,969.4684110377192,9828,-4181,-10214,14778.231998449612
1735578093409,229,-8,942,969.4684110377192,9682,-4239,-11828,15862.276917265062
1735578093439,229,-8,942,969.4684110377192,9575,-4323,-13446,17063.52454799418
1735578093469,-51,-192,836,859.2793492223585,9592,-4395,-15156,18466.911625932476
1735578093499,-51,-192,836,859.2793492223585,9833,-4393,-17077,20189.360242464347
1735578093529,-51,-192,836,859.2793492223585,10025,-4341,17010,20215.959190698817
1735578093559,-17,-259,995,1028.2971360458027,10210,-4261,15119,18734.57717697413
1735578093620,-17,-259,995,1028.2971360458027,10458,-4159,13296,17419.83527476652
1735578093620,-17,-259,995,1028.2971360458027,10626,-4006,11494,16157.721002666187
1735578093650,-17,-259,995,1028.2971360458027,10717,-3818,9713,14959.06354020866
1735578093679,218,-172,1062,1097.70305638638,10583,-3712,8111,13840.778663066612
1735578093709,218,-172,1062,1097.70305638638,10391,-3666,6585,12836.458312166951
1735578093739,218,-172,1062,1097.70305638638,10224,-3656,5056,11977.464172353011
1735578093769,51,-154,1119,1130.6980145025461,10093,-3633,3378,11246.25368733962
1735578093800,51,-154,1119,1130.6980145025461,10017,-3594,1538,10752.793544005204
1735578093830,51,-154,1119,1130.6980145025461,9945,-3574,-301,10571.996121830542
1735578093860,133,-166,1083,1103.6910799675786,9858,-3558,-2145,10697.689142987845
1735578093890,133,-166,1083,1103.6910799675786,9701,-3560,-3912,11049.287081074506
1735578093919,133,-166,1083,1103.6910799675786,9574,-3597,-5683,11700.27238999161
1735578093949,133,-166,1083,1103.6910799675786,9481,-3660,-7457,12605.229470342854
1735578093979,123,-96,878,891.7561325833425,9308,-3741,-9127,13562.303417930156
1735578094009,123,-96,878,891.7561325833425,9168,-3858,-10805,14686.198044422525
1735578094039,123,-96,878,891.7561325833425,9081,-3999,-12487,15949.348920880751
1735578094069,133,-3,817,827.7602309847942,9090,-4168,-14191,17360.437926504044
1735578094099,133,-3,817,827.7602309847942,9123,-4343,-15908,18845.562926057686
1735578094129,133,-3,817,827.7602309847942,9196,-4505,-17640,20396.838995295326
1735578094159,35,-178,1042,1057.6733900406118,9327,-4651,16604,19604.018618640413
1735578094220,35,-178,1042,1057.6733900406118,9750,-4726,14698,18260.032311033843
1735578094220,35,-178,1042,1057.6733900406118,10117,-4714,12791,16976.01737746519
1735578094250,35,-178,1042,1057.6733900406118,10407,-4629,10902,15766.638639862334
1735578094279,206,-12,910,933.1023523708426,10405,-4542,9173,14595.811659513834
1735578094309,206,-12,910,933.1023523708426,10303,-4486,7515,13518.551327712596
1735578094339,206,-12,910,933.1023523708426,10206,-4449,5859,12581.093672650244
1735578094369,-9,-121,1019,1026.1983239120984,10242,-4392,4068,11863.256382629517
1735578094399,-9,-121,1019,1026.1983239120984,10417,-4258,2105,11448.81993919024
1735578094429,-9,-121,1019,1026.1983239120984,10513,-4087,168,11280.734107317661
1735578094459,58,-111,1075,1082.270760946631,10529,-3911,-1721,11362.992695588606
1735578094489,58,-111,1075,1082.270760946631,10438,-3786,-3479,11635.681372399298
1735578094519,58,-111,1075,1082.270760946631,10332,-3680,-5234,12152.669665550859
1735578094549,58,-111,1075,1082.270760946631,10221,-3599,-6989,12894.485759424453
1735578094579,69,-113,990,998.8142970542623,10095,-3531,-8737,13809.85716797969
1735578094609,69,-113,990,998.8142970542623,9975,-3494,-10483,14886.300749346696
1735578094639,69,-113,990,998.8142970542623,9869,-3483,-12231,16097.385222451503
1735578094669,41,-37,933,934.6330830866196,9761,-3495,-14006,17425.848099877378
1735578094699,41,-37,933,934.6330830866196,9645,-3537,-15812,18856.185669429542
1735578094729,41,-37,933,934.6330830866196,9562,-3603,-17620,20368.550586627414
1735578094759,204,-82,973,997.5314531381955,9485,-3691,16599,19470.888705963065
1735578094789,204,-82,973,997.5314531381955,9333,-3830,15055,18122.549875776313
1735578094819,204,-82,973,997.5314531381955,9235,-3993,13511,16845.663982164668
1735578094849,204,-82,973,997.5314531381955,9187,-4172,11962,15649.153235878292
1735578094879,181,-156,958,987.3504950117765,9240,-4322,10337,14522.77015586214
1735578094909,181,-156,958,987.3504950117765,9344,-4452,8693,13516.615293778246
1735578094940,181,-156,958,987.3504950117765,9463,-4561,7039,12645.102253441844
1735578094969,-3,-9,939,939.0479220998255,9622,-4628,5269,11906.453250233673
1735578094999,-3,-9,939,939.0479220998255,9800,-4639,3331,11342.657625089458
1735578095030,-3,-9,939,939.0479220998255,9946,-4614,1397,11052.760786337501
1735578095059,189,-30,994,1012.2534267662421,10064,-4558,-532,11060.853674106715
1735578095120,189,-30,994,1012.2534267662421,10032,-4526,-2237,11230.755495513202
1735578095120,189,-30,994,1012.2534267662421,9998,-4501,-3940,11650.86284358373
1735578095150,97,-86,1037,1045.071289434362,9978,-4483,-5640,12307.208172449185
1735578095179,97,-86,1037,1045.071289434362,10099,-4437,-7441,13305.835223690394
1735578095209,97,-86,1037,1045.071289434362,10183,-4367,-9233,14422.63731083882
1735578095239,97,-86,1037,1045.071289434362,10230,-4282,-11015,15630.695729877158
1735578095269,172,-55,980,996.4983692911895,10171,-4183,-12724,16818.05297886768
1735578095299,172,-55,980,996.4983692911895,10076,-4107,-14401,18049.43284427519
1735578095329,172,-55,980,996.4983692911895,9981,-4050,-16078,19352.646976576616
1735578095359,44,-61,919,922.0726652493283,9881,-4011,-17747,20704.547592256153
1735578095389,44,-61,919,922.0726652493283,9860,-3960,16460,19591.651283135885
1735578095419,44,-61,919,922.0726652493283,9830,-3915,14671,18088.514753843112
1735578095449,-31,-61,1050,1052.227161785895,9816,-3881,12869,16644.13344094549
1735578095479,-31,-61,1050,1052.227161785895,9882,-3834,10961,15247.852340575704
1735578095509,-31,-61,1050,1052.227161785895,9921,-3773,9058,13953.82148373699
1735578095539,-31,-61,1050,1052.227161785895,9935,-3705,7160,12794.40698117736
1735578095569,137,-48,901,912.6193072689181,9767,-3671,5455,11774.020341412699
1735578095599,137,-48,901,912.6193072689181,9590,-3687,3806,10956.628359125812
1735578095629,137,-48,901,912.6193072689181,9449,-3738,2153,10387.090738026698
1735578095659,307,-29,947,995.9412633283149,9327,-3829,546,10097.142467054726
1735578095689,307,-29,947,995.9412633283149,9175,-3964,-943,10039.082129358241
1735578095719,307,-29,947,995.9412633283149,9074,-4123,-2434,10259.676456886933
1735578095749,127,-41,946,955.366945210059,9016,-4292,-3916,10725.883460116467
1735578095779,127,-41,946,955.366945210059,9141,-4438,-5597,11600.867812366452
1735578095809,127,-41,946,955.366945210059,9283,-4557,-7291,12653.024104932385
1735578095839,127,-41,946,955.366945210059,9432,-4646,-8995,13836.833633458198
1735578095869,-16,-16,897,897.2853503763449,9694,-4672,-10925,15334.824583281023
1735578095899,-16,-16,897,897.2853503763449,9941,-4630,-12907,16936.677064879048
1735578095929,-16,-16,897,897.2853503763449,10123,-4537,-14871,18552.793293733426
1735578095959,146,26,973,984.2362521264902,10190,-4451,-16720,20079.987574697352
1735578095989,146,26,973,984.2362521264902,10127,-4405,17579,20760.091401532893
1735578096019,146,26,973,984.2362521264902,10065,-4370,15880,19302.215546408137
1735578096049,30,-146,1055,1065.4768885339558,10012,-4341,14164,17880.24946693977
1735578096079,30,-146,1055,1065.4768885339558,10190,-4252,12287,16519.260667475406
1735578096109,30,-146,1055,1065.4768885339558,10304,-4127,10428,15229.830235429416
1735578096139,30,-146,1055,1065.4768885339558,10359,-3979,8585,14030.094333253786
1735578096169,115,-42,956,963.8075534047241,10227,-3880,6844,12902.955669148057
1735578096199,115,-42,956,963.8075534047241,10056,-3825,5131,11919.77021590601
1735578096229,115,-42,956,963.8075534047241,9904,-3806,3416,11146.475137907948
1735578096258,216,-13,945,969.4586118035159,9771,-3832,1735,10637.992761794867
1735578096288,216,-13,945,969.4586118035159,9625,-3905,124,10387.734401687405
1735578096318,216,-13,945,969.4586118035159,9521,-4005,-1490,10435.974607098275
1735578096348,123,-158,1041,1060.082072294405,9468,-4116,-3122,10785.701831591674
1735578096378,123,-158,1041,1060.082072294405,9650,-4183,-4894,11600.48382611691
1735578096408,123,-158,1041,1060.082072294405,9816,-4212,-6670,12593.002024934325
1735578096438,123,-158,1041,1060.082072294405,9959,-4206,-8444,13717.6256327398
1735578096468,252,-117,938,978.2826789839428,9936,-4222,-10058,14755.092137970538
1735578096498,252,-117,938,978.2826789839428,9882,-4258,-11625,15840.615928681562
1735578096529,252,-117,938,978.2826789839428,9845,-4303,-13194,17015.330440517457
1735578096558,258,-41,993,1026.7881962702922,9855,-4344,-14801,18304.67049689778
1735578096588,258,-41,993,1026.7881962702922,9855,-4382,-16424,19648.682525808188
1735578096618,258,-41,993,1026.7881962702922,9863,-4420,17950,20952.748483194275
1735578096648,55,-176,964,981.4769482774417,9819,-4452,16345,19580.400659843504
1735578096680,55,-176,964,981.4769482774417,9944,-4431,14547,18169.53785873488
1735578096708,55,-176,964,981.4769482774417,10038,-4386,12755,16813.34187483262
1735578096738,55,-176,964,981.4769482774417,10102,-4322,10971,15527.167449345035
1735578096769,-39,-106,882,889.2024516385455,10224,-4221,9066,14301.726224480735
1735578096798,-39,-106,882,889.2024516385455,10291,-4088,7143,13177.210402812882
1735578096829,-39,-106,882,889.2024516385455,10305,-3943,5237,12213.37148374682
1735578096858,44,69,1008,1011.3164687673192,10238,-3821,3358,11432.097314141443
1735578096888,44,69,1008,1011.3164687673192,10048,-3758,1533,10836.741069159123
1735578096919,44,69,1008,1011.3164687673192,9879,-3739,-295,10567.014100492153
1735578096949,163,-152,1048,1071.4368856820265,9727,-3759,-2114,10640.188250214373
1735578096979,163,-152,1048,1071.4368856820265,9697,-3813,-3783,11085.209380070364
1735578097008,163,-152,1048,1071.4368856820265,9684,-3872,-5455,11769.84558097514
1735578097038,163,-152,1048,1071.4368856820265,9688,-3932,-7129,12654.667478839576
1735578097069,114,-114,992,1005.015422767233,9705,-3966,-8861,13727.108289803793
1735578097099,114,-114,992,1005.015422767233,9728,-3994,-10612,14939.898393228785
1735578097129,114,-114,992,1005.015422767233,9753,-4016,-12364,16251.700249512356
1735578097158,116,-30,912,919.8369420718001,9745,-4026,-14108,17612.76142460347
1735578097188,116,-30,912,919.8369420718001,9691,-4042,-15847,19010.01457127269
1735578097219,116,-30,912,919.8369420718001,9651,-4070,-17588,20470.575101838247
1735578097248,156,-217,1000,1035.0966138481954,9619,-4116,16682,19691.514441505
1735578097278,156,-217,1000,1035.0966138481954,9717,-4179,15024,18374.022586249317
1735578097308,156,-217,1000,1035.0966138481954,9813,-4222,13364,17108.966917964393
1735578097338,156,-217,1000,1035.0966138481954,9902,-4246,11702,15906.44284558933
1735578097369,159,-17,979,991.9732859306242,9890,-4251,10031,14714.077001293694
1735578097399,159,-17,979,991.9732859306242,9831,-4270,8360,13593.051938398528
1735578097428,159,-17,979,991.9732859306242,9788,-4300,6687,12609.952934091389
1735578097489,211,-73,995,1019.7426145846804,9730,-4344,5066,11798.626699747729
1735578097489,211,-73,995,1019.7426145846804,9682,-4406,3500,11198.390955847184
1735578097518,211,-73,995,1019.7426145846804,9656,-4475,1930,10816.138913678948
1735578097548,50,-35,980,981.8986709431886,9682,-4547,319,10701.31272321298
1735578097578,50,-35,980,981.8986709431886,9877,-4570,-1561,10994.39629993389
1735578097608,50,-35,980,981.8986709431886,10042,-4554,-3440,11550.509945452624
1735578097638,50,-35,980,981.8986709431886,10169,-4504,-5310,12324.393575344793
1735578097668,112,-50,940,947.9683539021754,10191,-4441,-7105,13193.179563698814
1735578097698,112,-50,940,947.9683539021754,10181,-4381,-8871,14196.498265417427
1735578097729,112,-50,940,947.9683539021754,10157,-4323,-10631,15325.506158036022
1735578097758,242,-77,992,1023.9907226142237,10106,-4278,-12324,16501.924009036036
1735578097788,242,-77,992,1023.9907226142237,10013,-4265,-13912,17663.355796676915
1735578097818,242,-77,992,1023.9907226142237,9934,-4267,-15501,18899.01177310602
1735578097848,271,-126,995,1038.9138559091414,9853,-4294,-17063,20165.96176729491
1735578097878,271,-126,995,1038.9138559091414,9779,-4359,17462,20482.94817647108
1735578097908,271,-126,995,1038.9138559091414,9731,-4435,15986,19233.1428009049
1735578097938,271,-126,995,1038.9138559091414,9707,-4518,14505,18028.67710066382
1735578097968,208,-39,948,971.3336193090405,9781,-4559,12817,16754.93751107416
1735578098000,208,-39,948,971.3336193090405,9847,-4583,11100,15529.884030474921
1735578098030,208,-39,948,971.3336193090405,9907,-4596,9382,14397.70082339538
1735578098059,23,-89,988,992.2671011375919,9999,-4598,7632,13392.872320753304
1735578098090,23,-89,988,992.2671011375919,10179,-4550,5762,12550.50536831087
1735578098119,23,-89,988,992.2671011375919,10309,-4466,3906,11894.430335245148
1735578098149,76,-5,917,920.1575951976922,10400,-4346,2035,11453.774094157785
1735578098179,76,-5,917,920.1575951976922,10357,-4213,180,11182.540766748853
1735578098209,76,-5,917,920.1575951976922,10285,-4091,-1664,11193.140846071758
1735578098239,76,-5,917,920.1575951976922,10193,-3986,-3503,11491.581875442562
1735578098269,154,-46,971,984.2118674350559,10053,-3948,-5191,11983.154593010973
1735578098299,154,-46,971,984.2118674350559,9925,-3944,-6854,12690.077895742012
1735578098330,154,-46,971,984.2118674350559,9820,-3966,-8518,13591.095614408721
1735578098359,120,-74,1022,1031.6782444153798,9770,-3992,-10209,14683.754458584493
1735578098389,120,-74,1022,1031.6782444153798,9770,-4013,-11933,15935.920368776948
1735578098419,120,-74,1022,1031.6782444153798,9776,-4033,-13657,17272.779567863417
1735578098449,193,-47,899,920.6839848721166,9762,-4051,-15383,18663.974228443414
1735578098479,193,-47,899,920.6839848721166,9642,-4092,-17031,19994.188880772334
1735578098510,193,-47,899,920.6839848721166,9554,-4156,17316,20208.787890420346
1735578098539,193,-47,899,920.6839848721166,9496,-4235,15660,18797.469005161307
1735578098569,102,-177,953,974.6496806545416,9615,-4304,13906,17445.61483582622
1735578098599,102,-177,953,974.6496806545416,9783,-4331,12113,16161.35572902224
1735578098630,102,-177,953,974.6496806545416,9927,-4324,10321,14958.788253063816
1735578098660,82,-48,971,975.6377401474381,10044,-4285,8515,13847.324145841318
1735578098690,82,-48,971,975.6377401474381,10086,-4229,6695,12823.215743330531
1735578098719,82,-48,971,975.6377401474381,10105,-4165,4882,11970.470918054978
1735578098749,89,27,817,822.2767174133048,10094,-4100,3077,11321.076141427546
1735578098779,89,27,817,822.2767174133048,9991,-4053,1287,10858.32671271223
1735578098809,89,27,817,822.2767174133048,9895,-4029,-502,10695.600497400788
1735578098839,89,27,817,822.2767174133048,9811,-4026,-2293,10849.988294924562
1735578098869,21,-77,969,972.2813378852851,9860,-4004,-4137,11417.80999141254
1735578098899,21,-77,969,972.2813378852851,9931,-3958,-6001,12259.793065137763
1735578098930,21,-77,969,972.2813378852851,9976,-3898,-7860,13285.126269629507
1735578098960,129,-83,950,962.3045256050706,9946,-3867,-9637,14378.747302877257
1735578099019,129,-83,950,962.3045256050706,9866,-3878,-11319,15507.952830725273
1735578099020,129,-83,950,962.3045256050706,9803,-3905,-13003,16745.92018970591
1735578099050,10,-90,878,882.6573514110671,9749,-3935,-14688,18062.79518789935
1735578099079,10,-90,878,882.6573514110671,9773,-3930,-16502,19577.344891481072
1735578099109,10,-90,878,882.6573514110671,9792,-3921,17684,20590.80768207017
1735578099140,48,-29,916,917.7150974022385,9818,-3915,15864,19062.70822837091
1735578099169,48,-29,916,917.7150974022385,9793,-3931,14068,17585.91009871255
1735578099199,48,-29,916,917.7150974022385,9777,-3953,12271,16180.030253370975
1735578099230,48,-29,916,917.7150974022385,9770,-3977,10472,14863.788648927972
1735578099259,190,-127,936,963.496237667797,9719,-3994,8766,13684.069314352364
1735578099289,190,-127,936,963.496237667797,9678,-4028,7110,12666.513648198545
1735578099320,190,-127,936,963.496237667797,9652,-4069,5452,11808.563375787928
1735578099350,136,-70,1024,1035.3608066756246,9651,-4109,3788,11152.337243824722
1735578099380,136,-70,1024,1035.3608066756246,9669,-4134,2052,10714.019833843879
1735578099409,136,-70,1024,1035.3608066756246,9690,-4155,315,10547.954778060057
1735578099439,163,-60,1022,1036.6547159011047,9713,-4172,-1411,10664.842896170576
1735578099469,163,-60,1022,1036.6547159011047,9710,-4193,-3084,11017.096032984373
1735578099499,163,-60,1022,1036.6547159011047,9712,-4215,-4759,11607.637571874822
1735578099530,163,-60,1022,1036.6547159011047,9720,-4235,-6435,12402.534015272846
1735578099559,124,-15,948,956.1929721557254,9750,-4250,-8185,13420.85038289303
1735578099589,124,-15,948,956.1929721557254,9777,-4258,-9951,14585.701697210183
1735578099619,124,-15,948,956.1929721557254,9800,-4261,-11717,15858.253686960617
1735578099649,120,-62,1011,1019.9828429929594,9839,-4255,-13484,17225.82950107193
1735578099679,120,-62,1011,1019.9828429929594,9897,-4235,-15253,18669.221810241583
1735578099709,120,-62,1011,1019.9828429929594,9938,-4203,-17019,20151.31295970563
1735578099739,149,-126,1019,1037.5153010919887,9947,-4164,17233,20328.74796931675
1735578099769,149,-126,1019,1037.5153010919887,9946,-4126,15553,18916.72807332177
1735578099799,149,-126,1019,1037.5153010919887,9936,-4089,13875,17548.778931880133
1735578099829,149,-126,1019,1037.5153010919887,9919,-4055,12199,16237.15452288362
1735578099860,206,-33,1020,1041.1171884086825,9861,-4041,10560,15002.753147339325
1735578099890,206,-33,1020,1041.1171884086825,9775,-4051,8940,13852.249853363171
1735578099919,206,-33,1020,1041.1171884086825,9707,-4076,7318,12821.57357737341
1735578099949,132,-56,1008,1018.1473370784801,9654,-4093,5640,11906.383371956406
1735578099979,132,-56,1008,1018.1473370784801,9645,-4099,3894,11179.940160841648
1735578100009,132,-56,1008,1018.1473370784801,9639,-4108,2147,10695.587594891644
1735578100039,77,-56,1029,1033.3953744816163,9640,-4123,403,10492.432415793775
1735578100069,77,-56,1029,1033.3953744816163,9691,-4135,-1397,10628.514242357678
1735578100099,77,-56,1029,1033.3953744816163,9736,-4137,-3197,11051.030449691105
1735578100130,77,-56,1029,1033.3953744816163,9772,-4129,-4996,11726.066731858557
1735578100159,197,-139,1008,1036.433307068043,9777,-4126,-6703,12551.64586817203
1735578100189,197,-139,1008,1036.433307068043,9775,-4129,-8365,13511.938832010748
1735578100219,197,-139,1008,1036.433307068043,9775,-4131,-10027,14599.88065019711
1735578100249,208,-68,998,1021.7103307689514,9756,-4136,-11678,15769.011256258269
1735578100279,208,-68,998,1021.7103307689514,9701,-4152,-13319,16992.476747078395
1735578100309,208,-68,998,1021.7103307689514,9660,-4179,-14962,18293.197779502632
1735578100339,119,53,865,874.7542512043025,9627,-4213,-16601,19647.43492163799
1735578100369,119,53,865,874.7542512043025,9564,-4252,17666,20533.805200205832
1735578100399,119,53,865,874.7542512043025,9522,-4303,15930,19051.22549863919
1735578100430,119,53,865,874.7542512043025,9500,-4361,14190,17624.540306061885
1735578100489,112,-50,1062,1069.0593996593454,9607,-4419,12406,16301.252896633436
1735578100490,112,-50,1062,1069.0593996593454,9737,-4448,10616,15076.250495398383
1735578100520,112,-50,1062,1069.0593996593454,9851,-4451,8827,13955.985490104236
1735578100549,39,20,912,913.052572418478,9959,-4411,6990,12942.128959332773
1735578100580,39,20,912,913.052572418478,10038,-4333,5096,12062.568093072055
1735578100609,39,20,912,913.052572418478,10077,-4241,3213,11395.410435785101
1735578100639,169,-70,977,993.976860897677,10072,-4148,1353,10976.415489584931
1735578100669,169,-70,977,993.976860897677,10014,-4095,-333,10824.052383465261
1735578100699,169,-70,977,993.976860897677,9955,-4053,-2019,10936.416003426351
1735578100730,169,-70,977,993.976860897677,9897,-4024,-3704,11307.643476869971
1735578100759,57,-28,933,935.1588100424441,9880,-3982,-5506,11991.111708261249
1735578100820,57,-28,933,935.1588100424441,9866,-3937,-7345,12914.602200609974
1735578100820,57,-28,933,935.1588100424441,9842,-3896,-9182,14012.598046044139
1735578100850,173,-114,1037,1057.4942080219637,9795,-3882,-10947,15193.70784239318
1735578100880,173,-114,1037,1057.4942080219637,9745,-3897,-12615,16410.053595281155
1735578100910,173,-114,1037,1057.4942080219637,9708,-3922,-14285,17711.255545556334
1735578100940,73,-3,974,976.7364025160524,9691,-3946,-15967,19090.088684969487
1735578100970,73,-3,974,976.7364025160524,9670,-3947,-17780,20620.768875092897
1735578101000,73,-3,974,976.7364025160524,9654,-3954,16406,19441.982100598692
1735578101030,73,-3,974,976.7364025160524,9643,-3963,14592,17933.747015055164
1735578101060,101,-138,995,1009.5890252969274,9642,-4000,12846,16552.579255209745
1735578101089,101,-138,995,1009.5890252969274,9678,-4030,11109,15274.63469284945
1735578101119,101,-138,995,1009.5890252969274,9715,-4052,9370,14092.438717269626
1735578101149,52,-116,900,908.9334409075287,9768,-4060,7606,13028.762796213614
1735578101179,52,-116,900,908.9334409075287,9827,-4048,5803,12109.130522048228
1735578101209,52,-116,900,908.9334409075287,9871,-4025,4002,11386.538982500346
1735578101240,170,-101,945,965.4667265110694,9907,-3999,2213,10910.454573481346
1735578101269,170,-101,945,965.4667265110694,9858,-4009,571,10657.311387024403
1735578101299,170,-101,945,965.4667265110694,9819,-4028,-1072,10667.086246956102
1735578101330,170,-101,945,965.4667265110694,9792,-4054,-2717,10940.76181076985
1735578101359,53,-129,973,982.9440472376848,9861,-4037,-4521,11574.805873102148
1735578101390,53,-129,973,982.9440472376848,9942,-3993,-6364,12461.456937292685
1735578101419,53,-129,973,982.9440472376848,9995,-3932,-8201,13513.587606553636
1735578101449,247,-105,960,996.8119180667936,9951,-3897,-9924,14584.059311453722
1735578101479,247,-105,960,996.8119180667936,9811,-3918,-11489,15607.80465023829
1735578101509,247,-105,960,996.8119180667936,9700,-3966,-13057,16742.29389898529
1735578101539,161,-97,1010,1027.3412286090731,9620,-4028,-14627,17964.36230429569
1735578101569,161,-97,1010,1027.3412286090731,9619,-4076,-16297,19357.973705943503
1735578101599,161,-97,1010,1027.3412286090731,9631,-4124,-17969,20800.204277843044
1735578101629,161,-97,1010,1027.3412286090731,9652,-4168,16354,19441.878612932444
1735578101660,121,-5,977,984.4770185230328,9641,-4218,14665,18050.003601107674
1735578101720,121,-5,977,984.4770185230328,9632,-4271,12956,16699.544933919606
1735578101720,121,-5,977,984.4770185230328,9637,-4325,11244,15427.408401931933
1735578101750,127,-62,899,910.0406584323582,9682,-4362,9483,14237.11547329725
1735578101780,127,-62,899,910.0406584323582,9759,-4379,7703,13181.423709144623
1735578101810,127,-62,899,910.0406584323582,9825,-4380,5923,12279.94112363736
1735578101840,90,-55,956,961.8009149506981,9904,-4365,4124,11582.30620386113
1735578101869,90,-55,956,961.8009149506981,10028,-4316,2248,11146.396009473197
1735578101899,90,-55,956,961.8009149506981,10112,-4242,382,10972.375859402557
1735578101930,90,-55,956,961.8009149506981,10158,-4152,-1473,11072.208316320643
1735578101959,16,-107,992,997.8822575835287,10157,-4064,-3289,11423.583763425557
1735578101989,16,-107,992,997.8822575835287,10159,-3967,-5124,12049.802736974576
1735578102019,16,-107,992,997.8822575835287,10133,-3872,-6952,12884.113357154229
1735578102050,209,-64,948,972.8725507485551,10026,-3816,-8671,13793.794728065226
1735578102080,209,-64,948,972.8725507485551,9828,-3830,-10238,14699.494140956007
1735578102110,209,-64,948,972.8725507485551,9668,-3882,-11807,15746.282005603736
1735578102139,127,-84,1009,1020.4244215031313,9558,-3957,-13398,16926.890352335835
1735578102169,127,-84,1009,1020.4244215031313,9573,-4019,-15121,18342.282600592545
1735578102199,127,-84,1009,1020.4244215031313,9602,-4076,-16848,19815.83417371068
1735578102229,127,-84,1009,1020.4244215031313,9639,-4127,17421,20333.068902652154
1735578102259,121,38,938,946.5352608328968,9603,-4162,15637,18816.365802141496
1735578102320,121,38,938,946.5352608328968,9554,-4212,13847,17342.412433107453
1735578102320,121,38,938,946.5352608328968,9528,-4270,12052,15945.73259527451
1735578102350,152,-97,987,1003.33543742858,9574,-4341,10267,14694.116033297138
1735578102379,152,-97,987,1003.33543742858,9696,-4395,8502,13623.965832311824
1735578102409,152,-97,987,1003.33543742858,9811,-4424,6734,12695.442213645021
1735578102439,76,-46,993,996.965897109826,9911,-4425,4967,11936.483359851007
1735578102469,76,-46,993,996.965897109826,10003,-4384,3115,11357.05463577595
1735578102499,76,-46,993,996.965897109826,10065,-4324,1271,11027.993561840703
1735578102530,76,-46,993,996.965897109826,10097,-4253,-563,10970.614704746495
1735578102559,165,-28,959,973.4937082488001,9984,-4223,-2229,11067.177869719091
1735578102589,165,-28,959,973.4937082488001,9861,-4223,-3863,11401.570900538223
1735578102619,165,-28,959,973.4937082488001,9761,-4247,-5500,11981.824986203063
1735578102649,193,-58,925,946.6984736440637,9692,-4293,-7126,12772.806621882288
1735578102679,193,-58,925,946.6984736440637,9653,-4354,-8732,13725.361525293241
1735578102709,193,-58,925,946.6984736440637,9634,-4420,-10342,14809.028327341399
1735578102739,100,-88,1000,1008.8329891513263,9665,-4485,-11979,16031.964664382216
1735578102769,100,-88,1000,1008.8329891513263,9861,-4504,-13778,17531.646271813723
1735578102799,100,-88,1000,1008.8329891513263,10024,-4484,-15574,19056.13570480647
1735578102830,253,-34,953,986.5971822380196,10135,-4433,-17351,20577.33984265216
1735578102860,253,-34,953,986.5971822380196,10027,-4416,17075,20287.86361350056
1735578102890,253,-34,953,986.5971822380196,9934,-4418,15500,18932.857153636374
1735578102920,253,-34,953,986.5971822380196,9859,-4436,13924,17628.265739998362
1735578102949,-6,-100,1014,1018.9367006836097,9931,-4432,12186,16332.972203490704
1735578102979,-6,-100,1014,1018.9367006836097,10159,-4346,10228,15056.725440812155
1735578103009,-6,-100,1014,1018.9367006836097,10312,-4212,8291,13885.92701262685
1735578103039,226,-52,930,958.4779601013265,10365,-4058,6395,12837.313348204912
1735578103069,226,-52,930,958.4779601013265,10138,-3998,4794,11905.691244106745
1735578103099,226,-52,930,958.4779601013265,9940,-3981,3189,11172.362418038541
1735578103130,67,-55,915,919.0968392938798,9786,-3999,1574,10688.090241011254
1735578103159,67,-55,915,919.0968392938798,9790,-4003,-233,10579.3382590784
1735578103190,67,-55,915,919.0968392938798,9796,-4007,-2041,10778.837877990372
1735578103219,67,-55,915,919.0968392938798,9801,-4009,-3849,11267.052986473438
1735578103249,252,-28,1011,1042.3094550084443,9727,-4051,-5509,11890.088771745986
1735578103279,252,-28,1011,1042.3094550084443,9631,-4124,-7102,12657.0905424588
1735578103309,252,-28,1011,1042.3094550084443,9568,-4213,-8699,13600.315952212286
1735578103340,71,-47,956,959.7843507788612,9527,-4307,-10300,14676.647369205271
1735578103370,71,-47,956,959.7843507788612,9647,-4357,-12116,16088.676577021492
1735578103399,71,-47,956,959.7843507788612,9759,-4382,-13935,17567.704175560335
1735578103430,301,-106,979,1029.6980139827406,9852,-4396,-15731,19074.880890847
1735578103459,301,-106,979,1029.6980139827406,9799,-4468,-17212,20303.60482771471
1735578103490,301,-106,979,1029.6980139827406,9770,-4548,17302,20383.7290013383
1735578103519,301,-106,979,1029.6980139827406,9762,-4631,15813,19151.860849536268
1735578103549,115,-93,931,942.6743870499506,9909,-4637,14085,17834.72105192565
1735578103579,115,-93,931,942.6743870499506,10071,-4597,12285,16537.190662261833
1735578103609,115,-93,931,942.6743870499506,10190,-4525,10497,15313.351494692466
1735578103640,259,-89,960,998.2995542421122,10221,-4461,8775,14190.489315030683
1735578103669,259,-89,960,998.2995542421122,10159,-4430,7169,13199.422032801285
1735578103700,259,-89,960,998.2995542421122,10101,-4410,5563,12346.06293520327
1735578103730,248,-54,940,973.6631861172527,10063,-4399,3955,11672.925725798139
1735578103759,248,-54,940,973.6631861172527,10034,-4387,2327,11195.61762476729
1735578103819,248,-54,940,973.6631861172527,10007,-4380,700,10945.978667985792
1735578103820,248,-54,940,973.6631861172527,9983,-4378,-926,10940.047943222187
1735578103850,91,-113,914,925.4436773785858,10065,-4362,-2646,11284.174094722219
1735578103880,91,-113,914,925.4436773785858,10175,-4310,-4421,11901.763146693855
1735578103910,91,-113,914,925.4436773785858,10250,-4236,-6186,12699.322501614013
1735578103939,190,-47,946,966.0357136255367,10273,-4152,-7949,13636.723726760765
1735578103969,190,-47,946,966.0357136255367,10207,-4088,-9656,14633.281552679837
1735578103999,190,-47,946,966.0357136255367,10137,-4038,-11360,15751.628899894766
1735578104030,197,-156,1075,1103.9791664700924,10048,-4002,-13048,16947.820272825647
1735578104059,197,-156,1075,1103.9791664700924,10013,-3975,-14698,18223.3915065226
1735578104089,197,-156,1075,1103.9791664700924,9978,-3955,-16348,19556.57467451803
1735578104119,197,-156,1075,1103.9791664700924,9945,-3943,-17997,20936.625396658364
1735578104149,196,-74,915,938.6783261586473,9850,-3923,16305,19449.047637352323
1735578104179,196,-74,915,938.6783261586473,9749,-3928,14607,17995.461483385192
1735578104209,196,-74,915,938.6783261586473,9667,-3954,12906,16602.705833688677
1735578104239,208,-74,953,978.237701174924,9622,-4020,11241,15333.08074067309
1735578104270,208,-74,953,978.237701174924,9605,-4105,9598,14185.508591516907
1735578104299,208,-74,953,978.237701174924,9611,-4191,7950,13158.202840813787
1735578104330,224,-72,1011,1038.017822583023,9632,-4269,6286,12268.397654135604
1735578104360,224,-72,1011,1038.017822583023,9643,-4331,4614,11534.036847522206
1735578104389,224,-72,1011,1038.017822583023,9668,-4391,2939,11017.659733355355
1735578104419,224,-72,1011,1038.017822583023,9703,-4444,1259,10746.274982523013
1735578104450,239,-15,819,853.2918609713795,9675,-4482,-430,10671.403328522449
1735578104480,239,-15,819,853.2918609713795,9644,-4528,-2118,10862.570782278015
1735578104509,239,-15,819,853.2918609713795,9630,-4579,-3811,11323.774194145695
1735578104539,193,-181,1101,1132.347561484547,9751,-4657,-5510,12129.70527259422
1735578104569,193,-181,1101,1132.347561484547,10009,-4700,-7245,13219.68630490149
1735578104599,193,-181,1101,1132.347561484547,10233,-4694,-8979,14400.359926057405
1735578104630,475,-34,979,1088.6790160556968,10383,-4643,-10686,15606.240226268465
1735578104690,475,-34,979,1088.6790160556968,10086,-4667,-11993,16350.54537316722
1735578104690,475,-34,979,1088.6790160556968,9840,-4732,-13302,17209.318057378103
1735578104720,475,-34,979,1088.6790160556968,9644,-4831,-14613,18162.738394856653
1735578104749,137,17,1000,1009.4840266195399,9767,-4884,-16286,19608.200860864312
1735578104780,137,17,1000,1009.4840266195399,9966,-4883,17887,21050.168977944097
1735578104809,137,17,1000,1009.4840266195399,10125,-4844,16069,19600.83472712323
1735578104839,289,-211,1011,1072.4565259254102,10186,-4822,14398,18284.110150619854
1735578104869,289,-211,1011,1072.4565259254102,10232,-4824,12894,17152.8433794517
1735578104900,289,-211,1011,1072.4565259254102,10271,-4819,11391,16077.035889740373
1735578104930,102,-130,1026,1039.2208619922908,10329,-4790,9849,15054.406065999416
1735578104959,102,-130,1026,1039.2208619922908,10500,-4659,8011,14004.727844553066
1735578104989,102,-130,1026,1039.2208619922908,10596,-4495,6200,13073.646813341717
1735578105019,102,-130,1026,1039.2208619922908,10624,-4313,4411,12285.286565644286
1735578105049,116,-139,849,868.0887051448141,10564,-4141,2663,11654.936550663842
1735578105079,116,-139,849,868.0887051448141,10471,-3983,929,11241.404316187547
1735578105109,116,-139,849,868.0887051448141,10356,-3844,-800,11075.33620257191
1735578105139,103,-50,933,939.9989361696108,10211,-3742,-2509,11160.742179622286
1735578105169,103,-50,933,939.9989361696108,10031,-3684,-4217,11488.076688462696
1735578105199,103,-50,933,939.9989361696108,9871,-3665,-5928,12083.461838397141
1735578105230,194,-82,1002,1023.8964791423008,9733,-3675,-7653,12915.313507615678
1735578105259,194,-82,1002,1023.8964791423008,9591,-3721,-9307,13872.75643122159
1735578105289,194,-82,1002,1023.8964791423008,9485,-3794,-10963,14984.89339301418
1735578105319,194,-82,1002,1023.8964791423008,9414,-3886,-12623,16219.26388588582
1735578105350,303,-65,1005,1051.6933963850872,9302,-4024,-14154,17408.489193494075
1735578105379,303,-65,1005,1051.6933963850872,9208,-4187,-15647,18631.877039096194
1735578105409,303,-65,1005,1051.6933963850872,9162,-4363,-17143,19921.35693169519
1735578105439,125,-66,1013,1022.814743734172,9232,-4520,17244,20075.25242680649
1735578105469,125,-66,1013,1022.814743734172,9434,-4628,15453,18687.267028648144
1735578105499,125,-66,1013,1022.814743734172,9631,-4694,13652,17354.160913164313
1735578105530,8,3,938,938.0389117728539,9823,-4723,11844,16095.912338230473
1735578105560,8,3,938,938.0389117728539,10048,-4696,9891,14860.908485015309
1735578105590,8,3,938,938.0389117728539,10219,-4624,7952,13749.314201079267
1735578105620,8,3,938,938.0389117728539,10331,-4518,6032,12787.764034419779
1735578105650,262,-169,1053,1098.1866872258104,10300,-4445,4368,12038.581685564126
1735578105679,262,-169,1053,1098.1866872258104,10245,-4397,2805,11496.158445324247
1735578105709,262,-169,1053,1098.1866872258104,10189,-4359,1243,11151.755512025898
1735578105739,3,-131,957,965.9290864240501,10202,-4286,-441,11074.523962681194
1735578105769,3,-131,957,965.9290864240501,10288,-4147,-2321,11332.589906989488
1735578105799,3,-131,957,965.9290864240501,10315,-3992,-4183,11825.091035590382
1735578105830,197,-83,955,978.633230582326,10293,-3845,-6022,12529.738943808845
1735578105859,197,-83,955,978.633230582326,10092,-3789,-7633,13208.621199807343
1735578105890,197,-83,955,978.633230582326,9915,-3772,-9247,14072.747350819598
1735578105919,197,-83,955,978.633230582326,9768,-3791,-10865,15094.162116527039
1735578105950,204,-11,950,971.7185806600592,9578,-3847,-12463,16182.208192950677
1735578105980,204,-11,950,971.7185806600592,9415,-3943,-14061,17375.304169999443
1735578106010,204,-11,950,971.7185806600592,9301,-4069,-15663,18665.340366572476
1735578106039,152,-87,1036,1050.6992909486519,9313,-4199,-17348,20132.478088899043
1735578106070,152,-87,1036,1050.6992909486519,9439,-4302,16887,19818.493736911492
1735578106100,152,-87,1036,1050.6992909486519,9570,-4376,15116,18418.13595345631
1735578106130,242,-124,1066,1100.1345372271521,9701,-4423,13332,17070.868577784786
1735578106160,242,-124,1066,1100.1345372271521,9788,-4461,11638,15847.665727166257
1735578106190,242,-124,1066,1100.1345372271521,9868,-4482,9942,14707.450900818945
1735578106219,242,-124,1066,1100.1345372271521,9940,-4488,8246,13672.682984696165
1735578106249,272,-9,953,991.0973716038197,9922,-4484,6610,12737.52095189641
1735578106279,272,-9,953,991.0973716038197,9870,-4492,4984,11934.622742257085
1735578106309,272,-9,953,991.0973716038197,9830,-4510,3357,11324.241652313855
1735578106339,101,-141,1062,1076.0697003447315,9924,-4514,1621,11022.232668565839
1735578106369,101,-141,1062,1076.0697003447315,10166,-4448,-261,11099.56670325468
1735578106399,101,-141,1062,1076.0697003447315,10338,-4333,-2125,11408.977079475619
1735578106430,117,-58,833,843.1737661953199,10413,-4188,-3943,11896.098604164308
1735578106459,117,-58,833,843.1737661953199,10306,-4059,-5684,12449.778030149775
1735578106489,117,-58,833,843.1737661953199,10188,-3954,-7421,13209.87134683756
1735578106519,117,-58,833,843.1737661953199,10066,-3874,-9158,14149.24718845494
1735578106549,-19,-79,951,954.4647714819023,10012,-3794,-10988,15341.796635335771
1735578106579,-19,-79,951,954.4647714819023,9976,-3714,-12863,16696.440968062623
1735578106609,-19,-79,951,954.4647714819023,9924,-3643,-14734,18134.16612364627
1735578106639,248,-150,1038,1077.7049689038276,9801,-3625,-16462,19498.65815896058
1735578106669,248,-150,1038,1077.7049689038276,9625,-3680,-17982,20725.23459457094
1735578106699,248,-150,1038,1077.7049689038276,9490,-3766,16496,19400.022474213787
1735578106730,97,9,891,896.30965631304,9404,-3860,14950,18078.64253753583
1735578106760,97,9,891,896.30965631304,9333,-3929,13188,16627.244931136367
1735578106789,97,9,891,896.30965631304,9292,-4011,11420,15259.28520606388
1735578106819,97,9,891,896.30965631304,9281,-4099,9647,14000.12039233949
1735578106848,191,-52,1002,1021.3662418545074,9313,-4220,7935,12942.356586031772
1735578106880,191,-52,1002,1021.3662418545074,9364,-4335,6250,12063.963735025069
1735578106909,191,-52,1002,1021.3662418545074,9436,-4436,4556,11378.634715992952
1735578106939,84,-33,925,929.3922745536462,9583,-4504,2776,10946.509991773633
1735578106970,84,-33,925,929.3922745536462,9743,-4533,950,10787.800424553654
1735578106999,84,-33,925,929.3922745536462,9882,-4529,-875,10905.566927033184
1735578107030,181,-91,976,996.8038924482588,9986,-4506,-2682,11279.067160009288
1735578107090,181,-91,976,996.8038924482588,10026,-4497,-4343,11815.470113372552
1735578107091,181,-91,976,996.8038924482588,10057,-4481,-6001,12539.322589358646
1735578107120,158,-71,1032,1046.4363334670677,10080,-4457,-7656,13419.597050582406
1735578107150,158,-71,1032,1046.4363334670677,10098,-4418,-9331,14441.464226317219
1735578107180,158,-71,1032,1046.4363334670677,10102,-4377,-11002,15564.463916242024
1735578107209,158,-71,1032,1046.4363334670677,10095,-4335,-12670,16769.918008147804
1735578107239,210,-91,940,967.4611103295057,10032,-4293,-14315,17999.72494234287
1735578107269,210,-91,940,967.4611103295057,9964,-4266,-15939,19275.159480533486
1735578107299,210,-91,940,967.4611103295057,9903,-4253,-17564,20607.074367799036
1735578107330,116,-43,993,1000.6767709905132,9864,-4250,16802,19941.619793788068
1735578107360,116,-43,993,1000.6767709905132,9885,-4235,15046,18494.068400435855
1735578107390,116,-43,993,1000.6767709905132,9898,-4215,13292,17100.11383003049
1735578107419,263,-148,968,1013.9511822568185,9883,-4198,11563,15779.729465361566
1735578107450,263,-148,968,1013.9511822568185,9811,-4221,10047,14663.381976883778
1735578107480,263,-148,968,1013.9511822568185,9756,-4256,8529,13639.53492608894
1735578107510,263,-148,968,1013.9511822568185,9718,-4300,7009,12730.106244646979
1735578107540,69,16,928,930.6991995268934,9762,-4306,5246,11889.44052510462
1735578107570,69,16,928,930.6991995268934,9800,-4295,3410,11230.099064567507
1735578107600,69,16,928,930.6991995268934,9828,-4277,1575,10833.417650953923
1735578107630,139,-20,1033,1042.5017985595996,9808,-4281,-174,10702.994954684413
1735578107689,139,-20,1033,1042.5017985595996,9767,-4311,-1844,10834.174910901153
1735578107690,139,-20,1033,1042.5017985595996,9740,-4348,-3517,11231.295250326206
1735578107720,148,-59,1058,1069.929436925632,9752,-4383,-5221,11898.362660467195
1735578107749,148,-59,1058,1069.929436925632,9838,-4396,-6968,12832.15040435546
1735578107779,148,-59,1058,1069.929436925632,9912,-4392,-8714,13909.392653886796
1735578107810,148,-59,1058,1069.929436925632,9971,-4374,-10458,15097.101741725131
1735578107840,273,-87,1035,1073.9287685875634,9961,-4369,-12093,16265.003258530262
1735578107870,273,-87,1035,1073.9287685875634,9930,-4377,-13681,17462.324873853424
1735578107900,273,-87,1035,1073.9287685875634,9907,-4390,-15269,18723.33063319665
1735578107930,114,-29,940,947.3315153630222,9892,-4384,-16904,20070.284900817926
1735578107960,114,-29,940,947.3315153630222,9911,-4354,17347,20447.582888938243
1735578107989,114,-29,940,947.3315153630222,9919,-4319,15602,18985.855945940388
1735578108019,132,-57,924,935.1197784241332,9930,-4276,13836,17559.1563578664
1735578108049,132,-57,924,935.1197784241332,9960,-4212,12051,16191.638119720932
1735578108080,132,-57,924,935.1197784241332,9967,-4143,10271,14899.630163195327
1735578108109,132,-57,924,935.1197784241332,9954,-4074,8497,13706.881519878983
1735578108139,77,10,1013,1015.971456291957,9846,-4047,6821,12643.099540856269
1735578108182,77,10,1013,1015.971456291957,9745,-4040,5124,11727.830191471907
1735578108200,77,10,1013,1015.971456291957,9662,-4054,3424,11023.290615782567
1735578108230,43,12,849,850.1729235867253,9619,-4057,1647,10568.681043536133
1735578108260,43,12,849,850.1729235867253,9604,-4052,-187,10425.473082791015
1735578108290,43,12,849,850.1729235867253,9590,-4050,-2022,10604.672743654091
1735578108320,228,-98,1057,1085.7426030141767,9578,-4065,-3834,11088.817114552841
1735578108350,228,-98,1057,1085.7426030141767,9539,-4133,-5393,11711.475526166632
1735578108379,228,-98,1057,1085.7426030141767,9520,-4206,-6955,12517.701905701382
1735578108409,228,-98,1057,1085.7426030141767,9521,-4281,-8521,13475.30493161472
1735578108439,64,-11,944,946.2309443259611,9596,-4306,-10278,14705.85380044287
1735578108470,64,-11,944,946.2309443259611,9679,-4306,-12099,16081.370526170958
1735578108500,64,-11,944,946.2309443259611,9746,-4290,-13917,17523.455852085797
1735578108529,178,-98,1027,1046.908305440357,9779,-4284,-15666,18957.981248012667
1735578108560,178,-98,1027,1046.908305440357,9793,-4293,-17316,20351.32806477258
1735578108589,178,-98,1027,1046.908305440357,9806,-4298,17032,20117.640617130033
1735578108619,122,-57,993,1002.0888184188067,9825,-4299,15371,18742.45626912332
1735578108650,122,-57,993,1002.0888184188067,9858,-4280,13625,17353.362469561915
1735578108680,122,-57,993,1002.0888184188067,9881,-4256,11882,16029.024330881777
1735578108709,122,-57,993,1002.0888184188067,9892,-4227,10142,14784.429545978432
1735578108739,177,-58,943,961.2190177061625,9847,-4229,8495,13675.265079697723
1735578108769,177,-58,943,961.2190177061625,9798,-4245,6867,12695.531418574017
1735578108799,177,-58,943,961.2190177061625,9762,-4270,5237,11872.477121477219
1735578108829,72,-31,919,922.3372485159645,9768,-4280,3519,11230.119545223017
1735578108860,72,-31,919,922.3372485159645,9811,-4265,1699,10832.014909517065
1735578108890,72,-31,919,922.3372485159645,9842,-4242,-118,10717.903339739541
1735578108919,95,-42,1005,1010.3534035177988,9869,-4224,-1921,10905.483849880298
1735578108949,95,-42,1005,1010.3534035177988,9898,-4225,-3673,11371.541584147682
1735578108980,95,-42,1005,1010.3534035177988,9922,-4219,-5424,12069.209626151996
1735578109010,95,-42,1005,1010.3534035177988,9940,-4209,-7174,12960.924234019732
1735578109039,56,-61,894,897.8268207176704,9945,-4152,-8978,14026.639405074902
1735578109069,56,-61,894,897.8268207176704,9945,-4090,-10792,15234.775646526601
1735578109099,56,-61,894,897.8268207176704,9929,-4029,-12601,16540.951695715696
1735578109129,163,-147,1045,1067.8028844313917,9916,-3996,-14346,17891.416601264416
1735578109160,163,-147,1045,1067.8028844313917,9907,-3984,-16002,19237.59103942071
1735578109190,163,-147,1045,1067.8028844313917,9897,-3974,-17657,20627.96485356711
1735578109220,343,-45,865,931.6109703089589,9856,-3967,16700,19793.12570060626
1735578109250,343,-45,865,931.6109703089589,9564,-4026,15289,18477.886594521573
1735578109280,343,-45,865,931.6109703089589,9331,-4133,13876,17224.767806853015
1735578109310,343,-45,865,931.6109703089589,9154,-4276,12464,16044.662289995387
1735578109340,274,-131,979,1025.0258533324904,9221,-4430,10911,14956.659453233533
1735578109369,274,-131,979,1025.0258533324904,9350,-4560,9319,13966.383246925454
1735578109399,274,-131,979,1025.0258533324904,9490,-4665,7716,13090.415616014641
1735578109429,206,-98,883,911.9917762787119,9653,-4729,6046,12332.800411909697
1735578109460,206,-98,883,911.9917762787119,9828,-4747,4300,11730.882021399755
1735578109490,206,-98,883,911.9917762787119,9976,-4732,2556,11333.381490093767
1735578109520,253,-144,1040,1079.974536736862,10086,-4707,853,11162.92318346767
1735578109550,253,-144,1040,1079.974536736862,10158,-4704,-718,11217.312690658133
1735578109580,253,-144,1040,1079.974536736862,10216,-4688,-2288,11470.786546702018
1735578109609,253,-144,1040,1079.974536736862,10261,-4663,-3855,11911.87285862303
1735578109640,256,-95,823,867.115909207068,10216,-4600,-5464,12465.229721108231
1735578109670,256,-95,823,867.115909207068,10153,-4547,-7070,13181.18044789616
1735578109700,256,-95,823,867.115909207068,10089,-4506,-8674,14047.427985222064
1735578109730,294,-179,1020,1076.511495526174,10065,-4486,-10275,15066.653443947
1735578109760,294,-179,1020,1076.511495526174,10078,-4474,-11851,16187.308639795561
1735578109790,294,-179,1020,1076.511495526174,10085,-4460,-13426,17374.01223091546
1735578109819,523,-45,909,1049.683285567604,10072,-4452,-14974,18587.25810871523
1735578109850,523,-45,909,1049.683285567604,9730,-4539,-16176,19414.901416180306
1735578109880,523,-45,909,1049.683285567604,9450,-4671,-17374,20321.826123653358
1735578109909,523,-45,909,1049.683285567604,9228,-4839,17432,20308.779603905303
1735578109939,440,-18,952,1048.9175372735456,9169,-4988,16062,19155.64013547968
1735578109970,440,-18,952,1048.9175372735456,9169,-5139,14643,18024.908626675475
1735578109999,440,-18,952,1048.9175372735456,9199,-5288,13212,16945.249747348076
1735578110030,536,-26,928,1071.9869402189563,9207,-5449,11851,15965.796284557811
1735578110060,536,-26,928,1071.9869402189563,9161,-5626,10603,15099.649201223187
1735578110090,536,-26,928,1071.9869402189563,9150,-5806,9345,14309.478012841699
1735578110119,395,-86,832,925.0108107476366,9158,-5978,8069,13590.960562079488
1735578110150,395,-86,832,925.0108107476366,9450,-6105,6488,12987.211748485508
1735578110179,395,-86,832,925.0108107476366,9737,-6194,4879,12529.143865404372
1735578110210,395,-86,832,925.0108107476366,10007,-6247,3251,12236.586901583301
1735578110240,537,-38,930,1074.5757302303082,10077,-6336,1836,12044.157131156999
1735578110269,537,-38,930,1074.5757302303082,10068,-6438,505,11961.082434294984
1735578110299,537,-38,930,1074.5757302303082,10084,-6542,-841,12049.568498498193
1735578110329,452,-33,930,1034.5496604803463,10281,-6594,-2402,12447.867327377811
1735578110360,452,-33,930,1034.5496604803463,10603,-6577,-4159,13152.103215835861
1735578110420,452,-33,930,1034.5496604803463,10856,-6523,-5895,13969.72762798187
1735578110420,563,-94,977,1131.518448811154,10990,-6456,-7548,14813.248799638788
1735578110450,563,-94,977,1131.518448811154,10852,-6460,-8850,15421.41381326628
1735578110480,563,-94,977,1131.518448811154,10737,-6476,-10155,16135.23380679685
1735578110510,563,-94,977,1131.518448811154,10643,-6502,-11464,16940.270039169976
1735578110540,471,-119,960,1075.9191419432968,10727,-6509,-12925,18013.640248433963
1735578110570,471,-119,960,1075.9191419432968,10857,-6492,-14451,19205.51780088212
1735578110600,471,-119,960,1075.9191419432968,10958,-6461,-15967,20414.881189955526
1735578110630,513,-44,872,1012.6643076557996,10970,-6428,-17420,21566.559391799146
1735578110660,513,-44,872,1012.6643076557996,10880,-6413,17200,21338.719947550744
1735578110690,513,-44,872,1012.6643076557996,10802,-6406,15822,20200.38920417129
1735578110720,506,-78,948,1077.4154259151853,10756,-6398,14417,19091.250063838146
1735578110749,506,-78,948,1077.4154259151853,10789,-6372,12950,18019.63942480537
1735578110779,506,-78,948,1077.4154259151853,10808,-6341,11489,17000.53722680551
1735578110810,399,-17,903,987.3697382439873,10824,-6306,10029,16046.976444177888
1735578110840,399,-17,903,987.3697382439873,10960,-6217,8363,15123.242311091892
1735578110870,399,-17,903,987.3697382439873,11037,-6110,6727,14296.852730583749
1735578110900,399,-17,903,987.3697382439873,11065,-5991,5120,13584.576033134048
1735578110930,428,36,941,1034.3891917455442,10988,-5902,3601,12982.178130036576
1735578110960,428,36,941,1034.3891917455442,10878,-5826,2107,12518.490683784526
1735578110990,428,36,941,1034.3891917455442,10770,-5762,620,12230.206212488814
1735578111020,574,-4,989,1143.5090729854312,10647,-5725,-833,12117.265491850874
1735578111049,574,-4,989,1143.5090729854312,10338,-5785,-1978,12010.535083833693
1735578111079,574,-4,989,1143.5090729854312,10082,-5876,-3125,12080.551518867009
1735578111109,523,-12,945,1080.1379541521537,9881,-5978,-4305,12324.920689399993
1735578111140,523,-12,945,1080.1379541521537,9826,-6055,-5659,12854.477118887411
1735578111170,523,-12,945,1080.1379541521537,9795,-6138,-7023,13525.516552058187
1735578111200,523,-12,945,1080.1379541521537,9788,-6225,-8398,14320.683398497433
1735578111229,425,-50,964,1054.7137052300022,9957,-6305,-9920,15404.586135303993
1735578111260,425,-50,964,1054.7137052300022,10188,-6353,-11526,16643.45604133949
1735578111290,425,-50,964,1054.7137052300022,10396,-6375,-13140,17926.99196742164
1735578111320,372,-44,895,970.2293543281403,10562,-6367,-14737,19216.495570212588
1735578111350,372,-44,895,970.2293543281403,10727,-6328,-16367,20566.740188955566
1735578111380,372,-44,895,970.2293543281403,10847,-6269,-17980,21914.33708785187
1735578111410,488,-10,924,1044.997607652764,10934,-6198,16423,20680.485705127914
1735578111440,488,-10,924,1044.997607652764,10803,-6177,15048,19526.967045601323
1735578111470,488,-10,924,1044.997607652764,10689,-6169,13672,18418.329620245153
1735578111500,488,-10,924,1044.997607652764,10592,-6173,12295,17362.701921072075
1735578111530,345,-85,965,1028.336034572357,10661,-6172,10806,16386.584177307974
1735578111560,345,-85,965,1028.336034572357,10802,-6139,9235,15480.818776796013
1735578111590,345,-85,965,1028.336034572357,10906,-6088,7676,14660.339559505435
1735578111620,365,-26,972,1038.5976121674842,10981,-6012,6098,13925.232816725184
1735578111650,365,-26,972,1038.5976121674842,10986,-5926,4537,13281.34183732954
1735578111680,365,-26,972,1038.5976121674842,10966,-5837,2993,12778.175691388815
1735578111710,194,-144,976,1005.4590991184077,10928,-5747,1451,12431.998793436234
1735578111739,194,-144,976,1005.4590991184077,11159,-5568,-339,12475.609243640169
1735578111769,194,-144,976,1005.4590991184077,11280,-5351,-2075,12656.11417457981
1735578111800,194,-144,976,1005.4590991184077,11307,-5111,-3763,12966.523782417553
1735578111830,171,-134,979,1002.8150377811454,11293,-4839,-5460,13444.678129282232
1735578111860,171,-134,979,1002.8150377811454,11210,-4561,-7135,14049.022955351735
1735578111890,171,-134,979,1002.8150377811454,11074,-4293,-8792,14777.096771693687
1735578111950,215,-86,966,993.3664983277823,10893,-4055,-10453,15632.200197029208
1735578111951,215,-86,966,993.3664983277823,10659,-3868,-12098,16581.23363926822
1735578111980,215,-86,966,993.3664983277823,10428,-3727,-13747,17652.584003482323
1735578112010,147,-41,919,931.5852081264494,10213,-3629,-15408,18838.29806537735
1735578112040,147,-41,919,931.5852081264494,10021,-3558,-17154,20182.653963242792
1735578112070,147,-41,919,931.5852081264494,9849,-3530,17096,20043.375888307837
1735578112100,147,-41,919,931.5852081264494,9702,-3541,15344,18496.102859791845
1735578112130,224,-114,1000,1031.1023227594824,9548,-3604,13707,17089.03066297208
1735578112160,224,-114,1000,1031.1023227594824,9440,-3699,12095,15782.434096171604
1735578112190,224,-114,1000,1031.1023227594824,9371,-3812,10481,14567.029415773142
1735578112220,96,-55,919,925.6359975713996,9333,-3922,8835,13436.673621101318
1735578112250,96,-55,919,925.6359975713996,9342,-4023,7098,12403.188985095729
1735578112280,96,-55,919,925.6359975713996,9375,-4119,5355,11555.639791893827
1735578112310,233,-89,1000,1030.6357261418798,9434,-4213,3610,10944.488338885469
1735578112340,233,-89,1000,1030.6357261418798,9448,-4324,2028,10586.522753010075
1735578112370,233,-89,1000,1030.6357261418798,9485,-4430,438,10477.689105904985
1735578112400,233,-89,1000,1030.6357261418798,9540,-4528,-1157,10623.230817411433
1735578112430,65,-125,1000,1009.8762300400975,9756,-4570,-2973,11176.008455615985
1735578112460,65,-125,1000,1009.8762300400975,9993,-4550,-4854,12005.159932295779
1735578112490,65,-125,1000,1009.8762300400975,10176,-4482,-6724,12994.286282824463
1735578112520,160,-98,1024,1041.0475493463302,10253,-4403,-8500,14027.131495783447
1735578112550,160,-98,1024,1041.0475493463302,10232,-4343,-10177,15070.726657994963
1735578112580,160,-98,1024,1041.0475493463302,10199,-4286,-11849,16210.74328955955
1735578112610,171,-78,953,971.3567830617131,10160,-4233,-13524,17436.813499031294
1735578112640,171,-78,953,971.3567830617131,10091,-4185,-15193,18712.82327710065
1735578112670,171,-78,953,971.3567830617131,10024,-4151,-16861,20050.054812892657
1735578112699,171,-78,953,971.3567830617131,9961,-4131,17469,20529.31180044767
1735578112730,251,-74,997,1030.7696153845436,9887,-4148,15835,19123.438446053577
1735578112760,251,-74,997,1030.7696153845436,9812,-4187,14228,17783.202664312186
1735578112790,251,-74,997,1030.7696153845436,9759,-4239,12619,16505.949321381064
1735578112820,198,-141,1001,1030.0902873049527,9741,-4285,10991,15298.705402745685
1735578112850,198,-141,1001,1030.0902873049527,9785,-4314,9323,14187.147352445452
1735578112880,198,-141,1001,1030.0902873049527,9829,-4334,7654,13190.015655790558
1735578112910,58,-90,932,938.1300549497388,9874,-4343,5987,12337.005066060401
1735578112940,58,-90,932,938.1300549497388,9982,-4308,4165,11642.44016518874
1735578112969,58,-90,932,938.1300549497388,10058,-4251,2350,11169.461267223232
1735578113000,58,-90,932,938.1300549497388,10104,-4180,543,10947.970816548608
1735578113030,144,-76,974,987.5160758185154,10094,-4121,-1220,10970.86491576667
1735578113060,144,-76,974,987.5160758185154,10050,-4075,-2950,11238.799980424956
1735578113090,144,-76,974,987.5160758185154,10003,-4039,-4678,11758.28278278763
1735578113150,178,-38,1040,1055.8068005085022,9963,-4016,-6400,12503.984364993425
1735578113150,178,-38,1040,1055.8068005085022,9903,-4010,-8099,13406.838180570392
1735578113180,178,-38,1040,1055.8068005085022,9853,-4016,-9800,14465.471475206054
1735578113210,103,-144,993,1008.659506473815,9788,-4034,-11479,15615.554457014967
1735578113240,103,-144,993,1008.659506473815,9828,-4044,-13198,16944.93210372942
1735578113270,103,-144,993,1008.659506473815,9863,-4046,-14917,18334.824078785157
1735578113300,103,-144,993,1008.659506473815,9892,-4041,-16635,19771.306734760856
1735578113329,90,20,873,877.8547715881027,9851,-4042,17642,20606.312843398257
1735578113360,90,20,873,877.8547715881027,9781,-4061,15913,19115.000680094156
1735578113390,90,20,873,877.8547715881027,9728,-4094,14181,17677.544541027186
1735578113419,93,-53,1000,1005.7126826285925,9717,-4130,12428,16307.426927630244
1735578113450,93,-53,1000,1005.7126826285925,9755,-4157,10666,15040.087433256496
1735578113480,93,-53,1000,1005.7126826285925,9792,-4176,8902,13876.881638177938
1735578113510,112,-65,925,934.0203423908924,9826,-4187,7134,12844.267242626183
1735578113540,112,-65,925,934.0203423908924,9849,-4196,5384,11983.182924415365
1735578113570,112,-65,925,934.0203423908924,9869,-4199,3634,11324.076916022781
1735578113600,112,-65,925,934.0203423908924,9887,-4199,1884,10905.678612539432
1735578113629,267,-48,951,988.935791646758,9769,-4227,290,10648.2388215141
1735578113660,267,-48,951,988.935791646758,9639,-4291,-1246,10624.289058567636
1735578113690,267,-48,951,988.935791646758,9545,-4377,-2786,10864.020894677991
1735578113720,254,-153,1062,1102.619154558817,9583,-4473,-4378,11445.894547828055
1735578113750,254,-153,1062,1102.619154558817,9727,-4545,-6008,12303.154798668511
1735578113779,254,-153,1062,1102.619154558817,9865,-4591,-7643,13297.028051410585
1735578113810,133,15,985,994.051809514977,9983,-4602,-9289,14391.810657453772
1735578113839,133,15,985,994.051809514977,10030,-4563,-11100,15640.711908349953
1735578113869,133,15,985,994.051809514977,10057,-4515,-12905,16972.551340325943
1735578113900,133,15,985,994.051809514977,10065,-4463,-14703,18368.473072087403
1735578113930,148,-142,986,1007.1067470730201,10112,-4429,-16441,19803.410463856977
1735578113959,148,-142,986,1007.1067470730201,10176,-4378,17833,20993.659733357592
1735578113990,148,-142,986,1007.1067470730201,10215,-4315,16114,19560.8396036571
1735578114020,106,-104,1052,1062.4292917648684,10236,-4234,14384,18154.94169640872
1735578114050,106,-104,1052,1062.4292917648684,10233,-4141,12630,16774.357513776795
1735578114080,106,-104,1052,1062.4292917648684,10206,-4049,10882,15458.808524592056
1735578114110,101,-62,947,954.3867140734934,10149,-3963,9143,14223.291426389322
1735578114140,101,-62,947,954.3867140734934,10029,-3894,7405,13060.555194937158
1735578114170,101,-62,947,954.3867140734934,9915,-3851,5667,12052.0668351947
1735578114200,101,-62,947,954.3867140734934,9812,-3833,3928,11242.616110140912
1735578114230,153,-81,1017,1031.6292938841937,9735,-3846,2228,10701.678606648586
1735578114260,153,-81,1017,1031.6292938841937,9670,-3878,545,10432.871560601137
1735578114290,153,-81,1017,1031.6292938841937,9625,-3922,-1139,10455.621932721171
1735578114320,7,-109,990,996.0070280876536,9641,-3955,-2895,10815.356258579743
1735578114350,7,-109,990,996.0070280876536,9737,-3954,-4764,11538.586611886223
1735578114380,7,-109,990,996.0070280876536,9813,-3932,-6630,12478.48119764581
1735578114409,101,-73,924,932.3658080388834,9868,-3901,-8477,13581.412076805564
1735578114440,101,-73,924,932.3658080388834,9822,-3903,-10192,14682.709457045044
1735578114470,101,-73,924,932.3658080388834,9784,-3914,-11908,15901.148260424465
1735578114500,101,-73,924,932.3658080388834,9757,-3933,-13625,17213.604009619834
1735578114530,111,-83,982,991.7328269246713,9772,-3941,-15391,18652.247746585395
1735578114560,111,-83,982,991.7328269246713,9787,-3946,-17155,20140.76239867796
1735578114590,111,-83,982,991.7328269246713,9800,-3948,17081,20084.50310562848
1735578114620,77,-55,938,942.7608392376086,9816,-3947,15303,18604.152063450783
1735578114650,77,-55,938,942.7608392376086,9830,-3940,13498,17156.587772631246
1735578114680,77,-55,938,942.7608392376086,9840,-3930,11695,15781.112920196725
1735578114710,75,-42,969,972.8052220254576,9831,-3917,9903,14493.476429069735
1735578114740,75,-42,969,972.8052220254576,9784,-3910,8130,13308.330323522932
1735578114770,75,-42,969,972.8052220254576,9744,-3912,6356,12273.875345627395
1735578114800,75,-42,969,972.8052220254576,9697,-3923,4595,11425.22485555536
1735578114830,114,-86,972,982.4337127765924,9641,-3949,2888,10811.29159721446
1735578114860,114,-86,972,982.4337127765924,9605,-3986,1192,10467.334187843628
1735578114890,114,-86,972,982.4337127765924,9584,-4030,-505,10409.08165978152
1735578114920,124,-49,947,956.3398977351096,9621,-4074,-2266,10690.92479629335
1735578114950,124,-49,947,956.3398977351096,9651,-4113,-4026,11236.869937843012
1735578114980,124,-49,947,956.3398977351096,9685,-4145,-5788,12020.033028240812
1735578115010,76,-73,1000,1005.5371698748883,9726,-4167,-7551,12999.098661061082
1735578115040,76,-73,1000,1005.5371698748883,9822,-4162,-9366,14195.629045590054
1735578115070,76,-73,1000,1005.5371698748883,9899,-4137,-11178,15493.632692173906
1735578115100,88,-120,1017,1027.8292659775748,9948,-4108,-12978,16860.215063871517
1735578115130,88,-120,1017,1027.8292659775748,10002,-4091,-14745,18280.900141951435
1735578115160,88,-120,1017,1027.8292659775748,10041,-4063,-16509,19745.29642725072
1735578115190,88,-120,1017,1027.8292659775748,10066,-4028,17729,20781.399880662517
1735578115220,58,-116,1032,1040.1173010771429,10089,-3964,15940,19276.535399287914
1735578115250,58,-116,1032,1040.1173010771429,10094,-3893,14145,17808.01252245741
1735578115280,58,-116,1032,1040.1173010771429,10080,-3822,12355,16396.9542598618
1735578115310,92,-62,992,998.1843517106447,10040,-3762,10580,15062.889629815389
1735578115340,92,-62,992,998.1843517106447,9959,-3725,8829,13820.58417723361
1735578115370,92,-62,992,998.1843517106447,9883,-3706,7077,12707.952392104717
1735578115400,146,-98,958,974.0041067675228,9797,-3709,5340,11758.12442526443
1735578115430,146,-98,958,974.0041067675228,9690,-3750,3688,11025.42262228528
1735578115460,146,-98,958,974.0041067675228,9611,-3811,2033,10536.988706456888
1735578115490,146,-98,958,974.0041067675228,9561,-3887,376,10327.77158926358
1735578115520,96,-53,920,926.5122773066745,9546,-3954,-1341,10419.141663304132
1735578115550,96,-53,920,926.5122773066745,9549,-4020,-3081,10809.087010474104
1735578115580,96,-53,920,926.5122773066745,9568,-4085,-4825,11467.976020205135
1735578115610,66,-115,990,998.8398269993043,9643,-4141,-6602,12398.456920117116
1735578115640,66,-115,990,998.8398269993043,9772,-4167,-8414,13551.79947460853
1735578115670,66,-115,990,998.8398269993043,9883,-4166,-10224,14817.537615946854
1735578115700,89,-83,922,929.9967741879539,9967,-4148,-12017,16154.110374762207
1735578115730,89,-83,922,929.9967741879539,9980,-4135,-13751,17486.812917167037
1735578115760,89,-83,922,929.9967741879539,9986,-4120,-15485,18880.673213633036
1735578115790,89,-83,922,929.9967741879539,9988,-4103,-17217,20322.88960753367
1735578115820,43,-28,1010,1011.3026253303212,9995,-4057,16955,20095.55420982462
1735578115850,43,-28,1010,1011.3026253303212,9983,-4010,15115,18552.72524455639
1735578115880,43,-28,1010,1011.3026253303212,9961,-3965,13278,17065.990448842986
1735578115910,186,-106,1012,1034.3964423759394,9898,-3958,11552,15718.933551612208
1735578115940,186,-106,1012,1034.3964423759394,9819,-3993,9956,14542.30882631778
1735578115970,186,-106,1012,1034.3964423759394,9761,-4042,8358,13471.119070069866
1735578116000,34,-115,948,955.5548126612099,9723,-4090,6741,12518.22311672068
1735578116030,34,-115,948,955.5548126612099,9807,-4089,4920,11709.123365991154
1735578116060,34,-115,948,955.5548126612099,9874,-4070,3101,11121.015106544906
1735578116090,34,-115,948,955.5548126612099,9923,-4037,1286,10789.675342659759
1735578116120,112,-53,958,965.9798134536767,9879,-4033,-424,10678.92812973287
1735578116150,112,-53,958,965.9798134536767,9812,-4049,-2108,10821.89488952836
1735578116180,112,-53,958,965.9798134536767,9762,-4078,-3794,11239.268837428883
1735578116209,57,-76,975,979.6172722037928,9787,-4093,-5575,11984.099590707681
1735578116239,57,-76,975,979.6172722037928,9863,-4078,-7432,13005.51717541444
1735578116270,57,-76,975,979.6172722037928,9920,-4047,-9285,14177.299954504737
1735578116300,151,-113,1004,1021.560570891418,9948,-4008,-11120,15449.309628588586
1735578116330,151,-113,1004,1021.560570891418,9917,-3991,-12823,16694.439163985113
1735578116360,151,-113,1004,1021.560570891418,9888,-3980,-14525,18016.341720782275
1735578116390,151,-113,1004,1021.560570891418,9862,-3975,-16227,19400.391697076633
1735578116420,97,-66,1005,1011.8250836977703,9785,-3966,-17931,20808.559344654306
1735578116450,97,-66,1005,1011.8250836977703,9719,-3970,16344,19425.400819545524
1735578116480,97,-66,1005,1011.8250836977703,9666,-3988,14618,17972.802341315615
1735578116510,150,-97,909,926.3854489358088,9648,-4014,12874,16581.193443175314
1735578116540,150,-97,909,926.3854489358088,9644,-4044,11148,15285.240462616217
1735578116570,150,-97,909,926.3854489358088,9649,-4074,9421,14087.438305100044
1735578116600,236,-62,1003,1032.254329126306,9661,-4103,7688,13010.567781615067
1735578116630,236,-62,1003,1032.254329126306,9593,-4150,6042,12072.858526463398
1735578116659,236,-62,1003,1032.254329126306,9548,-4210,4392,11321.575332081662
1735578116690,236,-62,1003,1032.254329126306,9525,-4278,2739,10794.86127747828
1735578116720,90,-87,1003,1010.7808862458768,9608,-4326,971,10581.624686219031
1735578116750,90,-87,1003,1010.7808862458768,9727,-4342,-854,10686.290703513545
1735578116780,90,-87,1003,1010.7808862458768,9828,-4334,-2679,11070.238524982196
1735578116810,154,-84,995,1010.3449905848992,9921,-4312,-4499,11715.826304618893
1735578116840,154,-84,995,1010.3449905848992,9974,-4283,-6278,12539.459677354524
1735578116870,154,-84,995,1010.3449905848992,10009,-4245,-8053,13529.631000141873
1735578116900,80,12,955,958.4200540472847,10023,-4201,-9810,14640.526971390067
1735578116930,80,12,955,958.4200540472847,9990,-4152,-11618,15875.047338512097
1735578116960,80,12,955,958.4200540472847,9950,-4111,-13423,17206.968065292618
1735578116990,80,12,955,958.4200540472847,9906,-4079,-15226,18617.146747017923
1735578117020,125,-64,977,987.0410325817261,9884,-4062,-16992,20072.901235247486
1735578117050,125,-64,977,987.0410325817261,9873,-4049,17259,20291.46645760232
1735578117080,125,-64,977,987.0410325817261,9860,-4039,15511,18818.189126480793
1735578117110,154,-113,1054,1071.1680540419416,9831,-4035,13793,17411.968154117443
1735578117140,154,-113,1054,1071.1680540419416,9810,-4038,12104,16094.979341397118
1735578117170,154,-113,1054,1071.1680540419416,9793,-4046,10415,14857.496087833912
1735578117200,94,-80,953,960.9604570428484,9784,-4055,8724,13721.437861973503
1735578117230,94,-80,953,960.9604570428484,9794,-4051,6965,12682.43911871845
1735578117260,94,-80,953,960.9604570428484,9801,-4045,5206,11812.030392781759
1735578117290,94,-80,953,960.9604570428484,9805,-4038,3448,11150.433758379088
1735578117350,144,-115,989,1006.0228625632719,9788,-4053,1753,10738.005494504088
1735578117351,144,-115,989,1006.0228625632719,9776,-4073,75,10590.804029911988
1735578117380,144,-115,989,1006.0228625632719,9772,-4095,-1603,10715.904908126051
1735578117410,192,-99,958,982.0534608665661,9786,-4106,-3307,11115.812206042347
1735578117440,192,-99,958,982.0534608665661,9783,-4114,-4997,11730.39189456175
1735578117470,192,-99,958,982.0534608665661,9783,-4123,-6687,12546.799870883411
1735578117500,114,-70,942,951.4515226746972,9770,-4131,-8363,13507.695214210305
1735578117530,114,-70,942,951.4515226746972,9764,-4131,-10094,14638.636992561842
1735578117560,114,-70,942,951.4515226746972,9760,-4133,-11826,15880.603420525304
1735578117590,114,-70,942,951.4515226746972,9757,-4135,-13558,17208.039923245182
1735578117620,56,-36,985,987.247182827077,9797,-4133,-15373,18692.0311095397
1735578117650,56,-36,985,987.247182827077,9833,-4119,-17208,20242.759545081793
1735578117680,56,-36,985,987.247182827077,9858,-4097,16959,20039.292751991023
1735578117710,48,-49,1047,1049.2444900975177,9883,-4060,15110,18505.928482516083
1735578117740,48,-49,1047,1049.2444900975177,9905,-4009,13252,17023.41358247517
1735578117770,48,-49,1047,1049.2444900975177,9908,-3954,11399,15612.167722645052
1735578117800,97,-41,952,957.8068698855735,9886,-3898,9560,14294.089687699598
1735578117830,97,-41,952,957.8068698855735,9800,-3858,7796,13103.502585186909
1735578117860,97,-41,952,957.8068698855735,9721,-3836,6032,12066.389725182922
1735578117890,97,-41,952,957.8068698855735,9651,-3832,4267,11226.455985750801
1735578117920,183,-129,975,1000.3774287737604,9576,-3865,2644,10659.67809082432
1735578117950,183,-129,975,1000.3774287737604,9527,-3914,1050,10353.049067786746
1735578117980,183,-129,975,1000.3774287737604,9497,-3971,-545,10308.194555789098
1735578118010,111,-57,959,967.0837605916046,9492,-4029,-2155,10534.463916118371
1735578118040,111,-57,959,967.0837605916046,9501,-4084,-3815,11022.807355660354
1735578118070,111,-57,959,967.0837605916046,9521,-4135,-5477,11736.48989263826
1735578118100,160,-35,947,961.0587911257043,9545,-4183,-7155,12641.144687092226
1735578118130,160,-35,947,961.0587911257043,9514,-4239,-8803,13637.379733658516
1735578118160,160,-35,947,961.0587911257043,9503,-4300,-10455,14768.34567580269
1735578118190,160,-35,947,961.0587911257043,9508,-4362,-12112,16004.051112140325
1735578118220,161,-41,903,918.1563047760441,9541,-4416,-13769,17323.888073986163
1735578118250,161,-41,903,918.1563047760441,9582,-4463,-15430,18703.42195963081
1735578118280,161,-41,903,918.1563047760441,9628,-4502,-17094,20128.865442443595
1735578118310,175,-88,1053,1071.0639570072367,9721,-4526,17196,20265.362888436022
1735578118340,175,-88,1053,1071.0639570072367,9837,-4525,15474,18886.155511379227
1735578118370,175,-88,1053,1071.0639570072367,9930,-4502,13755,17552.00640952481
1735578118400,83,1,1001,1004.4356624493179,9994,-4462,12051,16279.314512595425
1735578118430,83,1,1001,1004.4356624493179,10020,-4398,10265,15003.767160283447
1735578118460,83,1,1001,1004.4356624493179,10024,-4331,8486,13829.3287255745
1735578118490,83,1,1001,1004.4356624493179,10009,-4264,6713,12783.823606417604
1735578118520,98,-107,926,937.2987784052639,10030,-4198,4951,11947.238383827453
1735578118550,98,-107,926,937.2987784052639,10053,-4124,3201,11327.691115139043
1735578118580,98,-107,926,937.2987784052639,10053,-4046,1457,10934.156300327886
1735578118610,119,-37,958,966.071425930816,10046,-3956,-330,10801.89575954147
1735578118640,119,-37,958,966.071425930816,9988,-3869,-2126,10920.127334422434
1735578118670,119,-37,958,966.071425930816,9919,-3797,-3920,11321.226523658997
1735578118700,154,-73,1028,1042.0311895524048,9822,-3750,-5685,11952.129893872472
1735578118730,154,-73,1028,1042.0311895524048,9701,-3749,-7361,12741.613830280683
1735578118760,154,-73,1028,1042.0311895524048,9602,-3773,-9038,13715.66174123582
1735578118790,152,-58,1012,1024.9936585169685,9531,-3813,-10726,14846.75068828193
1735578118820,152,-58,1012,1024.9936585169685,9476,-3858,-12433,16101.49772536704
1735578118850,152,-58,1012,1024.9936585169685,9442,-3913,-14143,17449.56681410745
1735578118880,152,-58,1012,1024.9936585169685,9429,-3973,-15856,18870.704968283513
1735578118910,161,-82,982,998.4833498862162,9414,-4055,-17493,20274.89753364983
1735578118940,161,-82,982,998.4833498862162,9425,-4136,16869,19761.07998060835
1735578118970,161,-82,982,998.4833498862162,9454,-4214,15227,18411.88314648993
1735578119000,118,-37,1006,1013.5723950463529,9506,-4281,13567,17110.06972516477
1735578119030,118,-37,1006,1013.5723950463529,9577,-4326,11826,15820.476636309033
1735578119060,118,-37,1006,1013.5723950463529,9648,-4355,10083,14619.056672713188
1735578119090,145,-57,880,893.6856270523768,9722,-4363,8318,13518.216487392114
1735578119120,145,-57,880,893.6856270523768,9794,-4346,6544,12555.24145526481
1735578119150,145,-57,880,893.6856270523768,9848,-4314,4774,11763.705878676157
1735578119180,145,-57,880,893.6856270523768,9883,-4272,3009,11179.344971866643
1735578119209,249,6,884,918.4187498086045,9788,-4284,1428,10779.461211025346
1735578119240,249,6,884,918.4187498086045,9673,-4325,-113,10596.476914522109
1735578119270,249,6,884,918.4187498086045,9587,-4386,-1659,10672.387080686307
1735578119300,145,-25,1043,1053.327584372497,9628,-4438,-3331,11112.595961340447
1735578119330,145,-25,1043,1053.327584372497,9769,-4449,-5129,11896.78960896594
1735578119360,145,-25,1043,1053.327584372497,9887,-4431,-6923,12857.467052261887
1735578119391,75,-81,1001,1007.0685180264549,9965,-4388,-8718,13948.45127603778
1735578119420,75,-81,1001,1007.0685180264549,10086,-4302,-10596,15248.272557899796
1735578119450,75,-81,1001,1007.0685180264549,10158,-4192,-12460,16613.531472868734
1735578119480,75,-81,1001,1007.0685180264549,10183,-4069,-14310,18028.487180015964
1735578119510,73,-101,1067,1074.2527635524145,10175,-3963,-16099,19452.86084358802
1735578119540,73,-101,1067,1074.2527635524145,10146,-3860,-17881,20918.19965962654
1735578119570,73,-101,1067,1074.2527635524145,10095,-3764,16340,19572.233418800217
1735578119600,122,-41,919,927.9687494738172,9979,-3686,14602,18066.14073342727
1735578119630,122,-41,919,927.9687494738172,9806,-3653,12905,16614.48374160329
1735578119660,122,-41,919,927.9687494738172,9658,-3656,11206,15238.692069859539
1735578119690,125,-67,977,987.2400923787486,9543,-3692,9507,13967.203084368753
1735578119720,125,-67,977,987.2400923787486,9485,-3751,7815,12849.49224677769
1735578119750,125,-67,977,987.2400923787486,9451,-3821,6121,11890.672100432339
1735578119780,125,-67,977,987.2400923787486,9441,-3896,4423,11129.879873565573
1735578119810,213,-70,883,911.020307128222,9378,-3974,2805,10564.449110105079
1735578119840,213,-70,883,911.020307128222,9326,-4069,1216,10247.423725014985
1735578119870,213,-70,883,911.020307128222,9304,-4170,-376,10202.680628148662
1735578119900,94,-51,940,946.0639513267589,9359,-4279,-2012,10485.650480537675
1735578119930,94,-51,940,946.0639513267589,9490,-4363,-3744,11095.648020733173
1735578119960,94,-51,940,946.0639513267589,9619,-4421,-5483,11921.983517854736
1735578119990,101,-147,995,1010.858545989497,9753,-4449,-7239,12935.135523062756
1735578120020,101,-147,995,1010.858545989497,9965,-4433,-9016,14150.652635126056
1735578120050,101,-147,995,1010.858545989497,10132,-4375,-10784,15430.25291432386
1735578120080,101,-147,995,1010.858545989497,10250,-4286,-12540,16753.623369289402
1735578120110,249,-50,929,963.0898192795935,10194,-4203,-14208,17984.718763439145
1735578120140,249,-50,929,963.0898192795935,10074,-4153,-15820,19209.51027486125
1735578120170,249,-50,929,963.0898192795935,9966,-4126,-17432,20499.259889078923
1735578120200,161,-94,952,970.0829861408765,9890,-4122,16954,20055.949242057828
1735578120230,161,-94,952,970.0829861408765,9880,-4118,15291,18665.12804670785
1735578120259,161,-94,952,970.0829861408765,9872,-4117,13628,17324.215912993004
1735578120290,183,-83,1008,1027.8336441272975,9869,-4117,11960,16043.33038991593
1735578120320,183,-83,1008,1027.8336441272975,9851,-4124,10304,14839.878469852778
1735578120350,183,-83,1008,1027.8336441272975,9838,-4135,8648,13735.806237713168
1735578120380,183,-83,1008,1027.8336441272975,9831,-4148,6991,12756.509945906051
1735578120410,128,-82,1054,1064.905629621705,9835,-4137,5263,11897.107337500154
1735578120440,128,-82,1054,1064.905629621705,9846,-4121,3516,11237.82065171001
1735578120470,128,-82,1054,1064.905629621705,9851,-4102,1770,10816.72339481786
1735578120500,103,-14,1015,1020.3087767925942,9841,-4092,27,10657.883185698744
1735578120530,103,-14,1015,1020.3087767925942,9810,-4091,-1727,10768.236160114617
1735578120560,103,-14,1015,1020.3087767925942,9784,-4096,-3483,11164.011868499603
1735578120590,181,-106,1027,1048.2013165418177,9763,-4108,-5233,11814.233872748584
1735578120620,181,-106,1027,1048.2013165418177,9770,-4134,-6881,12644.801975515473
1735578120650,181,-106,1027,1048.2013165418177,9782,-4159,-8531,13629.48150150988
1735578120680,181,-106,1027,1048.2013165418177,9797,-4181,-10182,14735.504538359044
1735578120710,131,-83,913,926.0772106039539,9794,-4184,-11853,15934.927078590601
1735578120740,131,-83,913,926.0772106039539,9797,-4184,-13543,17230.78390555694
1735578120770,131,-83,913,926.0772106039539,9800,-4184,-15234,18590.874428062816
1735578120800,210,-40,928,952.3045731277363,9814,-4191,-16937,20018.517577483104
1735578120830,210,-40,928,952.3045731277363,9789,-4211,17397,20401.290424872637
1735578120860,210,-40,928,952.3045731277363,9773,-4235,15729,18996.00471151763
1735578120890,99,-104,1021,1031.0470406339373,9768,-4256,14052,17634.79696509149
1735578120920,99,-104,1021,1031.0470406339373,9902,-4232,12233,16297.414426834706
1735578120950,99,-104,1021,1031.0470406339373,10003,-4181,10420,15037.192889632028
1735578120980,99,-104,1021,1031.0470406339373,10069,-4109,8615,13873.963636971232
1735578121010,195,-56,1011,1031.155662351713,9970,-4071,6985,12836.04947014462
1735578121040,195,-56,1011,1031.155662351713,9849,-4065,5388,11939.747484767004
1735578121070,195,-56,1011,1031.155662351713,9749,-4082,3789,11227.744475182893
1735578121100,37,-146,997,1008.3124515744115,9719,-4101,2145,10764.673102328747
1735578121130,37,-146,997,1008.3124515744115,9807,-4090,391,10632.88436878724
1735578121160,37,-146,997,1008.3124515744115,9874,-4060,-1359,10762.265421369239
1735578121190,90,-17,920,924.5479976723761,9939,-4018,-3128,11167.471916239592
1735578121220,90,-17,920,924.5479976723761,9877,-3989,-4882,11717.55836341343
1735578121250,90,-17,920,924.5479976723761,9819,-3973,-6637,12499.890359519159
1735578121280,90,-17,920,924.5479976723761,9768,-3970,-8391,13475.296100642836
1735578121310,191,-71,1017,1037.2130928599001,9700,-3996,-10058,14533.457262468555
1735578121340,191,-71,1017,1037.2130928599001,9644,-4041,-11690,15684.148590216811
1735578121370,191,-71,1017,1037.2130928599001,9608,-4095,-13324,16929.609121299876
1735578121400,143,-70,990,1002.7207986274145,9624,-4136,-15025,18316.072095293795
1735578121430,143,-70,990,1002.7207986274145,9675,-4156,-16786,19815.34145554903
1735578121460,143,-70,990,1002.7207986274145,9723,-4165,17451,20406.404754390227
1735578121490,132,-71,944,955.8247747364577,9758,-4164,15702,18950.20485377401
1735578121550,132,-71,944,955.8247747364577,9782,-4152,13969,17551.626391876052
1735578121550,132,-71,944,955.8247747364577,9798,-4136,12238,16213.44947875066
1735578121580,132,-71,944,955.8247747364577,9808,-4117,10508,14952.077347311979
1735578121610,124,-72,1031,1040.9231479797152,9815,-4115,8818,13821.163988608196
1735578121640,124,-72,1031,1040.9231479797152,9823,-4111,7125,12812.387560482239
1735578121670,124,-72,1031,1040.9231479797152,9828,-4106,5433,11956.851968641244
1735578121700,134,-104,1015,1029.0757989574918,9804,-4098,3761,11271.962606396457
1735578121730,134,-104,1015,1029.0757989574918,9779,-4096,2106,10809.31510318762
1735578121760,134,-104,1015,1029.0757989574918,9758,-4098,450,10593.142498805537
1735578121790,109,-42,978,984.9512678300384,9773,-4102,-1241,10671.364205198883
1735578121820,109,-42,978,984.9512678300384,9813,-4094,-3030,11056.070956718757
1735578121850,109,-42,978,984.9512678300384,9843,-4077,-4817,11692.308027074894
1735578121880,109,-42,978,984.9512678300384,9863,-4055,-6602,12542.256495543375
1735578121910,224,-45,966,992.651499772201,9767,-4068,-8218,13396.956258792517
1735578121940,224,-45,966,992.651499772201,9668,-4109,-9794,14362.330625633153
1735578121970,224,-45,966,992.651499772201,9596,-4168,-11373,15453.173428134429
1735578122000,159,-133,1008,1029.0937760962313,9622,-4222,-13024,16734.17891621815
1735578122030,159,-133,1008,1029.0937760962313,9745,-4245,-14748,18179.344157587202
1735578122060,159,-133,1008,1029.0937760962313,9851,-4243,-16472,19656.34844013506
1735578122090,170,-41,956,971.8626446159972,9928,-4212,17801,20813.018257811626
1735578122120,170,-41,956,971.8626446159972,9881,-4169,16082,19329.910656803357
1735578122150,170,-41,956,971.8626446159972,9832,-4136,14364,17891.316776581873
1735578122180,170,-41,956,971.8626446159972,9784,-4113,12647,16510.300845229925
1735578122210,127,-130,1037,1052.804825216906,9811,-4124,10965,15280.520998971206
1735578122240,127,-130,1037,1052.804825216906,9866,-4121,9268,14149.785192715824
1735578122270,127,-130,1037,1052.804825216906,9911,-4107,7571,13130.70489349296
1735578122300,12,-79,1034,1037.082928217411,9951,-4072,5840,12235.570481183131
1735578122330,12,-79,1034,1037.082928217411,9994,-4012,4032,11499.269715942835
1735578122360,12,-79,1034,1037.082928217411,10011,-3944,2229,10988.343733247519
1735578122390,114,-60,972,980.4998725140151,10005,-3871,429,10736.32651329122
1735578122420,114,-60,972,980.4998725140151,9903,-3826,-1264,10691.369463263347
1735578122450,114,-60,972,980.4998725140151,9808,-3803,-2960,10928.004072107587
1735578122480,114,-60,972,980.4998725140151,9726,-3799,-4656,11432.66430015331
1735578122510,156,-72,934,949.6715221591095,9669,-3813,-6351,12180.465138901716
1735578122540,156,-72,934,949.6715221591095,9620,-3841,-8032,13107.658257675168
1735578122570,156,-72,934,949.6715221591095,9587,-3878,-9715,14189.10420005435
1735578122600,247,-101,931,968.4890293648142,9507,-3953,-11249,15249.565862672944
1735578122630,247,-101,931,968.4890293648142,9445,-4046,-12752,16376.557788497557
1735578122660,247,-101,931,968.4890293648142,9412,-4148,-14257,17579.9231226988
1735578122690,205,-137,1045,1073.6940905118179,9422,-4252,-15784,18867.65072816433
1735578122720,205,-137,1045,1073.6940905118179,9540,-4331,-17403,20313.38401153289
1735578122750,205,-137,1045,1073.6940905118179,9658,-4388,16973,20015.35003441109
1735578122780,209,-100,1057,1082.0951898978203,9767,-4418,15331,18707.01937776299
1735578122810,209,-100,1057,1082.0951898978203,9826,-4425,13661,17399.822470358715
1735578122840,209,-100,1057,1082.0951898978203,9876,-4421,11992,16152.04881741013
1735578122870,209,-100,1057,1082.0951898978203,9916,-4408,10325,14978.756457062782
1735578122900,79,-94,960,967.8207478660498,9942,-4390,8650,13890.211085509103
1735578122930,79,-94,960,967.8207478660498,9986,-4355,6928,12910.592743944795
1735578122960,79,-94,960,967.8207478660498,10012,-4312,5210,12082.118522841927
1735578122990,91,-162,990,1007.2859574122931,10041,-4263,3471,11447.387955337235
1735578123020,91,-162,990,1007.2859574122931,10131,-4199,1702,11097.998287979684
1735578123050,91,-162,990,1007.2859574122931,10186,-4117,-57,10986.69804809434
1735578123080,225,-38,966,992.5850089538931,10227,-4020,-1832,11140.38388027989
1735578123110,225,-38,966,992.5850089538931,10084,-3954,-3504,11384.16391308558
1735578123140,225,-38,966,992.5850089538931,9952,-3917,-5176,11881.757824497181
1735578123170,225,-38,966,992.5850089538931,9836,-3907,-6851,12607.448036775722
1735578123200,304,-85,979,1028.6311292197995,9678,-3951,-8369,13390.826934883447
1735578123230,304,-85,979,1028.6311292197995,9553,-4027,-9860,14307.205806865295
1735578123260,304,-85,979,1028.6311292197995,9463,-4123,-11352,15343.252653854071
1735578123289,196,-134,1001,1028.7725696187665,9474,-4213,-12932,16575.363314268558
1735578123320,196,-134,1001,1028.7725696187665,9591,-4271,-14622,18000.877923034754
1735578123350,196,-134,1001,1028.7725696187665,9701,-4304,-16314,19462.281803529615
1735578123380,113,-136,1039,1053.9383283665131,9802,-4317,17989,20936.088794232794
1735578123410,113,-136,1039,1053.9383283665131,9951,-4292,16193,19484.786732217523
1735578123440,113,-136,1039,1053.9383283665131,10065,-4237,14404,18075.71879621942
1735578123470,113,-136,1039,1053.9383283665131,10141,-4160,12624,16718.57819911729
1735578123500,42,-85,984,988.5570292097467,10143,-4069,10870,15414.088036598208
1735578123530,42,-85,984,988.5570292097467,10121,-3974,9096,14176.195998927216
1735578123560,42,-85,984,988.5570292097467,10078,-3886,7327,13051.896758709057
1735578123590,106,-73,1026,1034.0411016976066,10021,-3823,5581,12090.629884336051
1735578123620,106,-73,1026,1034.0411016976066,9936,-3792,3878,11319.993109538538
1735578123650,106,-73,1026,1034.0411016976066,9860,-3778,2175,10780.700765720196
1735578123680,166,-127,946,968.8142236775841,9795,-3774,458,10506.896068773118
1735578123710,166,-127,946,968.8142236775841,9750,-3778,-1221,10527.422524055924
1735578123740,166,-127,946,968.8142236775841,9714,-3791,-2901,10823.552004771816
1735578123770,166,-127,946,968.8142236775841,9688,-3811,-4583,11374.75072254333
1735578123800,248,-97,953,989.505937324279,9598,-3866,-6144,12033.964267854546
1735578123830,248,-97,953,989.505937324279,9512,-3946,-7677,12844.663833670385
1735578123859,248,-97,953,989.505937324279,9458,-4040,-9212,13807.110776697637
1735578123890,167,-142,982,1006.1694688271951,9484,-4133,-10816,14967.090599044292
1735578123920,167,-142,982,1006.1694688271951,9596,-4199,-12502,16309.960790878684
1735578123950,167,-142,982,1006.1694688271951,9705,-4242,-14193,17709.399707499968
1735578123980,163,-73,951,967.6254440639725,9800,-4262,-15880,19141.03037978886
1735578124010,163,-73,951,967.6254440639725,9822,-4267,-17563,20570.317012627685
1735578124040,163,-73,951,967.6254440639725,9842,-4267,16753,19893.09583750101
1735578124070,163,-73,951,967.6254440639725,9858,-4264,15070,18505.85745108829
1735578124100,78,-125,1119,1128.6584957373068,9947,-4252,13345,17178.804906046287
1735578124130,78,-125,1119,1128.6584957373068,10047,-4211,11593,15908.248772256486
1735578124160,78,-125,1119,1128.6584957373068,10117,-4151,9847,14715.566553823199
1735578124190,127,-91,906,919.3726121654919,10109,-4072,8125,13593.700379219781
1735578124220,127,-91,906,919.3726121654919,10034,-4006,6441,12578.381175652135
1735578124250,127,-91,906,919.3726121654919,9956,-3956,4758,11722.219755660615
1735578124280,229,-162,963,1003.0224324510394,9881,-3919,3075,11065.638119873613
1735578124310,229,-162,963,1003.0224324510394,9802,-3907,1502,10658.32336720931
1735578124340,229,-162,963,1003.0224324510394,9734,-3910,-71,10490.180980326317
1735578124370,229,-162,963,1003.0224324510394,9678,-3926,-1646,10572.912370770884
1735578124400,140,-76,876,890.3662167894737,9671,-3924,-3344,10959.395649396001
1735578124430,140,-76,876,890.3662167894737,9661,-3922,-5075,11596.233440216698
1735578124460,140,-76,876,890.3662167894737,9652,-3922,-6806,12444.46961505391
1735578124489,214,-156,1033,1066.4056451463487,9648,-3942,-8476,13433.757627707893
1735578124520,214,-156,1033,1066.4056451463487,9659,-3973,-10076,14512.297750528687
1735578124550,214,-156,1033,1066.4056451463487,9675,-4001,-11677,15683.301788845358
1735578124580,171,-85,1051,1068.2073768702405,9684,-4022,-13269,16912.20568110499
1735578124610,171,-85,1051,1068.2073768702405,9648,-4035,-14893,18197.982800299596
1735578124640,171,-85,1051,1068.2073768702405,9621,-4055,-16517,19540.162614471763
1735578124670,171,-85,1051,1068.2073768702405,9604,-4079,17856,20681.194186990266
1735578124700,80,-148,1036,1049.5713410721542,9684,-4100,16167,19286.309781811553
1735578124730,80,-148,1036,1049.5713410721542,9788,-4094,14444,17921.911616789097
1735578124760,80,-148,1036,1049.5713410721542,9871,-4066,12725,16610.075917948117
1735578124790,46,-72,954,957.818354386676,9919,-4020,10979,15332.494969834492
1735578124820,46,-72,954,957.818354386676,9921,-3966,9202,14100.787247526288
1735578124850,46,-72,954,957.818354386676,9908,-3913,7428,12986.732344974236
1735578124880,147,-136,938,959.1397187062998,9881,-3863,5659,12024.192737976216
1735578124910,147,-136,938,959.1397187062998,9832,-3835,4002,11286.782225240284
1735578124940,147,-136,938,959.1397187062998,9785,-3818,2345,10762.08037509477
1735578124970,147,-136,938,959.1397187062998,9743,-3810,688,10484.058994492543
1735578125000,193,-77,906,929.5235338602246,9702,-3799,-1005,10467.627715963154
1735578125030,193,-77,906,929.5235338602246,9644,-3805,-2684,10709.277146474453
1735578125060,193,-77,906,929.5235338602246,9597,-3822,-4364,11214.035357532988
1735578125090,161,-115,1023,1041.9572927908323,9560,-3851,-6022,11936.845688874428
1735578125120,161,-115,1023,1041.9572927908323,9559,-3881,-7687,12865.714554582657
1735578125150,161,-115,1023,1041.9572927908323,9565,-3911,-9354,13938.524383879378
1735578125180,2,-155,963,975.3963297039825,9573,-3942,-11006,15110.053904602722
1735578125210,2,-155,963,975.3963297039825,9713,-3941,-12799,16543.525954281933
1735578125240,2,-155,963,975.3963297039825,9825,-3911,-14589,18018.475712445823
1735578125270,2,-155,963,975.3963297039825,9908,-3857,-16373,19522.29602275306
1735578125300,57,-94,907,913.6377838071278,9919,-3789,17822,20745.282981921457
1735578125330,57,-94,907,913.6377838071278,9886,-3729,16040,19207.29124577435
1735578125360,57,-94,907,913.6377838071278,9844,-3678,14261,17714.63070458992
1735578125390,188,-114,987,1011.1918710116295,9770,-3650,12549,16317.254701695381
1735578125420,188,-114,987,1011.1918710116295,9663,-3659,10939,15047.377545605746
1735578125450,188,-114,987,1011.1918710116295,9578,-3689,9327,13868.660137158167
1735578125480,121,-135,994,1010.3969516976979,9526,-3729,7693,12799.701793401282
1735578125510,121,-135,994,1010.3969516976979,9567,-3751,5943,11870.835648765424
1735578125540,121,-135,994,1010.3969516976979,9607,-3763,4193,11137.139085061297
1735578125570,121,-135,994,1010.3969516976979,9643,-3767,2443,10637.010247245229
1735578125600,48,-172,1002,1017.7877971365151,9696,-3741,646,10412.723611044326
1735578125630,48,-172,1002,1017.7877971365151,9754,-3696,-1171,10496.293298112434
1735578125660,48,-172,1002,1017.7877971365151,9788,-3639,-2986,10861.098517185083
1735578125690,-15,-157,1075,1086.5077082101166,9797,-3579,-4771,11469.650866525973
1735578125720,-15,-157,1075,1086.5077082101166,9798,-3514,-6574,12311.2337318402
1735578125750,-15,-157,1075,1086.5077082101166,9781,-3451,-8374,13330.462782664374
1735578125780,183,-35,885,904.3998009729988,9746,-3396,-10173,14491.627272325217
1735578125810,183,-35,885,904.3998009729988,9497,-3414,-11774,15507.271874833432
1735578125840,183,-35,885,904.3998009729988,9296,-3482,-13378,16658.65612827157
1735578125870,183,-35,885,904.3998009729988,9145,-3589,-14982,17915.698981619444
1735578125900,56,-58,993,996.2675343500861,9198,-3685,-16792,19497.530433365144
1735578125930,56,-58,993,996.2675343500861,9296,-3756,17347,20036.006613095335
1735578125960,56,-58,993,996.2675343500861,9395,-3803,15485,18507.135353695343
1735578125990,136,-135,1076,1092.9304643937783,9466,-3829,13676,17067.49463160894
1735578126020,136,-135,1076,1092.9304643937783,9527,-3844,11938,15749.790760514883
1735578126050,136,-135,1076,1092.9304643937783,9580,-3845,10200,14512.078589919502
1735578126080,-59,-67,962,966.1335311435993,9621,-3832,8469,13378.035207010034
1735578126110,-59,-67,962,966.1335311435993,9708,-3775,6545,12301.744347855714
1735578126140,-59,-67,962,966.1335311435993,9760,-3700,4629,11418.19780000329
1735578126170,-59,-67,962,966.1335311435993,9780,-3615,2719,10775.41581564257
1735578126200,103,-112,937,949.2744597849454,9712,-3566,954,10389.870836540751
1735578126230,103,-112,937,949.2744597849454,9628,-3543,-755,10286.945999663845
1735578126260,103,-112,937,949.2744597849454,9555,-3539,-2466,10483.496649496294
1735578126289,140,-75,924,937.5505319714773,9470,-3557,-4142,10931.116731606153
1735578126320,140,-75,924,937.5505319714773,9370,-3604,-5781,11584.717389733769
1735578126350,140,-75,924,937.5505319714773,9298,-3669,-7422,12449.917630249607
1735578126380,106,-80,906,915.6811672192456,9263,-3744,-9082,13501.978706841453
1735578126410,106,-80,906,915.6811672192456,9294,-3808,-10817,14760.988754145164
1735578126440,106,-80,906,915.6811672192456,9335,-3863,-12554,16114.214532517557
1735578126470,223,-102,1036,1064.6262254894907,9389,-3911,-14293,17542.493864898457
1735578126500,223,-102,1036,1064.6262254894907,9400,-3968,-15904,18895.561383563072
1735578126530,223,-102,1036,1064.6262254894907,9422,-4021,-17518,20293.418859324815
1735578126560,223,-102,1036,1064.6262254894907,9452,-4069,16866,19757.505434644325
1735578126590,117,-134,931,947.8428139728654,9525,-4071,15141,18345.259523920613
1735578126620,117,-134,931,947.8428139728654,9616,-4049,13378,16965.634117238293
1735578126650,117,-134,931,947.8428139728654,9683,-4008,11620,15647.650079165242
1735578126680,186,-157,976,1005.8931354771241,9731,-3961,9886,14426.187230172774
1735578126710,186,-157,976,1005.8931354771241,9742,-3930,8270,13369.53118101005
1735578126739,186,-157,976,1005.8931354771241,9745,-3897,6656,12427.95115857799
1735578126770,58,-98,1025,1031.306453000271,9749,-3854,5013,11620.089758689473
1735578126800,58,-98,1025,1031.306453000271,9784,-3769,3174,10954.738381175517
1735578126830,58,-98,1025,1031.306453000271,9790,-3679,1341,10544.07046638062
1735578126860,58,-98,1025,1031.306453000271,9770,-3591,-487,10420.429453722145
1735578126890,81,-56,928,933.2100513817883,9678,-3552,-2182,10537.623641030268
1735578126950,81,-56,928,933.2100513817883,9580,-3538,-3870,10921.114595131763
1735578126950,81,-56,928,933.2100513817883,9498,-3546,-5560,11562.859507924499
1735578126980,65,-74,982,986.9270489757589,9430,-3564,-7267,12427.239637184117
1735578127010,65,-74,982,986.9270489757589,9399,-3580,-9020,13509.922316579026
1735578127040,65,-74,982,986.9270489757589,9378,-3602,-10775,14731.663619564491
1735578127070,37,-115,976,983.4480159113648,9361,-3629,-12529,16055.33565516461
1735578127100,37,-115,976,983.4480159113648,9395,-3652,-14309,17502.874335377033
1735578127130,37,-115,976,983.4480159113648,9428,-3667,-16090,19005.845758608062
1735578127160,37,-115,976,983.4480159113648,9459,-3675,-17870,20550.309146093157
1735578127190,146,-76,958,972.0370363314353,9453,-3699,16422,19306.058479140687
1735578127219,146,-76,958,972.0370363314353,9424,-3734,14753,17899.875446494036
1735578127249,146,-76,958,972.0370363314353,9409,-3773,13082,16550.03123864121
1735578127280,256,-150,964,1008.6287721456295,9368,-3812,11456,15281.711422481449
1735578127310,256,-150,964,1008.6287721456295,9319,-3862,9912,14142.36716395102
1735578127340,256,-150,964,1008.6287721456295,9290,-3920,8367,13102.56421468714
1735578127370,-20,-76,1035,1037.9792868838954,9307,-3979,6803,12195.634423842
1735578127400,-20,-76,1035,1037.9792868838954,9509,-3985,4896,11413.681351781292
1735578127430,-20,-76,1035,1037.9792868838954,9672,-3945,2995,10866.49133805388
1735578127460,-20,-76,1035,1037.9792868838954,9791,-3869,1103,10585.341326570438
1735578127490,180,-139,958,984.6242938298851,9729,-3807,-592,10464.088780204418
1735578127520,180,-139,958,984.6242938298851,9642,-3771,-2216,10587.693847103816
1735578127550,180,-139,958,984.6242938298851,9563,-3752,-3841,10967.303861934344
1735578127580,184,-115,997,1020.3381792327483,9533,-3742,-5501,11625.044257980268
1735578127610,184,-115,997,1020.3381792327483,9512,-3733,-7178,12487.478408389741
1735578127640,184,-115,997,1020.3381792327483,9492,-3729,-8854,13505.436720076845
1735578127670,34,-59,1007,1009.299757257476,9462,-3728,-10531,14639.992793714073
1735578127700,34,-59,1007,1009.299757257476,9457,-3716,-12368,16006.590174050187
1735578127730,34,-59,1007,1009.299757257476,9450,-3705,-14205,17458.853055112184
1735578127760,34,-59,1007,1009.299757257476,9441,-3696,-16041,18976.47433007512
1735578127790,96,-103,954,964.3344855391204,9422,-3707,-17790,20469.490296536453
1735578127820,96,-103,954,964.3344855391204,9408,-3722,16482,19339.598548056783
1735578127850,96,-103,954,964.3344855391204,9401,-3741,14754,17890.064225709197
1735578127880,246,-83,958,992.5567993822822,9358,-3766,13107,16539.29771785973
1735578127910,246,-83,958,992.5567993822822,9258,-3818,11582,15311.120533781974
1735578127940,246,-83,958,992.5567993822822,9186,-3887,10056,14163.84485229911
1735578127969,24,-84,965,968.9463349432723,9148,-3961,8493,13096.04802984473
1735578128000,24,-84,965,968.9463349432723,9294,-3996,6608,12083.54732684074
1735578128030,24,-84,965,968.9463349432723,9422,-3998,4724,11272.722120233426
1735578128060,24,-84,965,968.9463349432723,9525,-3971,2844,10704.33566364583
1735578128090,78,-28,961,964.5667421179314,9532,-3954,1083,10376.224216929779
1735578128120,78,-28,961,964.5667421179314,9509,-3944,-656,10315.355204742104
1735578128150,78,-28,961,964.5667421179314,9488,-3939,-2397,10549.098255301256
1735578128180,120,-110,980,993.4284070832683,9474,-3935,-4133,11059.954339869582
1735578128210,120,-110,980,993.4284070832683,9482,-3929,-5844,11810.914486186071
1735578128240,120,-110,980,993.4284070832683,9488,-3922,-7554,12746.260000486418
1735578128270,37,-72,914,917.5777896178612,9491,-3906,-9264,13825.97602341332
1735578128300,37,-72,914,917.5777896178612,9510,-3866,-11064,15092.983535404788
1735578128330,37,-72,914,917.5777896178612,9515,-3823,-12861,16448.582765697476
1735578128360,37,-72,914,917.5777896178612,9507,-3780,-14656,17873.71771624471
1735578128390,143,-19,1007,1017.2801973890969,9430,-3777,-16346,19245.320080476708
1735578128420,143,-19,1007,1017.2801973890969,9334,-3800,17999,20628.319296539892
1735578128450,143,-19,1007,1017.2801973890969,9260,-3841,16343,19172.754888121843
1735578128480,18,-101,962,967.4549085099522,9267,-3878,14619,17737.850320712485
1735578128510,18,-101,962,967.4549085099522,9377,-3881,12795,16331.023084914184
1735578128540,18,-101,962,967.4549085099522,9466,-3861,10973,14997.306624857678
1735578128570,91,-44,942,947.4075152752379,9536,-3827,9155,13762.094680679973
1735578128600,91,-44,942,947.4075152752379,9505,-3809,7421,12646.135654815664
1735578128629,91,-44,942,947.4075152752379,9475,-3799,5686,11684.974197660857
1735578128660,91,-44,942,947.4075152752379,9448,-3795,3951,10921.406960643853
1735578128690,48,-59,1000,1002.8883287784338,9446,-3778,2164,10401.110325345078
1735578128720,48,-59,1000,1002.8883287784338,9451,-3759,362,10177.550098132655
1735578128749,48,-59,1000,1002.8883287784338,9450,-3738,-1437,10263.533163584556
1735578128780,47,-104,948,954.845013601684,9430,-3725,-3221,10638.391137761386
1735578128810,47,-104,948,954.845013601684,9421,-3715,-4998,11293.204593913988
1735578128840,47,-104,948,954.845013601684,9412,-3708,-6775,12175.20566561403
1735578128870,132,-78,1000,1011.6857219512392,9416,-3703,-8554,13249.308698947278
1735578128900,132,-78,1000,1011.6857219512392,9369,-3710,-10248,14372.326360057372
1735578128930,132,-78,1000,1011.6857219512392,9333,-3726,-11942,15607.66891627318
1735578128960,132,-78,1000,1011.6857219512392,9308,-3749,-13638,16931.890296124646
1735578128990,159,16,1007,1019.600902314234,9206,-3779,-15283,18237.361815789038
1735578129020,159,16,1007,1019.600902314234,9100,-3835,-16921,19591.770364109518
1735578129050,159,16,1007,1019.600902314234,9026,-3910,17437,20020.13349106344
1735578129080,92,-83,966,973.9142672740758,9013,-3998,15766,18595.293194784535
1735578129110,92,-83,966,973.9142672740758,9098,-4071,14038,17216.622462027794
1735578129152,92,-83,966,973.9142672740758,9187,-4124,12307,15901.90535753499
1735578129170,148,-42,892,905.1695973683605,9306,-4153,10544,14663.730118902216
1735578129200,148,-42,892,905.1695973683605,9400,-4156,8784,13520.021893473398
1735578129231,148,-42,892,905.1695973683605,9476,-4140,7027,12502.515946800468
1735578129260,148,-42,892,905.1695973683605,9534,-4109,5273,11644.12152117969
1735578129290,19,-67,879,881.754500980857,9603,-4055,3480,10989.587526381507
1735578129320,19,-67,879,881.754500980857,9676,-3976,1646,10589.752971623087
1735578129350,19,-67,879,881.754500980857,9712,-3883,-179,10461.007312873842
1735578129380,134,-71,1030,1041.1037412285098,9765,-3788,-1986,10660.598716770086
1735578129410,134,-71,1030,1041.1037412285098,9774,-3695,-3719,11091.215533024322
1735578129440,134,-71,1030,1041.1037412285098,9758,-3602,-5449,11742.426027018437
1735578129470,16,3,1012,1012.1309203853027,9694,-3515,-7169,12558.79858903709
1735578129500,16,3,1012,1012.1309203853027,9571,-3441,-8995,13577.72245260596
1735578129530,16,3,1012,1012.1309203853027,9453,-3397,-10824,14766.780082333453
1735578129560,16,3,1012,1012.1309203853027,9347,-3383,-12654,16091.451581507494
1735578129590,305,-27,931,980.0586717130766,9129,-3423,-14212,17234.747285643618
1735578129620,305,-27,931,980.0586717130766,8916,-3516,-15670,18368.62030747002
1735578129650,305,-27,931,980.0586717130766,8754,-3646,-17125,19575.276677482747
1735578129680,101,-21,914,919.8032398290409,8681,-3787,17308,19729.875671174414
1735578129710,101,-21,914,919.8032398290409,8731,-3922,15569,18275.836670314166
1735578129740,101,-21,914,919.8032398290409,8806,-4039,13822,16879.18365917025
1735578129770,70,-66,1062,1066.3489110042735,8907,-4145,12058,15553.489576297661
1735578129800,70,-66,1062,1066.3489110042735,9094,-4233,10230,14327.317439074212
1735578129830,70,-66,1062,1066.3489110042735,9271,-4278,8396,13219.13541045707
1735578129860,70,-66,1062,1066.3489110042735,9428,-4285,6562,12260.026631292447
1735578129889,31,-77,1104,1107.1160734087462,9627,-4246,4649,11503.079848457977
1735578129920,31,-77,1104,1107.1160734087462,9786,-4162,2734,10980.109106926033
1735578129950,31,-77,1104,1107.1160734087462,9886,-4045,834,10714.03644757661
1735578129980,72,-79,985,990.7825190222121,9884,-3914,-1008,10678.432281941015
1735578130010,72,-79,985,990.7825190222121,9816,-3796,-2802,10891.036497964737
1735578130040,72,-79,985,990.7825190222121,9730,-3696,-4592,11376.281466278864
1735578130070,114,-88,953,963.8200039426449,9632,-3619,-6368,12100.578870450785
1735578130100,114,-88,953,963.8200039426449,9511,-3575,-8071,12976.162260082909
1735578130130,114,-88,953,963.8200039426449,9402,-3559,-9776,14022.633882405973
1735578130160,114,-88,953,963.8200039426449,9310,-3566,-11483,15206.963700883882
1735578130190,192,-16,932,951.705836905501,9177,-3602,-13133,16421.553580584266
1735578130219,192,-16,932,951.705836905501,9043,-3672,-14758,17693.445029162634
1735578130250,192,-16,932,951.705836905501,8949,-3767,-16385,19045.816207240896
1735578130280,45,1,917,918.1040246072337,8926,-3870,17911,20382.69601892743
1735578130310,45,1,917,918.1040246072337,8986,-3961,16085,18845.82027930862
1735578130340,45,1,917,918.1040246072337,9060,-4035,14253,17364.124913165073
1735578130370,118,-85,1039,1049.1282095149286,9141,-4098,12431,15965.00065768868
1735578130400,118,-85,1039,1049.1282095149286,9246,-4157,10716,14751.332855033812
1735578130429,118,-85,1039,1049.1282095149286,9347,-4194,8999,13635.91016397512
1735578130460,92,-64,972,978.4395740156875,9448,-4201,7254,12630.66193831503
1735578130490,92,-64,972,978.4395740156875,9550,-4166,5430,11749.168310991208
1735578130520,92,-64,972,978.4395740156875,9622,-4112,3612,11069.687077781377
1735578130550,92,-64,972,978.4395740156875,9664,-4043,1801,10629.315405989231
1735578130580,92,-35,945,950.1126249029638,9619,-4013,77,10422.823945553335
1735578130610,92,-35,945,950.1126249029638,9568,-3994,-1645,10497.841921080731
1735578130640,92,-35,945,950.1126249029638,9521,-3986,-3369,10857.614747263784
1735578130668,217,-95,911,941.294321665652,9488,-3987,-5101,11486.449146711964
1735578130700,217,-95,911,941.294321665652,9437,-4007,-6708,12251.950130489431
1735578130730,217,-95,911,941.294321665652,9400,-4035,-8316,13183.212089623681
1735578130761,76,-40,1000,1003.6812242938491,9393,-4075,-9935,14266.684933788929
1735578130790,76,-40,1000,1003.6812242938491,9483,-4102,-11732,15633.090449428099
1735578130820,76,-40,1000,1003.6812242938491,9564,-4110,-13529,17070.326212465887
1735578130850,76,-40,1000,1003.6812242938491,9631,-4101,-15325,18558.825043628167
1735578130880,258,-83,1003,1038.9716069267727,9556,-4110,-16942,19880.65894280167
1735578130910,258,-83,1003,1038.9716069267727,9469,-4144,17507,20330.512684140554
1735578130940,258,-83,1003,1038.9716069267727,9405,-4193,15955,18989.399648224797
1735578130970,10,-73,979,981.7688118900498,9452,-4235,14264,17627.740212517314
1735578131000,10,-73,979,981.7688118900498,9620,-4225,12361,16223.111477148888
1735578131031,10,-73,979,981.7688118900498,9753,-4180,10465,14903.343047786291
1735578131060,209,-21,948,970.9922759733983,9835,-4119,8601,13699.291478029074
1735578131091,209,-21,948,970.9922759733983,9695,-4119,7011,12653.58870044384
1735578131120,209,-21,948,970.9922759733983,9580,-4145,5417,11760.15790710312
1735578131150,209,-21,948,970.9922759733983,9491,-4192,3821,11056.762003407688
1735578131180,123,-126,1029,1043.956895661885,9565,-4222,2095,10663.18592166525
1735578131210,123,-126,1029,1043.956895661885,9678,-4223,336,10564.578032273697
1735578131238,123,-126,1029,1043.956895661885,9770,-4202,-1419,10729.551015769486
1735578131270,141,-100,1042,1056.2409762928155,9823,-4160,-3174,11129.744156987617
1735578131301,141,-100,1042,1056.2409762928155,9832,-4113,-4917,11737.200773608673
1735578131330,141,-100,1042,1056.2409762928155,9827,-4065,-6657,12546.306348882128
1735578131360,188,-95,954,976.977481828522,9805,-4027,-8383,13514.046137260299
1735578131421,188,-95,954,976.977481828522,9737,-4023,-10033,14548.360285612946
1735578131422,188,-95,954,976.977481828522,9679,-4032,-11684,15698.914644012815
1735578131451,188,-95,954,976.977481828522,9635,-4053,-13337,16945.076069466315
1735578131481,64,-62,944,948.196182232348,9666,-4077,-15111,18395.5376654231
1735578131510,64,-62,944,948.196182232348,9714,-4086,-16931,19942.817077835316
1735578131540,64,-62,944,948.196182232348,9756,-4084,17249,20233.304055442848
1735578131570,130,-150,1076,1094.1553820184772,9800,-4095,15455,18752.761130030958
1735578131599,130,-150,1076,1094.1553820184772,9858,-4109,13710,17378.956959495583
1735578131630,130,-150,1076,1094.1553820184772,9909,-4110,11966,16070.64208424791
1735578131660,92,-141,1043,1056.500828206017,9942,-4090,10216,14830.310853114306
1735578131690,92,-141,1043,1056.500828206017,9961,-4034,8416,13650.045164760444
1735578131720,92,-141,1043,1056.500828206017,9960,-3976,6620,12602.959017627567
1735578131750,92,-141,1043,1056.500828206017,9944,-3918,4828,11727.891711641952
1735578131779,18,-128,972,980.5569845756033,9899,-3878,3046,11059.258609870736
1735578131810,18,-128,972,980.5569845756033,9862,-3843,1238,10656.469255808886
1735578131840,18,-128,972,980.5569845756033,9823,-3816,-567,10553.420014383963
1735578131870,145,-62,960,972.8663834258022,9744,-3807,-2332,10718.069275760443
1735578131900,145,-62,960,972.8663834258022,9599,-3842,-4011,11090.080522701357
1735578131930,145,-62,960,972.8663834258022,9488,-3905,-5693,11733.77253912824
1735578131960,128,-100,1018,1030.8772962870023,9427,-3993,-7383,12622.244927111817
1735578131990,128,-100,1018,1030.8772962870023,9467,-4088,-9105,13756.338829790433
1735578132020,128,-100,1018,1030.8772962870023,9524,-4171,-10833,15015.249115482568
1735578132050,128,-100,1018,1030.8772962870023,9593,-4242,-12567,16369.169251980993
1735578132080,34,-89,1013,1017.470392689635,9702,-4273,-14387,17871.012897986504
1735578132110,34,-89,1013,1017.470392689635,9816,-4273,-16242,19452.890505012358
1735578132140,34,-89,1013,1017.470392689635,9908,-4250,17905,20900.23896992568
1735578132170,99,-96,979,988.6647561231259,9969,-4209,16068,19372.07438556852
1735578132200,99,-96,979,988.6647561231259,9986,-4165,14276,17912.88913045576
1735578132230,99,-96,979,988.6647561231259,9987,-4119,12489,16513.069096930467
1735578132261,136,-43,1011,1021.0122428257166,9965,-4080,10719,15193.570548096981
1735578132290,136,-43,1011,1021.0122428257166,9852,-4077,9019,13965.177907925126
1735578132320,136,-43,1011,1021.0122428257166,9760,-4097,7317,12867.847450137106
1735578132350,136,-43,1011,1021.0122428257166,9689,-4134,5611,11935.24184924629
1735578132380,130,-134,995,1012.3640649489688,9724,-4158,3858,11257.411070046257
1735578132410,130,-134,995,1012.3640649489688,9782,-4167,2102,10838.34936694698
1735578132440,130,-134,995,1012.3640649489688,9832,-4165,346,10683.4060579948
1735578132470,183,-115,1024,1046.5610350094255,9857,-4163,-1381,10788.798774655128
1735578132499,183,-115,1024,1046.5610350094255,9846,-4172,-3065,11124.006697229195
1735578132530,183,-115,1024,1046.5610350094255,9839,-4183,-4751,11699.376521849359
1735578132560,134,-68,987,998.3731767230128,9823,-4198,-6413,12459.578724820514
1735578132590,134,-68,987,998.3731767230128,9788,-4220,-8085,13378.361969987207
1735578132620,134,-68,987,998.3731767230128,9765,-4249,-9758,14443.953406183502
1735578132650,134,-68,987,998.3731767230128,9753,-4281,-11433,15625.666673777474
1735578132680,52,-138,974,985.1010100492233,9850,-4276,-13264,17065.766083009577
1735578132710,52,-138,974,985.1010100492233,9961,-4238,-15121,18596.419171442656
1735578132740,52,-138,974,985.1010100492233,10039,-4177,-16970,20154.645866400133
1735578132770,201,-72,1018,1040.1485470835403,10059,-4119,17228,20370.410550600103
1735578132800,201,-72,1018,1040.1485470835403,9977,-4093,15533,18909.449145863557
1735578132830,201,-72,1018,1040.1485470835403,9904,-4084,13838,17500.243312594255
1735578132861,103,-85,989,997.9754505998632,9827,-4087,12159,16159.04635181173
1735578132890,103,-85,989,997.9754505998632,9812,-4080,10406,14873.015161694686
1735578132921,103,-85,989,997.9754505998632,9798,-4076,8653,13692.661866854085
1735578132950,103,-85,989,997.9754505998632,9786,-4075,6899,12647.830723092398
1735578132980,33,-102,933,939.1389673525425,9787,-4063,5178,11794.279206462767
1735578133010,33,-102,933,939.1389673525425,9802,-4044,3432,11145.033153831351
1735578133041,33,-102,933,939.1389673525425,9810,-4023,1688,10736.385471842934
1735578133070,222,-117,850,886.2691464786529,9775,-4028,9,10572.39282281925
1735578133101,222,-117,850,886.2691464786529,9679,-4077,-1534,10614.053231447448
1735578133130,222,-117,850,886.2691464786529,9610,-4143,-3081,10909.129662809954
1735578133161,141,-85,1088,1100.3862958070679,9621,-4224,-4683,11503.751822775037
1735578133190,141,-85,1088,1100.3862958070679,9782,-4281,-6487,12493.824634594484
1735578133220,141,-85,1088,1100.3862958070679,9930,-4305,-8294,13635.555030874248
1735578133250,141,-85,1088,1100.3862958070679,10056,-4297,-10100,14886.146076134011
1735578133280,85,-115,1019,1028.9854226372695,10133,-4220,-11977,16246.064692718664
1735578133310,85,-115,1019,1028.9854226372695,10190,-4119,-13863,17691.38293068125
1735578133340,85,-115,1019,1028.9854226372695,10207,-4008,-15737,19180.72162354691
1735578133370,100,-133,1063,1075.945165889043,10173,-3909,-17567,20672.921878631478
1735578133400,100,-133,1063,1075.945165889043,10116,-3826,16633,19840.071093622624
1735578133430,100,-133,1063,1075.945165889043,10049,-3758,14836,18308.791904437607
1735578133460,147,-126,981,999.9229970352717,9961,-3706,13062,16839.59028598974
1735578133490,147,-126,981,999.9229970352717,9815,-3694,11378,15473.808354765159
1735578133520,147,-126,981,999.9229970352717,9694,-3711,9692,14201.409120224655
1735578133550,147,-126,981,999.9229970352717,9599,-3754,8004,13049.802029149714
1735578133580,59,-113,925,933.7424698491549,9567,-3826,6253,12052.625191218716
1735578133610,59,-113,925,933.7424698491549,9573,-3897,4466,11259.400250457393
1735578133640,59,-113,925,933.7424698491549,9596,-3965,2675,10721.94320074491
1735578133670,108,-85,1028,1037.1465663058427,9655,-4032,878,10499.853951365229
1735578133700,108,-85,1028,1037.1465663058427,9704,-4095,-896,10570.68857738227
1735578133730,108,-85,1028,1037.1465663058427,9761,-4147,-2674,10937.321701403867
1735578133760,247,-54,993,1024.682389816474,9811,-4190,-4450,11559.166103140831
1735578133790,247,-54,993,1024.682389816474,9723,-4270,-6058,12225.751224362451
1735578133820,247,-54,993,1024.682389816474,9668,-4365,-7671,13090.74825974436
1735578133850,247,-54,993,1024.682389816474,9645,-4469,-9290,14117.43907371305
1735578133880,148,-98,1006,1021.5400139005814,9734,-4565,-11003,15383.627335579864
1735578133910,148,-98,1006,1021.5400139005814,9868,-4630,-12764,16784.934316225368
1735578133940,148,-98,1006,1021.5400139005814,9996,-4670,-14530,18244.172110567255
1735578133970,151,-134,938,959.4795464208709,10116,-4674,-16307,19750.898232738684
1735578134000,151,-134,938,959.4795464208709,10229,-4648,17915,21146.71534777919
1735578134030,151,-134,938,959.4795464208709,10313,-4601,16146,19703.311549077225
1735578134060,203,-182,981,1018.1817126623322,10357,-4550,14405,18315.94862408169
1735578134090,203,-182,981,1018.1817126623322,10363,-4530,12769,17057.550527552306
1735578134120,203,-182,981,1018.1817126623322,10364,-4508,11135,15865.774012004584
1735578134150,203,-182,981,1018.1817126623322,10359,-4486,9504,14756.66266470844
1735578134180,108,-108,995,1006.6543597481709,10438,-4428,7711,13711.985596550196
1735578134210,108,-108,995,1006.6543597481709,10486,-4346,5892,12789.041246317098
1735578134240,108,-108,995,1006.6543597481709,10501,-4256,4083,12043.895798287198
1735578134270,156,-120,967,986.8257191622034,10456,-4170,2317,11492.83798719881
1735578134300,156,-120,967,986.8257191622034,10374,-4105,597,11172.614286728061
1735578134330,156,-120,967,986.8257191622034,10290,-4058,-1121,11117.918195417702
1735578134360,91,-121,931,943.2300885786034,10205,-4035,-2822,11330.795823771603
1735578134390,91,-121,931,943.2300885786034,10162,-4026,-4560,11843.50117152863
1735578134420,91,-121,931,943.2300885786034,10126,-4027,-6298,12586.397776965418
1735578134450,116,-205,972,1000.132491223038,10112,-4033,-8066,13549.095504866737
1735578134481,116,-205,972,1000.132491223038,10182,-4030,-9866,14739.470139730262
1735578134510,116,-205,972,1000.132491223038,10238,-4011,-11664,16029.774203026067
1735578134540,116,-205,972,1000.132491223038,10278,-3981,-13459,17396.273336551138
1735578134570,215,-161,953,990.1287795029493,10196,-3977,-15140,18681.395691971196
1735578134600,215,-161,953,990.1287795029493,10099,-4002,-16788,19996.068338550955
1735578134630,215,-161,953,990.1287795029493,10025,-4046,17561,20621.820045767057
1735578134660,30,-139,1024,1033.8263877460276,9981,-4105,15912,19226.625548962045
1735578134720,30,-139,1024,1033.8263877460276,10077,-4124,14064,17786.21379046142
1735578134721,30,-139,1024,1033.8263877460276,10160,-4123,12218,16416.584693534765
1735578134750,215,-197,942,986.1024287567697,10222,-4107,10366,15126.489645651433
1735578134780,215,-197,942,986.1024287567697,10189,-4133,8702,14022.204320291443
1735578134810,215,-197,942,986.1024287567697,10168,-4165,7036,13047.633693509333
1735578134840,215,-197,942,986.1024287567697,10158,-4200,5367,12232.320017069535
1735578134870,146,-116,975,992.6716476257393,10150,-4236,3669,11594.298469506466
1735578134900,146,-116,975,992.6716476257393,10146,-4270,1942,11177.905886166693
1735578134930,146,-116,975,992.6716476257393,10152,-4305,212,11029.101187313498
1735578134960,158,-199,992,1024.0258785792475,10181,-4344,-1507,11171.13002341303
1735578134991,158,-199,992,1024.0258785792475,10250,-4375,-3218,11599.941767095212
1735578135020,158,-199,992,1024.0258785792475,10315,-4392,-4930,12247.19514827783
1735578135050,84,-182,1019,1038.5282856042006,10392,-4405,-6660,13105.4679046572
1735578135080,84,-182,1019,1038.5282856042006,10537,-4394,-8509,14238.633572081277
1735578135110,84,-182,1019,1038.5282856042006,10649,-4353,-10352,15476.230613427806
1735578135140,84,-182,1019,1038.5282856042006,10728,-4289,-12186,16792.38223123807
1735578135171,68,-144,1000,1012.6006122850213,10744,-4253,-14020,18168.157446477613
1735578135200,68,-144,1000,1012.6006122850213,10740,-4213,-15856,19608.919016610784
1735578135231,68,-144,1000,1012.6006122850213,10726,-4174,-17689,21103.792858157038
1735578135260,177,-249,995,1040.8434080110226,10708,-4164,16515,20118.284842401452
1735578135290,177,-249,995,1040.8434080110226,10704,-4182,14793,18732.260648410804
1735578135320,177,-249,995,1040.8434080110226,10705,-4202,13071,17409.90723697286
1735578135350,159,-332,1000,1065.6007695192416,10700,-4220,11350,16159.235749254975
1735578135380,159,-332,1000,1065.6007695192416,10760,-4225,9617,15037.117875444084
1735578135410,159,-332,1000,1065.6007695192416,10810,-4217,7884,14028.42275524943
1735578135440,159,-332,1000,1065.6007695192416,10848,-4199,6154,13159.87921677095
1735578135470,278,-321,909,1003.297563039002,10855,-4188,4467,12462.923332830063
1735578135500,278,-321,909,1003.297563039002,10833,-4194,2823,11954.616430484082
1735578135530,278,-321,909,1003.297563039002,10816,-4204,1178,11663.925411284145
1735578135590,154,-208,976,1009.7306571556595,10775,-4218,-464,11580.476890007596
1735578135590,154,-208,976,1009.7306571556595,10726,-4225,-2175,11731.50996248991
1735578135620,154,-208,976,1009.7306571556595,10687,-4243,-3887,12137.701059096817
1735578135650,149,-326,1005,1067.006091828908,10663,-4268,-5617,12785.385484998096
1735578135680,149,-326,1005,1067.006091828908,10755,-4280,-7384,13729.962891428368
1735578135710,149,-326,1005,1067.006091828908,10834,-4274,-9150,14810.980116116556
1735578135740,149,-326,1005,1067.006091828908,10895,-4251,-10912,15995.11706740529
1735578135770,173,-254,954,1002.2779055731,10928,-4213,-12678,17259.84464008874
1735578135800,173,-254,954,1002.2779055731,10921,-4177,-14431,18573.350020930528
1735578135830,173,-254,954,1002.2779055731,10906,-4141,-16182,19948.57992439562
1735578135860,114,-278,1003,1047.0382036965032,10890,-4098,-17942,21384.598850574683
1735578135890,114,-278,1003,1047.0382036965032,10894,-4039,16264,19987.757578077635
1735578135920,114,-278,1003,1047.0382036965032,10880,-3978,14475,18539.808763846515
1735578135950,100,-250,963,999.9344978547344,10842,-3917,12695,17148.028399789873
1735578135980,100,-250,963,999.9344978547344,10760,-3860,10909,15801.375921102566
1735578136010,100,-250,963,999.9344978547344,10679,-3821,9125,14557.015731254809
1735578136040,100,-250,963,999.9344978547344,10603,-3799,7340,13443.645710892562
1735578136070,107,-277,977,1021.130256137776,10555,-3801,5577,12528.310141435675
1735578136100,107,-277,977,1021.130256137776,10521,-3812,3815,11822.732763621108
