Timestamp,Acc_X,Acc_Y,Acc_Z,Acc_Betrag,Ori_X,Ori_Y,Ori_Z,Ori_Betrag
1735576591156,129,-159,948,969.8587526026664,10023,-4125,-9074,14135.544913444264
1735576591156,129,-159,948,969.8587526026664,10046,-4044,-10802,15295.72672350026
1735576591167,129,-159,948,969.8587526026664,10043,-3960,-12525,16535.388534896905
1735576591196,51,-102,914,921.0868580106873,10014,-3885,-14220,17820.825485930778
1735576591227,51,-102,914,921.0868580106873,9963,-3820,-15952,19191.666759299464
1735576591258,51,-102,914,921.0868580106873,9906,-3767,-17683,20615.712793886123
1735576591288,51,-102,914,921.0868580106873,9846,-3727,16587,19645.93632281241
1735576591317,110,51,960,967.6264775211558,9718,-3724,14854,18136.951673310487
1735576591347,110,51,960,967.6264775211558,9566,-3764,13140,16683.394498722373
1735576591377,110,51,960,967.6264775211558,9450,-3835,11423,15313.218277031121
1735576591407,33,-172,1018,1032.9554685464423,9445,-3907,9633,14045.1900307543
1735576591437,33,-172,1018,1032.9554685464423,9599,-3936,7765,12958.70834612771
1735576591467,33,-172,1018,1032.9554685464423,9732,-3929,5899,12039.396413441997
1735576591497,165,-200,981,1014.6851728491946,9816,-3905,4069,11320.76154682184
1735576591527,165,-200,981,1014.6851728491946,9786,-3918,2450,10822.154129377386
1735576591557,165,-200,981,1014.6851728491946,9764,-3936,830,10560.146400500327
1735576591587,165,-200,981,1014.6851728491946,9750,-3958,-791,10552.437869990043
1735576591617,92,-78,998,1005.2621548630984,9801,-3945,-2557,10870.182841148533
1735576591646,92,-78,998,1005.2621548630984,9824,-3924,-4348,11437.388513117843
1735576591677,92,-78,998,1005.2621548630984,9836,-3898,-6136,12230.772502176631
1735576591707,24,4,957,957.3092499291961,9813,-3867,-7919,13189.36006787289
1735576591738,24,4,957,957.3092499291961,9762,-3841,-9734,14310.858849139699
1735576591767,24,4,957,957.3092499291961,9715,-3826,-11549,15569.16510285635
1735576591797,286,-25,998,1038.4724358402586,9678,-3829,-13366,16940.3329660311
1735576591827,286,-25,998,1038.4724358402586,9522,-3900,-14902,18109.337039218193
1735576591857,286,-25,998,1038.4724358402586,9408,-3998,-16440,19358.927346317512
1735576591887,286,-25,998,1038.4724358402586,9333,-4115,-17981,20672.553664218653
1735576591917,139,-223,1013,1046.5271138389105,9371,-4210,16416,19365.55697624006
1735576591947,139,-223,1013,1046.5271138389105,9507,-4274,14751,18062.17390017049
1735576591977,139,-223,1013,1046.5271138389105,9635,-4310,13084,16810.7222034034
1735576592007,229,-223,966,1017.5097051134205,9726,-4329,11445,15630.845850433047
1735576592037,229,-223,966,1017.5097051134205,9763,-4345,9874,14549.607211193023
1735576592067,229,-223,966,1017.5097051134205,9797,-4355,8303,13560.49567678114
1735576592097,90,-85,1026,1033.4413384416166,9850,-4355,6719,12693.836535894103
1735576592126,90,-85,1026,1033.4413384416166,9924,-4317,4951,11901.036341428422
1735576592157,90,-85,1026,1033.4413384416166,9973,-4265,3189,11305.780601090753
1735576592187,90,-85,1026,1033.4413384416166,9999,-4204,1432,10940.943332272587
1735576592218,13,-42,990,990.9757817424198,10032,-4131,-375,10855.727059943982
1735576592247,13,-42,990,990.9757817424198,10043,-4048,-2204,11050.147917562008
1735576592277,13,-42,990,990.9757817424198,10029,-3963,-4026,11510.642293112925
1735576592307,-4,-95,1024,1028.405075833448,10022,-3872,-5873,12244.386346403808
1735576592337,-4,-95,1024,1028.405075833448,10027,-3770,-7739,13215.360381011182
1735576592367,-4,-95,1024,1028.405075833448,10003,-3669,-9597,14339.59479901716
1735576592397,116,-92,932,943.6863885846823,9940,-3581,-11431,15565.825451931549
1735576592427,116,-92,932,943.6863885846823,9774,-3553,-13102,16727.740104389475
1735576592457,116,-92,932,943.6863885846823,9632,-3560,-14776,17993.86562137219
1735576592487,116,-92,932,943.6863885846823,9518,-3596,-16452,19344.03897845535
1735576592517,41,-61,975,977.7663320037155,9476,-3643,17751,20449.059293767037
1735576592547,41,-61,975,977.7663320037155,9461,-3695,15925,18888.334256889884
1735576592578,41,-61,975,977.7663320037155,9462,-3748,14097,17386.84436578415
1735576592607,88,-170,1033,1050.5869787885247,9483,-3796,12295,15984.490295283113
1735576592637,88,-170,1033,1050.5869787885247,9544,-3832,10533,14721.285575655409
1735576592667,88,-170,1033,1050.5869787885247,9602,-3854,8769,13562.70920575974
1735576592697,198,-98,921,947.1267074684358,9659,-3869,7008,12545.019170969808
1735576592727,198,-98,921,947.1267074684358,9587,-3913,5373,11665.816173761697
1735576592757,198,-98,921,947.1267074684358,9539,-3971,3735,10986.88249686871
1735576592787,198,-98,921,947.1267074684358,9513,-4036,2095,10543.978850509897
1735576592817,28,-91,1117,1121.0504002942955,9604,-4069,291,10434.474495632256
1735576592848,28,-91,1117,1121.0504002942955,9720,-4068,-1574,10653.84906970246
1735576592878,28,-91,1117,1121.0504002942955,9813,-4041,-3437,11155.161092516773
1735576592907,170,-101,1000,1019.3630364104831,9858,-4003,-5235,11857.883369303308
1735576592937,170,-101,1000,1019.3630364104831,9835,-3979,-6924,12668.916370392537
1735576592967,170,-101,1000,1019.3630364104831,9811,-3960,-8613,13642.620349478322
1735576592997,-22,-138,1018,1027.5465926175805,9784,-3940,-10324,14759.24225697241
1735576593027,-22,-138,1018,1027.5465926175805,9899,-3865,-12287,16244.962142153487
1735576593057,-22,-138,1018,1027.5465926175805,9967,-3766,-14238,17783.264295398636
1735576593086,-22,-138,1018,1027.5465926175805,9991,-3654,-16180,19363.99227948617
1735576593117,134,-120,1097,1111.6496750325616,9923,-3591,-17932,20806.67763003022
1735576593147,134,-120,1097,1111.6496750325616,9823,-3559,16368,19418.27062330732
1735576593177,134,-120,1097,1111.6496750325616,9733,-3549,14667,17956.82541542352
1735576593208,304,-63,987,1034.6757946332755,9571,-3579,13076,16595.031123803292
1735576593238,304,-63,987,1034.6757946332755,9335,-3674,11631,15359.709046723508
1735576593267,304,-63,987,1034.6757946332755,9155,-3810,10187,14216.367116812931
1735576593297,33,-82,1021,1024.8190084107534,9042,-3967,8718,13171.878263937911
1735576593328,33,-82,1021,1024.8190084107534,9206,-4086,6882,12198.678453012852
1735576593358,33,-82,1021,1024.8190084107534,9374,-4166,5038,11428.424038335295
1735576593387,33,-82,1021,1024.8190084107534,9533,-4208,3189,10897.480167451557
1735576593417,207,-59,957,980.9072331265583,9529,-4267,1540,10553.706931689927
1735576593447,207,-59,957,980.9072331265583,9494,-4341,-46,10439.465168292867
1735576593477,207,-59,957,980.9072331265583,9483,-4420,-1637,10589.780828704625
1735576593507,164,-69,1000,1015.705173758606,9548,-4486,-3312,11057.02690599964
1735576593537,164,-69,1000,1015.705173758606,9664,-4522,-5057,11807.397215305327
1735576593567,164,-69,1000,1015.705173758606,9768,-4536,-6803,12738.521460514952
1735576593597,176,-133,1051,1073.9022301867149,9869,-4533,-8550,13822.002387497985
1735576593627,176,-133,1051,1073.9022301867149,10013,-4509,-10284,15044.99604519722
1735576593657,176,-133,1051,1073.9022301867149,10124,-4458,-12010,16328.173198493456
1735576593687,176,-133,1051,1073.9022301867149,10199,-4386,-13729,17656.218111475628
1735576593717,195,-135,1026,1053.0555540900964,10212,-4319,-15354,18938.9551190133
1735576593747,195,-135,1026,1053.0555540900964,10203,-4250,-16966,20248.675635705167
1735576593778,195,-135,1026,1053.0555540900964,10179,-4184,17423,20607.73704218879
1735576593807,67,-157,926,941.601826676223,10154,-4101,15761,19191.952428036082
1735576593838,67,-157,926,941.601826676223,10163,-3991,14007,17759.805714027392
1735576593867,67,-157,926,941.601826676223,10141,-3880,12261,16377.618935608436
1735576593897,175,-5,940,956.164211838113,10090,-3786,10526,15064.480475608842
1735576593927,175,-5,940,956.164211838113,9833,-3770,8917,13799.046271391368
1735576593957,175,-5,940,956.164211838113,9619,-3806,7305,12663.878631762072
1735576593987,175,-5,940,956.164211838113,9451,-3882,5689,11694.274068962126
1735576594017,209,-74,985,1009.6444918881101,9417,-3984,4029,10990.222290745533
1735576594047,209,-74,985,1009.6444918881101,9422,-4087,2376,10541.49083384319
1735576594077,209,-74,985,1009.6444918881101,9452,-4188,718,10363.164188605717
1735576594108,99,-162,1061,1077.8524945464476,9538,-4268,-965,10493.8311878932
1735576594137,99,-162,1061,1077.8524945464476,9718,-4303,-2726,10972.074051882808
1735576594167,99,-162,1061,1077.8524945464476,9874,-4301,-4487,11667.375283241729
1735576594197,203,-160,1114,1143.5930220143878,10012,-4266,-6259,12554.440688457611
1735576594227,203,-160,1114,1143.5930220143878,10061,-4224,-7936,13492.442069543971
1735576594257,203,-160,1114,1143.5930220143878,10090,-4172,-9610,14545.301096917863
1735576594287,153,-223,1133,1164.829172024808,10063,-4120,-11243,15641.081100742365
1735576594317,153,-223,1133,1164.829172024808,10042,-4070,-12857,16813.955899787532
1735576594347,153,-223,1133,1164.829172024808,10014,-4024,-14470,18051.417451269583
1735576594377,153,-223,1133,1164.829172024808,9980,-3984,-16081,19340.92078986934
1735576594407,214,-10,956,979.7101612211644,9838,-3939,-17755,20677.088528126973
1735576594437,214,-10,956,979.7101612211644,9648,-3943,16588,19590.632889215194
1735576594468,214,-10,956,979.7101612211644,9493,-3984,14929,18134.617338118827
1735576594497,103,-18,950,955.7368884792509,9385,-4059,13286,16765.187204442424
1735576594527,103,-18,950,955.7368884792509,9414,-4144,11550,15466.047717500422
1735576594557,103,-18,950,955.7368884792509,9460,-4220,9807,14264.54517326087
1735576594587,17,-75,1081,1083.7319779355041,9550,-4281,8020,13185.21372598867
1735576594617,17,-75,1081,1083.7319779355041,9806,-4278,6055,12293.166597748523
1735576594647,17,-75,1081,1083.7319779355041,10008,-4219,4100,11609.049272011898
1735576594677,17,-75,1081,1083.7319779355041,10151,-4116,2160,11164.670035428722
1735576594707,144,-158,967,990.3479186629313,10118,-4023,392,10895.509028953167
1735576594737,144,-158,967,990.3479186629313,10065,-3947,-1324,10892.015883205459
1735576594767,144,-158,967,990.3479186629313,10003,-3882,-3040,11152.198572478881
1735576594797,11,-197,1034,1052.656639175377,9935,-3830,-4751,11659.550848982133
1735576594828,11,-197,1034,1052.656639175377,9975,-3754,-6594,12532.91574215673
1735576594857,11,-197,1034,1052.656639175377,9986,-3670,-8431,13574.640216226728
1735576594887,172,-140,962,987.2324954133145,9983,-3583,-10262,14758.279777806085
1735576594917,172,-140,962,987.2324954133145,9845,-3537,-11924,15862.413750750546
1735576594947,172,-140,962,987.2324954133145,9723,-3520,-13588,17075.153674271867
1735576594977,172,-140,962,987.2324954133145,9619,-3530,-15254,18375.81500233391
1735576595007,102,-70,962,969.9216463199489,9514,-3584,-16907,19728.352718866317
1735576595037,102,-70,962,969.9216463199489,9436,-3658,17411,20138.569487428842
1735576595067,102,-70,962,969.9216463199489,9389,-3746,15728,18696.411981981997
1735576595097,108,-44,969,975.992315543519,9372,-3830,14014,17288.5939277895
1735576595127,108,-44,969,975.992315543519,9367,-3913,12285,15936.545516516433
1735576595156,108,-44,969,975.992315543519,9383,-3994,10551,14673.660961055357
1735576595187,-13,-66,876,878.5789662858997,9402,-4072,8811,13513.419589430352
1735576595217,-13,-66,876,878.5789662858997,9510,-4128,6929,12469.624092168937
1735576595247,-13,-66,876,878.5789662858997,9614,-4159,5044,11626.186520093337
1735576595277,-13,-66,876,878.5789662858997,9707,-4167,3158,11025.547696146437
1735576595307,21,-108,1046,1051.770412209813,9873,-4152,1296,10788.644446824634
1735576595337,21,-108,1046,1051.770412209813,10006,-4103,-546,10828.331404237682
1735576595367,21,-108,1046,1051.770412209813,10098,-4026,-2379,11128.248784063017
1735576595397,66,-91,913,919.8945591751263,10070,-3938,-4145,11579.886398406506
1735576595427,66,-91,913,919.8945591751263,9971,-3872,-5855,12194.025176290232
1735576595457,66,-91,913,919.8945591751263,9874,-3828,-7565,13014.556657835103
1735576595487,11,-44,984,985.0446690379072,9799,-3801,-9291,14028.21025647962
1735576595517,11,-44,984,985.0446690379072,9748,-3772,-11104,15249.60012590494
1735576595548,11,-44,984,985.0446690379072,9699,-3756,-12917,16583.938796317358
1735576595577,11,-44,984,985.0446690379072,9656,-3751,-14730,18007.81044435997
1735576595607,-75,-57,1027,1031.3113012083209,9709,-3751,-16634,19622.044694679502
1735576595637,-75,-57,1027,1031.3113012083209,9770,-3731,17432,20328.499329758703
1735576595667,-75,-57,1027,1031.3113012083209,9813,-3697,15503,18716.457650955213
1735576595697,81,-49,934,938.7853854848828,9761,-3674,13671,17195.105059289403
1735576595727,81,-49,934,938.7853854848828,9635,-3697,11965,15800.704383033055
1735576595757,81,-49,934,938.7853854848828,9537,-3745,10257,14497.773725644915
1735576595787,129,-148,978,997.5114034435898,9467,-3810,8540,13306.832417972355
1735576595818,129,-148,978,997.5114034435898,9471,-3877,6858,12319.218075835819
1735576595847,129,-148,978,997.5114034435898,9490,-3942,5172,11504.305628763519
1735576595877,129,-148,978,997.5114034435898,9522,-4001,3483,10899.897889429974
1735576595907,66,-105,850,859.0,9595,-4028,1685,10541.728226434221
1735576595937,66,-105,850,859.0,9663,-4037,-135,10473.259425794819
1735576595967,66,-105,850,859.0,9720,-4030,-1955,10702.398095754053
1735576595997,46,-14,1014,1015.1393992945009,9797,-4028,-3784,11248.317607535804
1735576596027,46,-14,1014,1015.1393992945009,9845,-4021,-5628,12031.909657240616
1735576596057,46,-14,1014,1015.1393992945009,9882,-4004,-7470,13018.711149725998
1735576596087,140,-160,988,1010.6156539456531,9903,-3973,-9316,14164.815353544147
1735576596117,140,-160,988,1010.6156539456531,9960,-3928,-11068,15399.071660330697
1735576596147,140,-160,988,1010.6156539456531,9995,-3872,-12816,16707.551137135568
1735576596177,140,-160,988,1010.6156539456531,10009,-3810,-14559,18073.756167437914
1735576596207,65,-171,979,995.9452796213254,9981,-3747,-16280,19460.184223177333
1735576596237,65,-171,979,995.9452796213254,9959,-3682,17974,20875.906710847317
1735576596268,65,-171,979,995.9452796213254,9924,-3624,16231,19366.58237790034
1735576596298,90,-140,979,993.046323189407,9867,-3562,14454,17859.553437866245
1735576596327,90,-140,979,993.046323189407,9778,-3513,12670,16385.339575364313
1735576596357,90,-140,979,993.046323189407,9695,-3486,10887,14989.062345590533
1735576596387,-13,-79,917,920.4884572877598,9619,-3486,9125,13709.2298106057
1735576596417,-13,-79,917,920.4884572877598,9565,-3504,7301,12532.830566157032
1735576596447,-13,-79,917,920.4884572877598,9526,-3535,5475,11541.946369655336
1735576596477,-13,-79,917,920.4884572877598,9502,-3573,3648,10787.13293697635
1735576596508,151,4,1041,1051.9020866981868,9378,-3654,1959,10253.59844152286
1735576596538,151,4,1041,1051.9020866981868,9245,-3774,326,9990.964768229342
1735576596568,151,4,1041,1051.9020866981868,9161,-3917,-1310,10049.025325871162
1735576596597,256,-137,1009,1049.9457128823376,9133,-4072,-2904,10412.784882057249
1735576596627,256,-137,1009,1049.9457128823376,9165,-4226,-4421,11018.236791792051
1735576596657,256,-137,1009,1049.9457128823376,9225,-4369,-5944,11811.855146419633
1735576596686,143,-105,1020,1035.3134790970319,9309,-4499,-7492,12768.26323350204
1735576596717,143,-105,1020,1035.3134790970319,9482,-4593,-9221,14001.100456749818
1735576596747,143,-105,1020,1035.3134790970319,9649,-4653,-10958,15324.208756082644
1735576596777,143,-105,1020,1035.3134790970319,9803,-4680,-12699,16711.248008452272
1735576596807,90,-103,1039,1047.96469406178,10016,-4651,-14511,18235.16322932153
1735576596837,90,-103,1039,1047.96469406178,10191,-4576,-16331,19786.303798334848
1735576596867,90,-103,1039,1047.96469406178,10309,-4467,17864,21103.366224372832
1735576596897,20,-118,913,920.8110555374539,10379,-4317,16050,19594.964404152408
1735576596927,20,-118,913,920.8110555374539,10422,-4131,14203,18094.431574382215
1735576596957,20,-118,913,920.8110555374539,10402,-3938,12375,16638.81224727294
1735576596987,174,-100,924,945.5432301063764,10334,-3761,10568,15251.862214169127
1735576597017,174,-100,924,945.5432301063764,10135,-3664,8943,14004.29826874592
1735576597047,174,-100,924,945.5432301063764,9952,-3608,7314,12866.800845587064
1735576597077,174,-100,924,945.5432301063764,9790,-3590,5682,11875.071536626632
1735576597107,173,-80,1032,1049.4536673908,9664,-3609,4051,11082.79648825151
1735576597137,173,-80,1032,1049.4536673908,9560,-3655,2418,10516.62250915188
1735576597167,173,-80,1032,1049.4536673908,9485,-3721,784,10218.890448576107
1735576597197,255,-83,937,974.6194128992096,9406,-3803,-818,10178.642787719786
1735576597226,255,-83,937,974.6194128992096,9320,-3907,-2360,10377.699600585864
1735576597257,255,-83,937,974.6194128992096,9269,-4025,-3904,10833.106756604959
1735576597287,144,-94,975,990.0489886869235,9265,-4149,-5476,11534.34011983347
1735576597317,144,-94,975,990.0489886869235,9401,-4248,-7230,12597.507888467464
1735576597347,144,-94,975,990.0489886869235,9540,-4316,-8991,13801.359969220424
1735576597377,144,-94,975,990.0489886869235,9672,-4355,-10757,15107.17240253781
1735576597407,174,-78,919,938.5739182397942,9722,-4386,-12435,16382.41450458387
1735576597437,174,-78,919,938.5739182397942,9760,-4410,-14102,17707.967246411994
1735576597467,174,-78,919,938.5739182397942,9798,-4427,-15770,19086.435838050016
1735576597497,254,-82,929,966.582122739708,9822,-4429,-17445,20504.042284388706
1735576597527,254,-82,929,966.582122739708,9809,-4432,16925,20057.784773000232
1735576597557,254,-82,929,966.582122739708,9800,-4437,15295,18699.30463947791
1735576597587,125,-36,1075,1082.8416320034985,9818,-4446,13648,17390.45554319955
1735576597617,125,-36,1075,1082.8416320034985,9939,-4422,11816,16060.99813212118
1735576597647,125,-36,1075,1082.8416320034985,10030,-4375,9991,14817.611345962614
1735576597677,125,-36,1075,1082.8416320034985,10089,-4310,8174,13681.31196194283
1735576597707,11,-73,1097,1099.481241313375,10116,-4227,6369,12679.319618970098
1735576597737,11,-73,1097,1099.481241313375,10146,-4125,4531,11852.71707246908
1735576597767,11,-73,1097,1099.481241313375,10141,-4019,2703,11238.2583615078
1735576597797,118,-80,938,948.7718376933414,10079,-3921,925,10854.312829470136
1735576597827,118,-80,938,948.7718376933414,9963,-3857,-772,10711.38655823792
1735576597857,118,-80,938,948.7718376933414,9853,-3817,-2470,10851.359269695202
1735576597887,142,-101,923,939.3050622667803,9752,-3803,-4168,11266.611602429542
1735576597917,142,-101,923,939.3050622667803,9664,-3820,-5837,11918.719100641645
1735576597947,142,-101,923,939.3050622667803,9597,-3855,-7508,12780.19945071281
1735576597977,142,-101,923,939.3050622667803,9549,-3902,-9181,13809.408604281358
1735576598008,24,-171,932,947.8612767699713,9620,-3928,-10963,15104.99761668303
1735576598037,24,-171,932,947.8612767699713,9724,-3924,-12786,16535.892718568295
1735576598067,24,-171,932,947.8612767699713,9807,-3898,-14607,18020.435677308138
1735576598097,171,-69,1028,1044.4070087853681,9824,-3874,-16382,19490.735645429086
1735576598127,171,-69,1028,1044.4070087853681,9732,-3886,17941,20777.206284772743
1735576598157,171,-69,1028,1044.4070087853681,9660,-3916,16263,19316.72397172978
1735576598187,60,-87,1070,1075.2064917958783,9590,-3966,14599,17911.673763219336
1735576598217,60,-87,1070,1075.2064917958783,9600,-4020,12839,16527.562463956987
1735576598247,60,-87,1070,1075.2064917958783,9623,-4071,11075,15225.990772360266
1735576598277,74,-116,982,991.5926583027932,9663,-4109,9304,14029.321651455568
1735576598307,74,-116,982,991.5926583027932,9732,-4121,7540,12982.529221996767
1735576598337,74,-116,982,991.5926583027932,9791,-4119,5777,12091.46686717538
1735576598367,74,-116,982,991.5926583027932,9838,-4105,4015,11391.114695235054
1735576598396,107,-130,913,928.3953899066927,9898,-4081,2268,10943.892771770015
1735576598427,107,-130,913,928.3953899066927,9937,-4048,537,10743.306846590578
1735576598457,107,-130,913,928.3953899066927,9960,-4007,-1190,10801.562340698683
1735576598487,106,-140,954,970.0268037533808,9956,-3970,-2891,11101.383562421397
1735576598517,106,-140,954,970.0268037533808,9932,-3952,-4542,11614.331319537943
1735576598547,106,-140,954,970.0268037533808,9907,-3938,-6193,12329.223089878778
1735576598578,18,-86,998,1001.8602696983247,9900,-3916,-7886,13248.926447074873
1735576598607,18,-86,998,1001.8602696983247,9925,-3852,-9753,14438.30107734286
1735576598637,18,-86,998,1001.8602696983247,9926,-3783,-11615,15739.910736722746
1735576598667,18,-86,998,1001.8602696983247,9908,-3716,-13473,17131.808106560147
1735576598697,92,-104,945,955.1465856087221,9802,-3684,-15212,18467.701643680513
1735576598727,92,-104,945,955.1465856087221,9699,-3680,-16926,19852.014431790038
1735576598757,92,-104,945,955.1465856087221,9614,-3698,17357,20183.400332946876
1735576598787,188,-106,995,1018.1380063625952,9531,-3747,15694,18739.840074024112
1735576598817,188,-106,995,1018.1380063625952,9438,-3828,14108,17400.146321223852
1735576598847,188,-106,995,1018.1380063625952,9379,-3926,12520,16128.531148247816
1735576598877,110,-77,943,952.5114172544075,9348,-4030,10921,14929.643163853581
1735576598907,110,-77,943,952.5114172544075,9369,-4124,9215,13773.22627418863
1735576598949,110,-77,943,952.5114172544075,9410,-4212,7503,12750.845187672854
1735576598967,110,-77,943,952.5114172544075,9467,-4289,5785,11894.781839109115
1735576598996,114,-68,993,1001.8328203847187,9610,-4355,3994,11281.40775789972
1735576599028,114,-68,993,1001.8328203847187,9742,-4391,2200,10909.969981626897
1735576599058,114,-68,993,1001.8328203847187,9860,-4400,406,10804.833918205313
1735576599087,270,-73,948,988.3992108454963,9916,-4403,-1293,10926.358679816438
1735576599117,270,-73,948,988.3992108454963,9890,-4427,-2855,11205.420741766015
1735576599147,270,-73,948,988.3992108454963,9875,-4456,-4418,11700.01217948084
1735576599176,98,-193,984,1007.5261783199481,9856,-4481,-5983,12369.979223911412
1735576599207,98,-193,984,1007.5261783199481,10052,-4443,-7751,13448.455450348192
1735576599237,98,-193,984,1007.5261783199481,10198,-4367,-9508,14610.679552984522
1735576599267,98,-193,984,1007.5261783199481,10296,-4263,-11252,15836.296568326827
1735576599297,173,-67,1037,1053.4642851088972,10268,-4146,-12958,17044.96711642472
1735576599327,173,-67,1037,1053.4642851088972,10171,-4050,-14633,18275.02202461053
1735576599357,173,-67,1037,1053.4642851088972,10070,-3974,-16305,19571.67854324202
1735576599387,88,-103,965,974.4629290024326,9981,-3920,-17994,20946.85649447191
1735576599416,88,-103,965,974.4629290024326,9940,-3868,16264,19449.49151006267
1735576599448,88,-103,965,974.4629290024326,9893,-3827,14523,17984.29612189479
1735576599478,187,-53,925,945.1999788404568,9835,-3802,12795,16579.941314733293
1735576599507,187,-53,925,945.1999788404568,9667,-3832,11194,15278.767914985816
1735576599537,187,-53,925,945.1999788404568,9535,-3894,9590,14072.937184539694
1735576599567,187,-53,925,945.1999788404568,9439,-3980,7984,12987.66249176502
1735576599597,68,-103,950,957.9838203226608,9547,-4028,6167,12058.2702739655
1735576599627,68,-103,950,957.9838203226608,9684,-4038,4305,11341.001939864043
1735576599687,68,-103,950,957.9838203226608,9798,-4018,2446,10868.6725960441
1735576599687,191,9,966,984.7426059636092,9784,-4003,711,10595.101981576203
1735576599718,191,9,966,984.7426059636092,9644,-4034,-898,10492.201675530261
1735576599748,191,9,966,984.7426059636092,9535,-4090,-2510,10674.475396945743
1735576599777,-57,-27,1003,1004.9810943495405,9472,-4155,-4150,11144.7435591852
1735576599807,-57,-27,1003,1004.9810943495405,9657,-4151,-6119,12162.672855914525
1735576599837,-57,-27,1003,1004.9810943495405,9803,-4105,-8081,13351.119615972288
1735576599867,-57,-27,1003,1004.9810943495405,9906,-4028,-10033,14663.379862773794
1735576599897,188,-217,927,970.4442281759422,9878,-4011,-11703,15831.083791073812
1735576599927,188,-217,927,970.4442281759422,9850,-4009,-13284,17016.44019764416
1735576599957,188,-217,927,970.4442281759422,9827,-4013,-14865,18265.878653927382
1735576599986,167,-167,1010,1037.2453904452889,9828,-3996,-16522,19635.021874192043
1735576600018,167,-167,1010,1037.2453904452889,9820,-3967,17771,20687.627461842985
1735576600047,167,-167,1010,1037.2453904452889,9806,-3939,16066,19229.917134506846
1735576600077,59,-102,990,996.9879638190222,9797,-3916,14365,17823.28505074191
1735576600107,59,-102,990,996.9879638190222,9816,-3877,12553,16400.085182705607
1735576600137,59,-102,990,996.9879638190222,9821,-3835,10744,15052.999767488207
1735576600167,59,-102,990,996.9879638190222,9814,-3793,8937,13804.760555692374
1735576600197,91,-138,1081,1093.5657273342101,9796,-3767,7171,12711.221263120236
1735576600227,91,-138,1081,1093.5657273342101,9778,-3745,5418,11789.361008977543
1735576600257,91,-138,1081,1093.5657273342101,9758,-3728,3665,11070.174930867171
1735576600287,165,-7,1002,1015.5185867329067,9672,-3746,2003,10563.716628156966
1735576600317,165,-7,1002,1015.5185867329067,9506,-3817,424,10252.477798073985
1735576600347,165,-7,1002,1015.5185867329067,9384,-3918,-1156,10234.57453927617
1735576600377,144,-100,971,986.7000557413585,9309,-4035,-2773,10517.995769156783
1735576600407,144,-100,971,986.7000557413585,9371,-4137,-4484,11181.979520639446
1735576600437,144,-100,971,986.7000557413585,9448,-4224,-6201,12064.795108082026
1735576600467,144,-100,971,986.7000557413585,9534,-4294,-7924,13119.655788167614
1735576600497,98,-210,1059,1084.0595002120501,9694,-4325,-9685,14369.359275903711
1735576600527,98,-210,1059,1084.0595002120501,9870,-4313,-11463,15729.565728271076
1735576600557,98,-210,1059,1084.0595002120501,10009,-4266,-13234,17132.35515041642
1735576600587,87,-3,954,957.9634648565675,10123,-4188,-15036,18603.649346297625
1735576600617,87,-3,954,957.9634648565675,10123,-4099,-16856,20084.861612667388
1735576600647,87,-3,954,957.9634648565675,10099,-4011,17331,20455.84227060817
1735576600677,126,-99,1010,1022.6323875176261,10035,-3931,15535,18907.411536220392
1735576600707,126,-99,1010,1022.6323875176261,9979,-3870,13808,17470.49527059837
1735576600737,126,-99,1010,1022.6323875176261,9919,-3822,12082,16092.512824291924
1735576600767,126,-99,1010,1022.6323875176261,9858,-3787,10356,14790.81704977788
1735576600797,161,-93,946,964.098542681193,9742,-3799,8692,13597.419939091385
1735576600827,161,-93,946,964.098542681193,9643,-3838,7039,12540.54281121834
1735576600857,161,-93,946,964.098542681193,9570,-3896,5382,11650.306433738127
1735576600888,51,-137,1041,1051.2140600277376,9586,-3950,3660,10994.975943584415
1735576600917,51,-137,1041,1051.2140600277376,9691,-3971,1846,10634.47403494879
1735576600947,51,-137,1041,1051.2140600277376,9781,-3968,32,10555.28346374459
1735576600977,183,-57,912,931.9238166288058,9844,-3946,-1769,10751.958565768378
1735576601007,183,-57,912,931.9238166288058,9727,-3949,-3406,11036.755229685943
1735576601037,183,-57,912,931.9238166288058,9632,-3975,-5046,11577.48526235296
1735576601068,183,-57,912,931.9238166288058,9560,-4019,-6689,12340.53005344584
1735576601097,195,-29,898,919.385664452084,9488,-4076,-8296,13246.113996187712
1735576601127,195,-29,898,919.385664452084,9432,-4148,-9901,14289.798074150664
1735576601188,195,-29,898,919.385664452084,9403,-4229,-11510,15452.538626387575
1735576601188,107,-153,912,930.9146040319703,9443,-4326,-13146,16754.158916519802
1735576601218,107,-153,912,930.9146040319703,9603,-4399,-14853,18225.8173753607
1735576601247,107,-153,912,930.9146040319703,9753,-4441,-16564,19728.395423855432
1735576601277,65,-90,1004,1010.1192998849195,9904,-4448,17697,20761.929799515266
1735576601307,65,-90,1004,1010.1192998849195,10038,-4409,15863,19283.036431018845
1735576601337,65,-90,1004,1010.1192998849195,10135,-4344,14038,17850.882471183322
1735576601367,65,-90,1004,1010.1192998849195,10193,-4261,12224,16476.63636789985
1735576601397,182,-100,1090,1109.6053352431215,10185,-4203,10538,15246.274233398795
1735576601427,182,-100,1090,1109.6053352431215,10143,-4160,8899,14120.136330786612
1735576601457,182,-100,1090,1109.6053352431215,10099,-4125,7261,13104.485758701103
1735576601487,118,-1,970,977.1514723930983,10024,-4081,5600,12185.8580740135
1735576601517,118,-1,970,977.1514723930983,9921,-4043,3892,11398.2346878804
1735576601547,118,-1,970,977.1514723930983,9827,-4027,2183,10842.146789266413
1735576601577,171,-124,966,988.8240490602967,9736,-4029,469,10547.155919962499
1735576601607,171,-124,966,988.8240490602967,9704,-4048,-1192,10581.813833176238
1735576601637,171,-124,966,988.8240490602967,9682,-4072,-2856,10884.807945021354
1735576601667,171,-124,966,988.8240490602967,9670,-4100,-4522,11435.356750010033
1735576601697,39,-41,966,967.6559305869002,9734,-4098,-6337,12316.73369850952
1735576601727,39,-41,966,967.6559305869002,9791,-4076,-8198,13404.650722790206
1735576601757,39,-41,966,967.6559305869002,9830,-4042,-10056,14631.80781721794
1735576601787,174,-81,964,982.92064786533,9821,-4023,-11835,15896.659869293297
1735576601817,174,-81,964,982.92064786533,9771,-4033,-13503,17148.426720839438
1735576601847,174,-81,964,982.92064786533,9732,-4053,-15172,18475.070148716622
1735576601877,133,-43,888,898.933812913943,9695,-4084,-16821,19839.811541443632
1735576601907,133,-43,888,898.933812913943,9654,-4128,17524,20428.672888858935
1735576601937,133,-43,888,898.933812913943,9631,-4179,15867,19025.821690534158
1735576601967,133,-43,888,898.933812913943,9624,-4234,14208,17675.27640519378
1735576601997,203,-246,984,1034.3988592414437,9678,-4272,12577,16434.5549681152
1735576602027,203,-246,984,1034.3988592414437,9767,-4295,10972,15304.447000790326
1735576602058,203,-246,984,1034.3988592414437,9846,-4300,9368,14254.58312263112
1735576602088,180,-49,1008,1025.1170664855795,9907,-4287,7732,13278.209291918847
1735576602118,180,-49,1008,1025.1170664855795,9883,-4272,6069,12359.467383346258
1735576602147,180,-49,1008,1025.1170664855795,9859,-4262,4406,11609.365228125092
1735576602177,178,-74,949,968.3806069929323,9837,-4260,2740,11064.437129831775
1735576602207,178,-74,949,968.3806069929323,9840,-4268,1065,10778.480829875794
1735576602237,178,-74,949,968.3806069929323,9844,-4275,-610,10749.514454150942
1735576602266,16,-202,1059,1078.2119457694762,9860,-4276,-2297,10989.994767969638
1735576602297,16,-202,1059,1078.2119457694762,10104,-4204,-4184,11716.240352604584
1735576602327,16,-202,1059,1078.2119457694762,10278,-4081,-6052,12606.290056951728
1735576602357,16,-202,1059,1078.2119457694762,10379,-3922,-7901,13620.995778576544
1735576602417,67,-97,964,971.1817543590901,10310,-3758,-9695,14642.803317671107
1735576602418,67,-97,964,971.1817543590901,10179,-3624,-11468,15756.282588224927
1735576602448,67,-97,964,971.1817543590901,10039,-3520,-13241,16985.170060967892
1735576602478,158,-81,976,992.0186490182531,9897,-3454,-15004,18303.025460289344
1735576602507,158,-81,976,992.0186490182531,9702,-3452,-16655,19581.47422948538
1735576602538,158,-81,976,992.0186490182531,9541,-3490,17690,20399.678453348228
1735576602567,280,-202,965,1024.9043857843521,9400,-3570,16053,18942.114691871127
1735576602597,280,-202,965,1024.9043857843521,9294,-3702,14584,17685.48263407024
1735576602627,280,-202,965,1024.9043857843521,9230,-3850,13116,16493.78234365908
1735576602657,280,-202,965,1024.9043857843521,9206,-4007,11645,15375.711690845403
1735576602687,120,-171,981,1002.996510462524,9294,-4131,9988,14254.954963099673
1735576602717,120,-171,981,1002.996510462524,9425,-4225,8261,13225.935543469128
1735576602747,120,-171,981,1002.996510462524,9558,-4291,6527,12343.815212485968
1735576602777,152,-180,932,961.3157649804772,9712,-4343,4788,11666.599204566855
1735576602807,152,-180,932,961.3157649804772,9858,-4374,3065,11211.880529152993
1735576602838,152,-180,932,961.3157649804772,9985,-4375,1342,10983.70675136586
1735576602867,158,-218,1029,1063.639506599863,10084,-4359,-356,10991.572817390603
1735576602898,158,-218,1029,1063.639506599863,10182,-4334,-2005,11246.186242455706
1735576602927,158,-218,1029,1063.639506599863,10255,-4291,-3649,11700.124230109695
1735576602957,158,-218,1029,1063.639506599863,10304,-4235,-5287,12331.26149264543
1735576602987,217,-42,898,924.8010596879742,10224,-4163,-6935,13036.677874366613
1735576603017,217,-42,898,924.8010596879742,10086,-4123,-8561,13857.028757998592
1735576603047,217,-42,898,924.8010596879742,9965,-4110,-10188,14832.01500134085
1735576603077,155,-133,917,939.4695311717139,9900,-4119,-11842,15975.26603847335
1735576603107,155,-133,917,939.4695311717139,9922,-4123,-13544,17288.29514440334
1735576603137,155,-133,917,939.4695311717139,9940,-4123,-15246,18661.276617637926
1735576603167,15,-201,942,963.3223759469101,9958,-4115,-16950,20084.757628609812
1735576603197,15,-201,942,963.3223759469101,10121,-4052,17189,20354.73080146235
1735576603227,15,-201,942,963.3223759469101,10232,-3954,15342,18860.140614534135
1735576603257,15,-201,942,963.3223759469101,10293,-3834,13506,17408.54505695407
1735576603287,95,-167,998,1016.3257351853292,10224,-3721,11756,16018.100792540918
1735576603318,95,-167,998,1016.3257351853292,10119,-3636,10034,14706.998776092965
1735576603347,95,-167,998,1016.3257351853292,10013,-3574,8312,13495.29506902313
1735576603377,-1,-243,1010,1038.8214476030037,9934,-3529,6577,12425.583527545095
1735576603407,-1,-243,1010,1038.8214476030037,9921,-3479,4788,11552.256316408497
1735576603437,-1,-243,1010,1038.8214476030037,9897,-3434,3000,10896.924566133328
1735576603467,-42,-96,949,954.7675109679843,9863,-3395,1213,10501.245783239245
1735576603497,-42,-96,949,954.7675109679843,9723,-3380,-616,10312.157145815807
1735576603527,-42,-96,949,954.7675109679843,9607,-3398,-2447,10479.91707982463
1735576603557,-42,-96,949,954.7675109679843,9518,-3442,-4281,10989.388017537647
1735576603588,187,-187,1069,1101.2261348151885,9471,-3527,-5987,11746.647989958667
1735576603617,187,-187,1069,1101.2261348151885,9437,-3630,-7615,12657.886632451722
1735576603647,187,-187,1069,1101.2261348151885,9432,-3737,-9246,13726.482032917247
1735576603677,173,-125,905,929.8274033389207,9421,-3827,-10888,14897.9768425112
1735576603707,173,-125,905,929.8274033389207,9397,-3916,-12546,16156.756512369679
1735576603737,173,-125,905,929.8274033389207,9399,-4007,-14208,17500.41468080114
1735576603767,150,-186,1078,1104.1648427657892,9437,-4094,-15894,18932.433573104117
1735576603797,150,-186,1078,1104.1648427657892,9585,-4154,-17650,20509.7645281461
1735576603828,150,-186,1078,1104.1648427657892,9721,-4181,16591,19678.411597484184
1735576603857,150,-186,1078,1104.1648427657892,9839,-4180,14833,18283.76903157552
1735576603887,97,-28,917,922.5410559969675,9860,-4155,13060,16883.34164198545
1735576603918,97,-28,917,922.5410559969675,9842,-4132,11270,15522.605709094076
1735576603947,97,-28,917,922.5410559969675,9821,-4112,9480,14255.910528619348
1735576603978,203,-110,1019,1044.8301297340156,9820,-4126,7750,13172.652580251253
1735576604008,203,-110,1019,1044.8301297340156,9831,-4159,6106,12297.523246572864
1735576604037,203,-110,1019,1044.8301297340156,9848,-4190,4461,11594.814573765292
1735576604067,83,29,975,978.9560766449126,9849,-4213,2830,11079.75947392361
1735576604097,83,29,975,978.9560766449126,9788,-4219,1091,10714.251537088347
1735576604127,83,29,975,978.9560766449126,9741,-4239,-649,10643.185754274891
1735576604157,83,29,975,978.9560766449126,9707,-4267,-2393,10870.123596353447
1735576604187,208,-92,920,947.6961538383492,9648,-4325,-4046,11320.761679321758
1735576604217,208,-92,920,947.6961538383492,9614,-4396,-5655,11988.863040338729
1735576604247,208,-92,920,947.6961538383492,9604,-4473,-7269,12848.45928506605
1735576604277,72,-141,987,999.6169266273956,9693,-4535,-8943,13946.244046337351
1735576604307,72,-141,987,999.6169266273956,9888,-4547,-10730,15283.345608864573
1735576604337,72,-141,987,999.6169266273956,10050,-4521,-12512,16673.094643766646
1735576604367,169,-87,927,946.2869543642669,10159,-4468,-14261,18070.540279692803
1735576604397,169,-87,927,946.2869543642669,10092,-4437,-15845,19302.835491191443
1735576604427,169,-87,927,946.2869543642669,10030,-4418,-17428,20587.73440668011
1735576604457,169,-87,927,946.2869543642669,9975,-4409,16988,20187.42306486888
1735576604487,100,-131,972,985.8727098363155,10007,-4386,15304,18803.974606449563
1735576604517,100,-131,972,985.8727098363155,10053,-4348,13597,17459.848853870415
1735576604547,100,-131,972,985.8727098363155,10080,-4301,11895,16173.93044377278
1735576604577,29,-163,1045,1058.0335533431821,10118,-4232,10150,14943.434946490717
1735576604607,29,-163,1045,1058.0335533431821,10176,-4133,8351,13797.531155971346
1735576604637,29,-163,1045,1058.0335533431821,10195,-4023,6562,12774.286594561749
1735576604667,201,-85,1013,1036.24080213047,10191,-3914,4776,11915.790070322655
1735576604697,201,-85,1013,1036.24080213047,10014,-3868,3169,11193.041633086155
1735576604727,201,-85,1013,1036.24080213047,9859,-3857,1558,10700.639887408603
1735576604757,201,-85,1013,1036.24080213047,9730,-3876,-55,10473.74340911596
1735576604787,54,-139,944,955.705498571605,9688,-3873,-1785,10585.06957936508
1735576604817,54,-139,944,955.705498571605,9694,-3864,-3568,11028.814804864573
1735576604847,54,-139,944,955.705498571605,9697,-3854,-5351,11726.820796788872
1735576604877,135,-192,997,1024.2548510990807,9699,-3858,-7070,12607.127547542303
1735576604907,135,-192,997,1024.2548510990807,9700,-3873,-8715,13602.99062706433
1735576604937,135,-192,997,1024.2548510990807,9705,-3888,-10360,14718.463540736851
1735576604967,147,-130,948,968.0976190446912,9689,-3907,-11990,15902.876154960146
1735576604997,147,-130,948,968.0976190446912,9583,-3954,-13578,17083.035122600435
1735576605027,147,-130,948,968.0976190446912,9505,-4020,-15168,18345.943666107774
1735576605058,147,-130,948,968.0976190446912,9456,-4100,-16760,19675.45516627252
1735576605088,94,-168,1033,1050.7849446961068,9624,-4135,17414,20321.58943094757
1735576605118,94,-168,1033,1050.7849446961068,9790,-4126,15570,18849.214201127856
1735576605147,94,-168,1033,1050.7849446961068,9921,-4082,13733,17426.538784279568
1735576605177,190,-60,1011,1030.4469903881518,9966,-4030,11941,16067.032613398156
1735576605207,190,-60,1011,1030.4469903881518,9897,-4004,10224,14782.17849303681
1735576605237,190,-60,1011,1030.4469903881518,9834,-3992,8507,13601.9362224648
1735576605267,145,-192,1094,1120.1450798892079,9770,-3992,6788,12548.542066710379
1735576605297,145,-192,1094,1120.1450798892079,9835,-3976,5017,11734.823816316972
1735576605327,145,-192,1094,1120.1450798892079,9883,-3947,3249,11126.926754499646
1735576605357,145,-192,1094,1120.1450798892079,9914,-3908,1484,10759.280459212874
1735576605387,101,-163,976,994.6587354464847,9920,-3852,-311,10646.174195456319
1735576605417,101,-163,976,994.6587354464847,9911,-3795,-2120,10822.400195890004
1735576605448,101,-163,976,994.6587354464847,9888,-3740,-3925,11276.780081211125
1735576605477,99,-41,912,918.2733797731479,9786,-3711,-5647,11892.263283328368
1735576605508,99,-41,912,918.2733797731479,9620,-3727,-7329,12655.005728959588
1735576605537,99,-41,912,918.2733797731479,9488,-3777,-9015,13621.971149580371
1735576605567,181,-66,894,914.5233731294132,9396,-3853,-10703,14754.139554714806
1735576605597,181,-66,894,914.5233731294132,9314,-3954,-12302,15928.713570153743
1735576605627,181,-66,894,914.5233731294132,9268,-4068,-13904,17197.83893400563
1735576605657,181,-66,894,914.5233731294132,9256,-4188,-15512,18542.789002736346
1735576605687,53,-27,896,897.9721599247941,9354,-4307,-17232,20074.595612365396
1735576605717,53,-27,896,897.9721599247941,9486,-4397,16988,19947.68029120178
1735576605746,53,-27,896,897.9721599247941,9618,-4458,15201,18532.406454640477
1735576605777,111,-128,1011,1025.0980440913931,9742,-4491,13438,17194.63547156496
1735576605807,111,-128,1011,1025.0980440913931,9869,-4499,11724,15971.54776469707
1735576605837,111,-128,1011,1025.0980440913931,9975,-4484,10012,14827.239291250411
1735576605867,103,-128,1015,1028.2110678260567,10043,-4450,8306,13771.491749262314
1735576605897,103,-128,1015,1028.2110678260567,10074,-4406,6598,12823.100873033793
1735576605928,103,-128,1015,1028.2110678260567,10087,-4356,4894,12028.031468199608
1735576605958,210,-116,981,1009.9094018772179,10080,-4305,3192,11416.141598631299
1735576605987,210,-116,981,1009.9094018772179,9969,-4288,1607,10970.43089399865
1735576606017,210,-116,981,1009.9094018772179,9873,-4291,21,10765.186993266769
1735576606047,210,-116,981,1009.9094018772179,9795,-4311,-1567,10815.832607802324
1735576606077,166,-126,1019,1040.0927843226295,9801,-4337,-3206,11186.93908091038
1735576606108,166,-126,1019,1040.0927843226295,9824,-4357,-4864,11796.309634796808
1735576606137,166,-126,1019,1040.0927843226295,9848,-4373,-6522,12595.345052835988
1735576606167,70,-20,968,970.7337431036381,9879,-4385,-8179,13554.294780622118
1735576606197,70,-20,968,970.7337431036381,9909,-4379,-9942,14703.988778559375
1735576606227,70,-20,968,970.7337431036381,9931,-4368,-11704,15958.941098957663
1735576606258,120,-32,928,936.2734643254608,9957,-4346,-13492,17322.34478931764
1735576606288,120,-32,928,936.2734643254608,9963,-4317,-15275,18740.95736615395
1735576606318,120,-32,928,936.2734643254608,9961,-4287,-17055,20210.712877085756
1735576606348,120,-32,928,936.2734643254608,9950,-4259,17167,20294.025475494014
1735576606377,115,-22,1029,1035.6398988065303,9953,-4220,15377,18796.88107107134
1735576606407,115,-22,1029,1035.6398988065303,9943,-4181,13588,17348.710441989628
1735576606437,115,-22,1029,1035.6398988065303,9924,-4146,11802,15967.53882099555
1735576606467,30,-111,998,1004.6019112066232,9937,-4112,9995,14681.707598232571
1735576606497,30,-111,998,1004.6019112066232,10014,-4055,8133,13522.903164631476
1735576606528,30,-111,998,1004.6019112066232,10059,-3983,6280,12509.44323301401
1735576606557,78,-62,992,996.9914743868175,10077,-3896,4427,11675.747256599896
1735576606617,78,-62,992,996.9914743868175,10000,-3814,2618,11018.19041403805
1735576606617,78,-62,992,996.9914743868175,9917,-3750,810,10633.225710009168
1735576606647,78,-62,992,996.9914743868175,9833,-3706,-996,10555.299190454054
1735576606677,185,-48,821,842.9531422327103,9639,-3726,-2636,10664.984435056622
1735576606707,185,-48,821,842.9531422327103,9460,-3793,-4241,11039.226875103166
1735576606737,185,-48,821,842.9531422327103,9328,-3894,-5848,11677.924644387804
1735576606767,143,-88,987,1001.1803034418925,9286,-4002,-7520,12601.436426058737
1735576606797,143,-88,987,1001.1803034418925,9326,-4098,-9252,13761.082224883332
1735576606827,143,-88,987,1001.1803034418925,9384,-4184,-10991,15045.51072579459
1735576606857,135,-162,1069,1089.600844346222,9455,-4262,-12718,16410.64267480101
1735576606887,135,-162,1069,1089.600844346222,9604,-4328,-14426,17862.751075912132
1735576606918,135,-162,1069,1089.600844346222,9743,-4364,-16137,19348.72900218513
1735576606947,135,-162,1069,1089.600844346222,9866,-4373,-17848,20856.945821476354
1735576606977,191,-21,957,976.0998924290485,9899,-4370,16446,19686.49326314872
1735576607007,191,-21,957,976.0998924290485,9878,-4375,14763,18293.760630335142
1735576607037,191,-21,957,976.0998924290485,9862,-4384,13078,16956.196035667905
1735576607067,101,-145,1013,1028.2971360458027,9935,-4392,11342,15704.612475320746
1735576607097,101,-145,1013,1028.2971360458027,10113,-4356,9530,14562.568626447739
1735576607128,101,-145,1013,1028.2971360458027,10246,-4285,7728,13530.104397232122
1735576607157,62,49,961,964.2437451184218,10302,-4185,5960,12616.141605102568
1735576607187,62,49,961,964.2437451184218,10138,-4089,4198,11709.917548813057
1735576607217,62,49,961,964.2437451184218,9982,-4029,2436,11036.632683930366
1735576607247,62,49,961,964.2437451184218,9840,-4001,672,10643.551334023809
1735576607278,-17,-85,905,909.1419031152398,9792,-3972,-1161,10630.520636356434
1735576607307,-17,-85,905,909.1419031152398,9792,-3938,-3022,10978.323733612522
1735576607337,-17,-85,905,909.1419031152398,9784,-3905,-4881,11610.333414678495
1735576607367,162,-54,993,1007.5758035999078,9747,-3895,-6682,12442.835609297425
1735576607398,162,-54,993,1007.5758035999078,9643,-3927,-8361,13353.467676974396
1735576607427,162,-54,993,1007.5758035999078,9564,-3980,-10042,14427.482801930488
1735576607457,129,-53,946,956.2248689508133,9530,-4047,-11730,15645.830403017924
1735576607487,129,-53,946,956.2248689508133,9570,-4112,-13465,17023.50342908298
1735576607517,129,-53,946,956.2248689508133,9619,-4166,-15204,18467.33150728605
1735576607547,129,-53,946,956.2248689508133,9674,-4210,-16946,19961.896002133664
1735576607577,52,-6,1041,1042.315211440378,9694,-4224,17268,20248.447742975262
1735576607607,52,-6,1041,1042.315211440378,9720,-4230,15453,18739.437264763314
1735576607637,52,-6,1041,1042.315211440378,9743,-4231,13639,17287.27077939141
1735576607667,161,-194,1003,1034.1982401841535,9788,-4250,11881,15969.521126195363
1735576607697,161,-194,1003,1034.1982401841535,9879,-4270,10213,14836.876692889242
1735576607728,161,-194,1003,1034.1982401841535,9959,-4273,8545,13800.624442393902
1735576607757,100,-50,955,961.5222306322407,10035,-4245,6852,12871.330700436532
1735576607787,100,-50,955,961.5222306322407,10030,-4173,5042,11976.501701248157
1735576607817,100,-50,955,961.5222306322407,10006,-4103,3237,11288.61435252352
1735576607847,100,-50,955,961.5222306322407,9968,-4040,1437,10851.156297832964
1735576607877,76,-159,956,972.1075043430125,10003,-3967,-406,10768.562299582985
1735576607907,76,-159,956,972.1075043430125,10041,-3879,-2250,10996.855095889916
1735576607937,76,-159,956,972.1075043430125,10048,-3785,-4087,11488.78139751993
1735576607967,159,-62,916,931.7623087461737,9959,-3707,-5851,12130.858625835188
1735576607997,159,-62,916,931.7623087461737,9779,-3681,-7540,12885.270738327543
1735576608028,159,-62,916,931.7623087461737,9626,-3692,-9233,13839.76260634553
1735576608057,96,-79,1000,1007.6988637484911,9513,-3737,-10917,14954.705847993133
1735576608087,96,-79,1000,1007.6988637484911,9500,-3791,-12652,16269.443291028738
1735576608117,96,-79,1000,1007.6988637484911,9503,-3846,-14388,17666.72773888815
1735576608147,96,-79,1000,1007.6988637484911,9520,-3899,-16128,19129.688575614608
1735576608177,199,-118,1015,1041.0331406828507,9485,-3972,-17753,20516.116055433104
1735576608207,199,-118,1015,1041.0331406828507,9462,-4054,16657,19581.113579160916
1735576608238,199,-118,1015,1041.0331406828507,9462,-4139,15064,18264.305653377574
1735576608268,41,-139,1006,1016.3847696615687,9560,-4207,13351,16951.15482791659
1735576608298,41,-139,1006,1016.3847696615687,9754,-4222,11488,15650.557306370914
1735576608328,41,-139,1006,1016.3847696615687,9915,-4195,9629,14443.783818653616
1735576608358,109,-9,931,937.4022615718399,10047,-4134,7758,13349.858763297834
1735576608388,109,-9,931,937.4022615718399,10010,-4078,5927,12327.185931914875
1735576608417,109,-9,931,937.4022615718399,9965,-4032,4100,11505.140112141182
1735576608448,109,-9,931,937.4022615718399,9916,-3996,2274,10930.057090427295
1735576608476,175,-114,1088,1107.8650639856824,9839,-3994,588,10635.022378913925
1735576608508,175,-114,1088,1107.8650639856824,9789,-4006,-1075,10631.471299871904
1735576608538,175,-114,1088,1107.8650639856824,9751,-4027,-2740,10899.831650076068
1735576608568,121,-134,989,1005.3447170000944,9722,-4052,-4398,11413.956018839393
1735576608597,121,-134,989,1005.3447170000944,9726,-4074,-6083,12173.554986116422
1735576608628,121,-134,989,1005.3447170000944,9735,-4094,-7769,13110.62248712852
1735576608657,131,-58,929,939.9819147196397,9770,-4112,-9468,14212.827586374218
1735576608687,131,-58,929,939.9819147196397,9775,-4129,-11179,15413.283459406046
1735576608717,131,-58,929,939.9819147196397,9784,-4145,-12892,16706.625781407805
1735576608747,131,-58,929,939.9819147196397,9795,-4159,-14605,18070.565320432008
1735576608777,2,-99,1018,1022.8044778939912,9896,-4142,-16420,19613.856836430718
1735576608807,2,-99,1018,1022.8044778939912,10008,-4089,17722,20759.31764292844
1735576608837,2,-99,1018,1022.8044778939912,10083,-4013,15875,19229.838350854643
1735576608867,109,-72,898,907.4519271013754,10067,-3929,14063,17735.54338045497
1735576608897,109,-72,898,907.4519271013754,9966,-3875,12324,16316.180833761313
1735576608927,109,-72,898,907.4519271013754,9871,-3842,10585,14974.639561605482
1735576608957,168,-21,1019,1032.9695058422587,9795,-3835,8848,13745.412107317845
1735576608987,168,-21,1019,1032.9695058422587,9673,-3871,7179,12652.652330638031
1735576609017,168,-21,1019,1032.9695058422587,9581,-3932,5508,11730.057501990346
1735576609047,168,-21,1019,1032.9695058422587,9520,-4009,3833,11017.911326562762
1735576609077,237,-85,1076,1105.0656089119777,9467,-4111,2236,10560.497431466001
1735576609107,237,-85,1076,1105.0656089119777,9446,-4222,660,10367.632323727536
1735576609137,237,-85,1076,1105.0656089119777,9454,-4335,-921,10441.196387387798
1735576609167,104,-97,965,975.4229851710487,9536,-4420,-2584,10823.52770588222
1735576609197,104,-97,965,975.4229851710487,9701,-4456,-4370,11535.26059523581
1735576609227,104,-97,965,975.4229851710487,9846,-4459,-6155,12438.264428769795
1735576609257,317,-119,898,959.7155828681746,9956,-4439,-7936,13483.573450684355
1735576609287,317,-119,898,959.7155828681746,9882,-4460,-9456,14386.155150004466
1735576609317,317,-119,898,959.7155828681746,9826,-4494,-10978,15403.337170886054
1735576609347,317,-119,898,959.7155828681746,9787,-4537,-12503,16513.47168223569
1735576609377,128,-41,1004,1012.9565637281788,9842,-4556,-14205,17871.880846737982
1735576609407,128,-41,1004,1012.9565637281788,9920,-4550,-15983,19353.686703054795
1735576609437,128,-41,1004,1012.9565637281788,9980,-4529,-17758,20867.649723914765
1735576609467,116,-157,1052,1069.95747579051,10049,-4493,16469,19809.023474164496
1735576609497,116,-157,1052,1069.95747579051,10154,-4429,14696,18403.59130713351
1735576609527,116,-157,1052,1069.95747579051,10221,-4346,12934,17048.31114802871
1735576609587,168,50,954,969.9690716718756,10265,-4255,11183,15764.984586100933
1735576609587,168,50,954,969.9690716718756,10100,-4205,9498,14488.065053691607
1735576609617,168,50,954,969.9690716718756,9953,-4186,7812,13327.120806835961
1735576609647,168,50,954,969.9690716718756,9829,-4197,6123,12317.271572876843
1735576609677,167,-105,953,973.2024455374124,9764,-4249,4533,11573.14935529651
1735576609707,167,-105,953,973.2024455374124,9762,-4303,2939,11065.720672418945
1735576609737,167,-105,953,973.2024455374124,9772,-4358,1343,10783.6819778775
1735576609767,166,21,945,959.69891111744,9763,-4389,-282,10707.894937848429
1735576609797,166,21,945,959.69891111744,9699,-4423,-1925,10832.31992695932
1735576609827,166,21,945,959.69891111744,9655,-4467,-3571,11221.637803814558
1735576609857,29,-51,1005,1006.7109813645623,9643,-4513,-5256,11873.506390279157
1735576609887,29,-51,1005,1006.7109813645623,9835,-4504,-7177,12981.624320554034
1735576609917,29,-51,1005,1006.7109813645623,9986,-4456,-9089,14219.214218795636
1735576609947,190,-64,969,989.5236227599622,10078,-4381,-10976,15531.63935326854
1735576609977,190,-64,969,989.5236227599622,10002,-4343,-12641,16694.206599895664
1735576610007,190,-64,969,989.5236227599622,9931,-4319,-14307,17943.48826176226
1735576610037,190,-64,969,989.5236227599622,9868,-4309,-15972,19262.650103243843
1735576610067,113,-22,912,919.2371837561838,9870,-4308,-17680,20701.646407955093
1735576610097,113,-22,912,919.2371837561838,9878,-4301,16583,19775.474052472167
1735576610128,113,-22,912,919.2371837561838,9883,-4293,14847,18344.943363226826
1735576610157,126,-92,939,951.8723653935963,9887,-4280,13097,16958.849548244714
1735576610217,126,-92,939,951.8723653935963,9935,-4254,11333,15660.064814680685
1735576610217,126,-92,939,951.8723653935963,9967,-4218,9574,14449.708959006752
1735576610247,73,-106,1111,1118.4301498082032,10000,-4172,7797,13349.112067849306
1735576610277,73,-106,1111,1118.4301498082032,10090,-4091,5928,12396.99822537698
1735576610307,73,-106,1111,1118.4301498082032,10139,-3992,4070,11631.865069712596
1735576610337,73,-106,1111,1118.4301498082032,10150,-3884,2221,11092.3756247253
1735576610367,163,-102,1000,1018.3187123882188,10036,-3809,524,10747.295148082609
1735576610397,163,-102,1000,1018.3187123882188,9908,-3767,-1141,10661.174137964355
1735576610427,163,-102,1000,1018.3187123882188,9795,-3752,-2809,10858.637575681398
1735576610457,48,32,866,867.919351092024,9677,-3754,-4501,11313.524914897213
1735576610487,48,32,866,867.919351092024,9552,-3778,-6267,12032.841601217893
1735576610517,48,32,866,867.919351092024,9457,-3828,-8037,12987.755849260488
1735576610547,83,-108,954,963.6747376578884,9390,-3904,-9804,14125.570147785185
1735576610577,83,-108,954,963.6747376578884,9445,-3993,-11524,15425.778748575385
1735576610607,83,-108,954,963.6747376578884,9512,-4069,-13248,16809.05735013121
1735576610637,83,-108,954,963.6747376578884,9586,-4129,-14978,18255.97220089908
1735576610667,83,0,955,958.6000208637594,9644,-4154,-16811,19821.003329801446
1735576610697,83,0,955,958.6000208637594,9671,-4173,17354,20300.332164770112
1735576610728,83,0,955,958.6000208637594,9699,-4186,15519,18773.187209421845
1735576610757,90,-56,961,966.8283198169156,9699,-4190,13721,17317.4057525947
1735576610787,90,-56,961,966.8283198169156,9707,-4190,11947,15953.455989220643
1735576610817,90,-56,961,966.8283198169156,9714,-4188,10173,14676.207582342246
1735576610847,-47,-50,917,919.5640271345982,9721,-4190,8420,13525.913684479878
1735576610877,-47,-50,917,919.5640271345982,9823,-4169,6553,12522.527660181071
1735576610907,-47,-50,917,919.5640271345982,9898,-4126,4692,11705.090516523142
1735576610937,-47,-50,917,919.5640271345982,9946,-4069,2837,11114.326160411165
1735576610967,256,-65,962,997.5996190857333,9842,-4080,1247,10726.899505448906
1735576610997,256,-65,962,997.5996190857333,9700,-4136,-233,10547.548767367705
1735576611027,256,-65,962,997.5996190857333,9592,-4215,-1715,10616.68093143992
1735576611057,13,-83,977,980.6054252348393,9617,-4275,-3366,11049.537094376397
1735576611087,13,-83,977,980.6054252348393,9784,-4273,-5240,11892.972084386643
1735576611117,13,-83,977,980.6054252348393,9918,-4236,-7109,12916.977239276997
1735576611147,169,-110,1072,1090.8001650164892,10034,-4174,-8989,14103.387997215421
1735576611177,169,-110,1072,1090.8001650164892,10066,-4128,-10728,15279.225242138424
1735576611207,169,-110,1072,1090.8001650164892,10079,-4075,-12463,16538.386710921957
1735576611238,169,-110,1072,1090.8001650164892,10076,-4020,-14194,17864.932465587437
1735576611268,136,-91,932,946.2563077728994,9944,-3962,-15863,19136.753878335792
1735576611297,136,-91,932,946.2563077728994,9824,-3928,-17545,20488.22064016297
1735576611328,136,-91,932,946.2563077728994,9718,-3919,16770,19774.5034071655
1735576611357,125,103,903,917.4110311087392,9633,-3948,15086,18329.451410230475
1735576611388,125,103,903,917.4110311087392,9502,-4017,13394,16906.316245711245
1735576611417,125,103,903,917.4110311087392,9411,-4110,11696,15564.557076897498
1735576611447,159,-167,970,997.030591306004,9352,-4220,9982,14314.62985899391
1735576611477,159,-167,970,997.030591306004,9511,-4313,8280,13327.396219817283
1735576611507,159,-167,970,997.030591306004,9667,-4373,6572,12480.59301475695
1735576611538,159,-167,970,997.030591306004,9810,-4402,4860,11799.716267775255
1735576611567,129,-28,963,972.0051440193103,9900,-4392,3079,11259.658298545299
1735576611597,129,-28,963,972.0051440193103,9942,-4369,1289,10935.860551415239
1735576611627,129,-28,963,972.0051440193103,9970,-4339,-497,10884.614370752875
1735576611657,45,-23,1041,1042.2259831725555,10028,-4285,-2351,11155.680615722198
1735576611687,45,-23,1041,1042.2259831725555,10102,-4195,-4279,11745.563843426164
1735576611717,45,-23,1041,1042.2259831725555,10134,-4092,-6194,12562.167647344944
1735576611747,90,-8,1079,1082.776523572616,10112,-3996,-8063,13536.341049190509
1735576611777,90,-8,1079,1082.776523572616,10003,-3948,-9811,14556.868962795537
1735576611807,90,-8,1079,1082.776523572616,9903,-3923,-11560,15719.190119086925
1735576611837,90,-8,1079,1082.776523572616,9816,-3920,-13309,16995.5799253806
1735576611867,189,-117,978,1002.9426703456185,9699,-3955,-14916,18226.345821365292
1735576611897,189,-117,978,1002.9426703456185,9619,-4012,-16489,19506.625182229753
1735576611927,189,-117,978,1002.9426703456185,9564,-4084,17934,20731.075900685908
1735576611957,113,-41,919,926.8284630933601,9587,-4147,16254,19320.991020131445
1735576611987,113,-41,919,926.8284630933601,9640,-4189,14477,17890.244548356513
1735576612017,113,-41,919,926.8284630933601,9695,-4219,12698,16523.685726858883
1735576612047,42,-139,925,936.3279340060297,9740,-4237,10927,15238.73675866868
1735576612077,42,-139,925,936.3279340060297,9896,-4215,9096,14086.669478624108
1735576612107,42,-139,925,936.3279340060297,10016,-4162,7271,13057.945512215925
1735576612136,42,-139,925,936.3279340060297,10097,-4084,5456,12181.806146873296
1735576612168,137,-57,861,873.6927377516652,10015,-4034,3807,11448.433517298337
1735576612197,137,-57,861,873.6927377516652,9898,-4015,2191,10903.720007410315
1735576612227,137,-57,861,873.6927377516652,9797,-4018,574,10604.48060962912
1735576612257,173,-144,1002,1026.970788289521,9777,-4049,-1077,10636.91961988996
1735576612318,173,-144,1002,1026.970788289521,9818,-4083,-2728,10977.522352516527
1735576612318,173,-144,1002,1026.970788289521,9860,-4108,-4380,11544.681199582776
1735576612348,130,-99,1139,1150.6615488491827,9889,-4128,-6036,12299.024392202822
1735576612377,130,-99,1139,1150.6615488491827,9889,-4144,-7750,13229.798071021341
1735576612408,130,-99,1139,1150.6615488491827,9894,-4161,-9466,14311.19537285408
1735576612437,130,-99,1139,1150.6615488491827,9903,-4176,-11182,15509.529618914947
1735576612467,222,-92,1092,1118.128794012568,9862,-4167,-12895,16760.189676730988
1735576612497,222,-92,1092,1118.128794012568,9807,-4176,-14574,18055.960262472887
1735576612528,222,-92,1092,1118.128794012568,9764,-4196,-16255,19420.79135874746
1735576612558,73,22,875,878.3154330876806,9697,-4209,-17926,20810.789653446598
1735576612588,73,22,875,878.3154330876806,9634,-4220,16321,19416.420808171624
1735576612618,73,22,875,878.3154330876806,9586,-4245,14567,17947.392846873332
1735576612648,86,-37,888,892.9216091012693,9541,-4288,12838,16559.947735424772
1735576612677,86,-37,888,892.9216091012693,9534,-4359,11176,15323.218101952345
1735576612707,86,-37,888,892.9216091012693,9544,-4429,9509,14181.85664854923
1735576612738,86,-37,888,892.9216091012693,9571,-4496,7837,13161.938535033507
1735576612768,106,-2,942,947.9472559166992,9702,-4559,6060,12314.092942640964
1735576612797,106,-2,942,947.9472559166992,9814,-4598,4287,11654.80883584111
1735576612828,106,-2,942,947.9472559166992,9916,-4616,2511,11222.282878273922
1735576612857,110,-33,954,960.8876104935478,9983,-4620,777,11027.620686258664
1735576612887,110,-33,954,960.8876104935478,10040,-4614,-933,11088.781943928738
1735576612917,110,-33,954,960.8876104935478,10085,-4597,-2641,11393.6172921509
1735576612947,50,-161,1055,1068.384762152662,10126,-4568,-4360,11933.654092523378
1735576612977,50,-161,1055,1068.384762152662,10314,-4491,-6171,12830.780100991522
1735576613007,50,-161,1055,1068.384762152662,10441,-4378,-7965,13842.78115119935
1735576613037,50,-161,1055,1068.384762152662,10511,-4239,-9741,14944.47466457085
1735576613067,251,-105,990,1026.7063845131188,10315,-4140,-11292,15844.49712045163
1735576613097,251,-105,990,1026.7063845131188,10080,-4100,-12774,16780.687590203208
1735576613128,251,-105,990,1026.7063845131188,9879,-4102,-14260,17826.066447761266
1735576613158,193,-83,937,960.2640261927967,9804,-4125,-15858,19094.769048092727
1735576613188,193,-83,937,960.2640261927967,9799,-4146,-17545,20519.17985690461
1735576613218,193,-83,937,960.2640261927967,9799,-4167,16766,19861.597267088062
1735576613248,125,-129,1061,1076.0980438603167,9828,-4185,15045,18451.445309243394
1735576613277,125,-129,1061,1076.0980438603167,9978,-4166,13188,17054.013721115625
1735576613307,125,-129,1061,1076.0980438603167,10092,-4114,11337,15725.807737601272
1735576613337,125,-129,1061,1076.0980438603167,10170,-4039,9495,14487.837864912763
1735576613367,183,-119,974,998.1613096088226,10086,-3972,7784,13345.217720217232
1735576613397,183,-119,974,998.1613096088226,9989,-3929,6095,12343.669916195913
1735576613428,183,-119,974,998.1613096088226,9900,-3907,4405,11518.622921165534
1735576613458,98,-98,998,1007.5772923205445,9842,-3907,2737,10937.12859940853
1735576613518,98,-98,998,1007.5772923205445,9822,-3912,1033,10622.735852877073
1735576613518,98,-98,998,1007.5772923205445,9807,-3921,-671,10583.08702600522
1735576613548,128,-174,920,945.0185183370747,9800,-3930,-2401,10828.19010730787
1735576613577,128,-174,920,945.0185183370747,9846,-3930,-4147,11383.594555323903
1735576613607,128,-174,920,945.0185183370747,9884,-3921,-5891,12156.133349054706
1735576613637,98,-184,1044,1064.6107269795848,9897,-3900,-7628,13089.957715745304
1735576613667,98,-184,1044,1064.6107269795848,9900,-3863,-9384,14177.172672997956
1735576613698,98,-184,1044,1064.6107269795848,9893,-3826,-11137,15379.938036286101
1735576613728,98,-184,1044,1064.6107269795848,9878,-3792,-12888,16674.97202396454
1735576613757,108,-73,993,1001.519845035534,9863,-3806,-14624,18045.104072850343
1735576613787,108,-73,993,1001.519845035534,9826,-3830,-16357,19462.03034115403
1735576613817,108,-73,993,1001.519845035534,9801,-3863,17907,20776.020287822208
1735576613847,162,-82,1057,1072.4817014756009,9767,-3898,16185,19301.370883955366
1735576613877,162,-82,1057,1072.4817014756009,9679,-3950,14551,17916.951247352325
1735576613908,162,-82,1057,1072.4817014756009,9619,-4019,12914,16596.653819369734
1735576613938,69,-93,1079,1085.1962956073892,9595,-4090,11262,15350.073908616858
1735576613967,69,-93,1079,1085.1962956073892,9679,-4127,9482,14164.162311975953
1735576613997,69,-93,1079,1085.1962956073892,9757,-4144,7701,13102.564100205731
1735576614028,69,-93,1079,1085.1962956073892,9826,-4146,5920,12197.78635654847
1735576614057,104,-148,891,909.1760005631473,9869,-4124,4154,11474.330176528825
1735576614088,104,-148,891,909.1760005631473,9905,-4094,2404,10984.0373724783
1735576614117,104,-148,891,909.1760005631473,9926,-4058,657,10743.578966061543
1735576614147,124,2,871,879.7846327368989,9932,-4026,-1071,10770.345444784954
1735576614177,124,2,871,879.7846327368989,9793,-4037,-2747,10942.861919991497
1735576614207,124,2,871,879.7846327368989,9681,-4075,-4426,11398.107825424358
1735576614237,215,-95,946,974.764586964463,9620,-4136,-6128,12132.735882726534
1735576614267,215,-95,946,974.764586964463,9637,-4215,-7767,13075.331085674274
1735576614297,215,-95,946,974.764586964463,9670,-4289,-9411,14158.790273183653
1735576614327,215,-95,946,974.764586964463,9715,-4356,-11060,15351.858551979953
1735576614357,118,-42,954,962.1870919940675,9766,-4397,-12741,16644.562054917515
1735576614387,118,-42,954,962.1870919940675,9828,-4421,-14461,18034.837010630286
1735576614417,118,-42,954,962.1870919940675,9885,-4433,-16182,19473.619026775687
1735576614447,27,-103,1004,1009.6306255259891,9983,-4412,-17973,21027.476358326978
1735576614477,27,-103,1004,1009.6306255259891,10129,-4341,16157,19557.34059119491
1735576614507,27,-103,1004,1009.6306255259891,10225,-4240,14302,18085.22681638248
1735576614537,148,-14,994,1005.0552223634281,10254,-4130,12489,16678.62515317135
1735576614567,148,-14,994,1005.0552223634281,10069,-4082,10871,15369.649508040187
1735576614597,148,-14,994,1005.0552223634281,9908,-4069,9251,14152.958206678913
1735576614628,148,-14,994,1005.0552223634281,9773,-4088,7628,13054.104986554996
1735576614657,110,-9,1055,1060.757276666062,9722,-4131,5957,12127.171723035837
1735576614687,110,-9,1055,1060.757276666062,9698,-4181,4268,11390.688697352763
1735576614717,110,-9,1055,1060.757276666062,9690,-4234,2576,10883.870267510541
1735576614747,98,-123,937,950.1063098411672,9763,-4271,813,10687.309249759735
1735576614778,98,-123,937,950.1063098411672,9908,-4269,-990,10833.878576022531
1735576614807,98,-123,937,950.1063098411672,10025,-4237,-2790,11235.519302640176
1735576614838,174,-119,1005,1026.8700015094414,10104,-4177,-4591,11858.13754347621
1735576614867,174,-119,1005,1026.8700015094414,10086,-4116,-6313,12590.584617085897
1735576614897,174,-119,1005,1026.8700015094414,10056,-4059,-8033,13495.469832503053
1735576614927,174,-119,1005,1026.8700015094414,10017,-4008,-9749,14541.229452835136
1735576614957,114,-103,979,990.9823409122889,9935,-3976,-11418,15648.75474279024
1735576614986,114,-103,979,990.9823409122889,9868,-3956,-13110,16878.965015663725
1735576615018,114,-103,979,990.9823409122889,9808,-3949,-14802,18190.400462881513
1735576615047,-12,-26,940,940.436069065835,9797,-3948,-16579,19657.852222458077
1735576615077,-12,-26,940,940.436069065835,9813,-3935,17533,20474.014823673446
1735576615107,-12,-26,940,940.436069065835,9822,-3918,15647,18885.206300170514
1735576615137,-46,-117,972,980.0964238277783,9821,-3902,13770,17357.722920936376
1735576615167,-46,-117,972,980.0964238277783,9902,-3873,11874,15938.682787482785
1735576615198,-46,-117,972,980.0964238277783,9959,-3826,9983,14610.963212601693
1735576615228,-46,-117,972,980.0964238277783,9991,-3767,8097,13400.439507717649
1735576615258,249,-149,1005,1046.0530579277515,9884,-3771,6471,12401.118417304142
1735576615287,249,-149,1005,1046.0530579277515,9751,-3819,4948,11582.291051428469
1735576615317,249,-149,1005,1046.0530579277515,9651,-3891,3423,10954.38775103383
1735576615347,96,68,957,964.203816627999,9580,-3956,1799,10519.635782668523
1735576615377,96,68,957,964.203816627999,9498,-4023,38,10314.939505397015
1735576615407,96,68,957,964.203816627999,9448,-4106,-1727,10445.40420472085
1735576615438,135,-84,1042,1054.0611936695136,9423,-4201,-3499,10894.233841808244
1735576615468,135,-84,1042,1054.0611936695136,9514,-4300,-5232,11678.18564675181
1735576615497,135,-84,1042,1054.0611936695136,9614,-4378,-6973,12657.748970492345
1735576615528,135,-84,1042,1054.0611936695136,9718,-4435,-8720,13789.385374265235
1735576615557,-13,-102,1047,1052.0370715901602,9952,-4432,-10649,15234.373272307594
1735576615587,-13,-102,1047,1052.0370715901602,10174,-4363,-12625,16790.969894559395
1735576615617,-13,-102,1047,1052.0370715901602,10328,-4246,-14582,18366.56810620863
1735576615647,191,-44,922,942.6033099878231,10329,-4120,-16428,19837.888622532388
1735576615677,191,-44,922,942.6033099878231,10177,-4050,17885,20972.530939302487
1735576615707,191,-44,922,942.6033099878231,10037,-4010,16198,19472.97288551494
1735576615737,121,-68,972,981.8599696494404,9884,-3999,14556,18043.353152892618
1735576615767,121,-68,972,981.8599696494404,9764,-4005,12928,16688.586069526682
1735576615797,121,-68,972,981.8599696494404,9668,-4034,11297,15406.673521562012
1735576615828,121,-68,972,981.8599696494404,9595,-4081,9663,14215.912035462234
1735576615887,128,-144,953,972.2803093758507,9675,-4140,7959,13194.351291367075
1735576615888,128,-144,953,972.2803093758507,9773,-4179,6255,12332.906997135753
1735576615917,128,-144,953,972.2803093758507,9863,-4197,4550,11644.572898994622
1735576615947,-35,-92,927,932.2113494267273,9956,-4178,2772,11147.268903188799
1735576615977,-35,-92,927,932.2113494267273,10062,-4110,872,10903.95928092177
1735576616007,-35,-92,927,932.2113494267273,10126,-4020,-1016,10942.053372196646
1735576616037,117,-100,963,975.2220260022842,10151,-3919,-2901,11261.312667713299
1735576616067,117,-100,963,975.2220260022842,10058,-3854,-4632,11724.849849784858
1735576616097,117,-100,963,975.2220260022842,9967,-3810,-6363,12423.564625340023
1735576616128,117,-100,963,975.2220260022842,9882,-3785,-8094,13322.64932361428
1735576616157,263,-179,939,991.4287669822779,9746,-3822,-9635,14227.628931062267
1735576616188,263,-179,939,991.4287669822779,9633,-3891,-11125,15221.701448918251
1735576616217,263,-179,939,991.4287669822779,9553,-3979,-12617,16318.116895034182
1735576616248,321,87,798,864.5310867747903,9405,-4097,-14057,17402.260858865437
1735576616277,321,87,798,864.5310867747903,9131,-4272,-15434,18434.573523680985
1735576616307,321,87,798,864.5310867747903,8928,-4487,-16807,19552.943563566074
1735576616338,61,-75,1018,1022.580070214553,8836,-4722,17759,20390.05299159372
1735576616367,61,-75,1018,1022.580070214553,9266,-4896,15845,18997.199714694794
1735576616397,61,-75,1018,1022.580070214553,9678,-4978,13904,17656.879225956098
1735576616428,61,-75,1018,1022.580070214553,10040,-4976,11958,16387.676467394638
1735576616457,6,-166,1042,1055.156860376693,10361,-4909,10022,15227.904846038407
1735576616487,6,-166,1042,1055.156860376693,10628,-4767,8094,14184.199272429869
1735576616518,6,-166,1042,1055.156860376693,10791,-4573,6207,13262.158911730774
1735576616548,95,-148,953,969.0913269656271,10828,-4359,4395,12472.469282383501
1735576616577,95,-148,953,969.0913269656271,10753,-4164,2671,11836.390750562436
1735576616607,95,-148,953,969.0913269656271,10642,-3983,956,11403.086818927584
1735576616638,76,-48,891,895.5227523631099,10503,-3816,-755,11200.21830144395
1735576616667,76,-48,891,895.5227523631099,10270,-3672,-2491,11187.56296071669
1735576616697,76,-48,891,895.5227523631099,10048,-3579,-4232,11475.250280494975
1735576616728,76,-48,891,895.5227523631099,9847,-3536,-5977,12049.532522052463
1735576616757,185,-77,956,976.7753068131892,9674,-3593,-7599,12815.643799669215
1735576616787,185,-77,956,976.7753068131892,9533,-3691,-9185,13742.845229427565
1735576616818,185,-77,956,976.7753068131892,9437,-3815,-10773,14821.225421671448
1735576616847,19,-22,1007,1007.4194756902409,9448,-3901,-12530,16170.448509549758
1735576616878,19,-22,1007,1007.4194756902409,9535,-3939,-14464,17766.238825367625
1735576616908,19,-22,1007,1007.4194756902409,9616,-3956,-16399,19417.636133165128
1735576616937,38,-80,990,993.953721256679,9655,-3966,17709,20556.18792480746
1735576616967,38,-80,990,993.953721256679,9670,-3993,15926,19054.931776314497
1735576616997,38,-80,990,993.953721256679,9688,-4016,14141,17605.495761267277
1735576617028,38,-80,990,993.953721256679,9710,-4034,12356,16224.302511972586
1735576617058,228,-104,928,961.240864716019,9600,-4101,10822,15036.418622797119
1735576617087,228,-104,928,961.240864716019,9488,-4199,9358,13972.326542133203
1735576617117,228,-104,928,961.240864716019,9413,-4314,7892,13019.171594229796
1735576617147,170,-20,948,963.3296424381427,9439,-4436,6310,12189.705369696185
1735576617177,170,-20,948,963.3296424381427,9510,-4545,4629,11511.94014925373
1735576617207,170,-20,948,963.3296424381427,9596,-4639,2938,11056.011079951033
1735576617237,181,-150,1065,1090.6355945044156,9703,-4706,1208,10851.447322822887
1735576617267,181,-150,1065,1090.6355945044156,9924,-4720,-572,11004.151943698342
1735576617298,181,-150,1065,1090.6355945044156,10106,-4692,-2349,11387.005796081778
1735576617328,0,-108,1104,1109.2700302451158,10252,-4628,-4113,11976.587869673065
1735576617358,0,-108,1104,1109.2700302451158,10463,-4481,-6064,12896.73702918688
1735576617388,0,-108,1104,1109.2700302451158,10582,-4291,-7982,13932.111433662882
1735576617417,0,-108,1104,1109.2700302451158,10617,-4077,-9872,15059.847343183796
1735576617447,124,-32,909,917.976579221932,10518,-3887,-11672,16185.570023944167
1735576617477,124,-32,909,917.976579221932,10302,-3764,-13371,17294.00303573467
1735576617507,124,-32,909,917.976579221932,10098,-3687,-15075,18515.377338849998
1735576617537,57,-64,987,990.7138840250499,9901,-3656,-16769,19814.022761670585
1735576617567,57,-64,987,990.7138840250499,9774,-3652,17489,20365.001865946393
1735576617597,57,-64,987,990.7138840250499,9670,-3676,15746,18840.339487387162
1735576617628,81,-3,917,920.5753635634619,9591,-3718,13989,17363.839609948027
1735576617657,81,-3,917,920.5753635634619,9475,-3779,12234,15928.8173446744
1735576617687,81,-3,917,920.5753635634619,9395,-3863,10475,14591.58726801166
1735576617717,81,-3,917,920.5753635634619,9351,-3961,8710,13378.894647914678
1735576617747,-108,-59,1009,1016.4772501143349,9481,-4058,6790,12347.502783964052
1735576617777,-108,-59,1009,1016.4772501143349,9667,-4103,4794,11544.17316224943
1735576617807,-108,-59,1009,1016.4772501143349,9830,-4103,2797,11013.024925060326
1735576617838,-7,-107,929,935.1678993635314,9971,-4066,802,10797.981339120752
1735576617868,-7,-107,929,935.1678993635314,10070,-4018,-1084,10896.067180409636
1735576617897,-7,-107,929,935.1678993635314,10135,-3949,-2963,11273.51741915539
1735576617928,75,-205,934,959.1694323736552,10160,-3869,-4826,11894.748294940924
1735576617957,75,-205,934,959.1694323736552,10176,-3801,-6578,12699.159854100586
1735576617987,75,-205,934,959.1694323736552,10171,-3731,-8325,13662.914293810087
1735576618017,75,-205,934,959.1694323736552,10149,-3663,-10070,14758.884442938092
1735576618047,94,-87,942,950.667660121033,10055,-3616,-11799,15918.38189012941
1735576618077,94,-87,942,950.667660121033,9934,-3600,-13523,17161.465118106902
1735576618107,94,-87,942,950.667660121033,9833,-3610,-15249,18500.053783705604
1735576618137,74,-183,1036,1054.6378525351724,9796,-3663,-16964,19928.785236436262
1735576618168,74,-183,1036,1054.6378525351724,9843,-3721,17313,20260.070557626397
1735576618197,74,-183,1036,1054.6378525351724,9896,-3768,15588,18844.47887313417
1735576618228,99,-293,1055,1099.3975623040103,9937,-3790,13841,17455.1238895632
1735576618257,99,-293,1055,1099.3975623040103,10022,-3772,12078,16141.45445739014
1735576618288,99,-293,1055,1099.3975623040103,10086,-3735,10318,14904.319675852366
1735576618318,99,-293,1055,1099.3975623040103,10128,-3685,8562,13764.572387110324
1735576618347,55,-83,993,997.9794587064405,10061,-3619,6750,12644.500069200047
1735576618377,55,-83,993,997.9794587064405,9945,-3579,4923,11659.682457082612
1735576618407,55,-83,993,997.9794587064405,9841,-3567,3094,10915.200685282887
1735576618437,27,-194,937,957.2533624908298,9760,-3595,1302,10482.214889993431
1735576618467,27,-194,937,957.2533624908298,9755,-3634,-486,10421.236826787883
1735576618497,27,-194,937,957.2533624908298,9762,-3674,-2278,10676.338510931546
1735576618528,23,-122,1005,1012.6391262438955,9806,-3712,-4088,11253.813753568165
1735576618557,23,-122,1005,1012.6391262438955,9849,-3745,-5938,12094.943984988107
1735576618588,23,-122,1005,1012.6391262438955,9893,-3766,-7789,13142.4018352811
1735576618617,23,-122,1005,1012.6391262438955,9934,-3778,-9641,14349.44322961696
1735576618647,-12,-41,996,996.9157436814809,9945,-3767,-11526,15682.537741067292
1735576618677,-12,-41,996,996.9157436814809,9936,-3756,-13422,17116.708678948766
1735576618708,-12,-41,996,996.9157436814809,9927,-3747,-15318,18634.013577326812
1735576618738,-73,-308,1058,1104.3355468334794,9987,-3748,-17207,20245.20985319737
1735576618767,-73,-308,1058,1104.3355468334794,10187,-3702,16879,20059.42207542381
1735576618798,-73,-308,1058,1104.3355468334794,10333,-3609,14977,18550.102398639207
1735576618828,43,-127,944,953.4746981435848,10412,-3485,13091,17085.93719993141
1735576618857,43,-127,944,953.4746981435848,10219,-3408,11332,15635.109497537906
1735576618918,43,-127,944,953.4746981435848,10045,-3376,9569,14278.135802687968
1735576618919,43,-127,944,953.4746981435848,9897,-3384,7803,13049.477920591306
1735576618948,-68,-145,937,950.5882389341875,9883,-3396,5901,12001.179358713043
1735576618978,-68,-145,937,950.5882389341875,9896,-3398,3962,11188.148372273225
1735576619008,-68,-145,937,950.5882389341875,9908,-3398,2023,10668.05497736115
1735576619038,86,-76,982,988.6839737752402,9803,-3417,196,10383.309395371016
1735576619067,86,-76,982,988.6839737752402,9608,-3500,-1498,10334.779533207276
1735576619097,86,-76,982,988.6839737752402,9467,-3623,-3195,10628.181547188588
1735576619128,-33,-83,940,944.2340811472545,9389,-3774,-4888,11237.835245277447
1735576619157,-33,-83,940,944.2340811472545,9461,-3919,-6703,12239.252060481474
1735576619187,-33,-83,940,944.2340811472545,9559,-4043,-8529,13433.695359058876
1735576619217,-33,-83,940,944.2340811472545,9674,-4143,-10364,14770.349386524342
1735576619247,81,-243,1005,1037.128246650336,9852,-4223,-12166,16214.41300201768
1735576619278,81,-243,1005,1037.128246650336,10036,-4265,-13929,17689.786940491962
1735576619308,81,-243,1005,1037.128246650336,10198,-4269,-15693,19196.192695427915
1735576619338,-20,-114,901,908.4035446870515,10332,-4214,-17532,20781.699737990635
1735576619367,-20,-114,901,908.4035446870515,10402,-4111,16544,19970.124210930688
1735576619397,-20,-114,901,908.4035446870515,10426,-3994,14635,18407.51849109488
1735576619428,-63,-241,1029,1058.7213986691684,10402,-3871,12747,16901.84173396497
1735576619487,-63,-241,1029,1058.7213986691684,10454,-3720,10847,15517.149383826914
1735576619488,-63,-241,1029,1058.7213986691684,10451,-3558,8960,14218.45156829674
1735576619517,-63,-241,1029,1058.7213986691684,10404,-3400,7080,13035.70542778564
1735576619547,-91,-46,1067,1071.8609984508253,10250,-3242,5150,11920.384389775356
1735576619577,-91,-46,1067,1071.8609984508253,10041,-3139,3208,10998.466529475825
1735576619608,-91,-46,1067,1071.8609984508253,9846,-3093,1261,10397.138356297852
1735576619637,-77,-124,1070,1079.909718448723,9710,-3091,-701,10214.195122475388
1735576619667,-77,-124,1070,1079.909718448723,9642,-3112,-2666,10476.653282418007
1735576619697,-77,-124,1070,1079.909718448723,9593,-3150,-4633,11109.133089489926
1735576619739,35,-156,945,958.4289227689239,9557,-3200,-6607,12051.087004913707
1735576619757,35,-156,945,958.4289227689239,9501,-3277,-8483,13151.768664328003
1735576619787,35,-156,945,958.4289227689239,9476,-3364,-10361,14438.192165226226
1735576619818,35,-156,945,958.4289227689239,9480,-3454,-12244,15865.561824278395
1735576619847,-125,-186,887,914.8715756869923,9509,-3534,-14075,17349.80870211542
1735576619878,-125,-186,887,914.8715756869923,9588,-3589,-15965,18965.544811578708
1735576619908,-125,-186,887,914.8715756869923,9668,-3624,-17857,20627.070780893733
1735576619937,-89,-108,944,954.31703327563,9748,-3650,16250,19297.888589169543
1735576619967,-89,-108,944,954.31703327563,9785,-3672,14376,17773.552965009556
1735576619997,-89,-108,944,954.31703327563,9820,-3685,12502,16319.05723379877
1735576620028,-146,-194,1027,1055.3108546774263,9882,-3690,10610,14961.354350459053
1735576620058,-146,-194,1027,1055.3108546774263,10086,-3647,8626,13763.570793947332
1735576620087,-146,-194,1027,1055.3108546774263,10235,-3554,6653,12714.108305343321
1735576620118,-146,-194,1027,1055.3108546774263,10324,-3428,4692,11846.983751149488
1735576620148,51,-120,1125,1132.5307942833167,10255,-3316,2825,11141.880720955507
1735576620178,51,-120,1125,1132.5307942833167,10124,-3249,1022,10681.566411346232
1735576620208,51,-120,1125,1132.5307942833167,10001,-3214,-782,10533.81796880884
1735576620238,0,-175,959,974.8363965302075,9839,-3226,-2510,10654.252531266564
1735576620267,0,-175,959,974.8363965302075,9720,-3277,-4227,11094.352527299645
1735576620298,0,-175,959,974.8363965302075,9634,-3353,-5945,11806.760351595183
1735576620328,53,-199,1012,1032.7410130327933,9616,-3428,-7740,12811.176370653868
1735576620358,53,-199,1012,1032.7410130327933,9665,-3466,-9635,14080.433445032862
1735576620388,53,-199,1012,1032.7410130327933,9716,-3492,-11530,15476.938327718439
1735576620418,53,-199,1012,1032.7410130327933,9765,-3504,-13426,16967.342661713414
1735576620448,-13,-77,930,933.2727361280838,9658,-3534,-15200,18352.278332675756
1735576620478,-13,-77,930,933.2727361280838,9560,-3590,-17000,19831.33127150066
1735576620508,-13,-77,930,933.2727361280838,9495,-3666,17196,19982.417196125196
1735576620538,-146,-93,982,997.140411376452,9532,-3716,15249,18362.997603877207
1735576620568,-146,-93,982,997.140411376452,9647,-3716,13162,16736.532167686353
1735576620598,-146,-93,982,997.140411376452,9737,-3686,11079,15203.28931514493
1735576620627,-49,-118,961,969.4565487942201,9783,-3652,9061,13825.55293650131
1735576620657,-49,-118,961,969.4565487942201,9749,-3663,7263,12696.918484419753
1735576620688,-49,-118,961,969.4565487942201,9725,-3681,5464,11746.517867010632
1735576620718,-49,-118,961,969.4565487942201,9710,-3703,3664,11019.129049067353
1735576620748,-189,-149,933,963.540865765433,9792,-3662,1652,10584.073506925393
1735576620778,-189,-149,933,963.540865765433,9874,-3588,-400,10513.30680613859
1735576620808,-189,-149,933,963.540865765433,9915,-3495,-2444,10793.302830922516
1735576620838,98,-32,981,986.4020478486448,9881,-3424,-4381,11338.037660900585
1735576620868,98,-32,981,986.4020478486448,9705,-3424,-6122,11974.543206318978
1735576620898,98,-32,981,986.4020478486448,9563,-3463,-7866,12857.577299009328
1735576620928,105,-6,881,887.2553183836094,9436,-3527,-9598,13914.001185855921
1735576620957,105,-6,881,887.2553183836094,9286,-3615,-11296,15063.121754802356
1735576620988,105,-6,881,887.2553183836094,9184,-3731,-12997,16345.89324570548
1735576621018,105,-6,881,887.2553183836094,9127,-3865,-14702,17731.02247474747
1735576621048,-78,-114,1032,1041.203150206529,9329,-3948,-16667,19503.995334289844
1735576621078,-78,-114,1032,1041.203150206529,9578,-3958,17298,20164.93620123803
1735576621108,-78,-114,1032,1041.203150206529,9780,-3908,15271,18550.587726538477
1735576621138,-100,52,955,961.6283065717232,9879,-3821,13257,16968.875360494578
1735576621167,-100,52,955,961.6283065717232,9855,-3735,11240,15408.077427115948
1735576621197,-100,52,955,961.6283065717232,9810,-3657,9229,13956.510667068615
1735576621227,-83,-46,1019,1023.409009145415,9738,-3599,7250,12662.698961911714
1735576621257,-83,-46,1019,1023.409009145415,9710,-3560,5348,11642.972300920414
1735576621287,-83,-46,1019,1023.409009145415,9677,-3529,3448,10862.17630127591
1735576621317,71,8,1028,1030.4799852495923,9653,-3515,1548,10389.029694827135
1735576621347,71,8,1028,1030.4799852495923,9526,-3554,-192,10169.19151161979
1735576621378,71,8,1028,1030.4799852495923,9432,-3620,-1935,10286.459497805841
1735576621408,71,8,1028,1030.4799852495923,9372,-3705,-3682,10729.330501014498
1735576621438,-47,115,984,991.8114740211469,9264,-3773,-5497,11413.773871949628
1735576621468,-47,115,984,991.8114740211469,9191,-3862,-7360,12391.89755445065
1735576621498,-47,115,984,991.8114740211469,9156,-3963,-9229,13590.884665833935
1735576621528,-28,1,969,969.404972134969,9150,-4077,-11099,14950.994281317882
1735576621558,-28,1,969,969.404972134969,9250,-4194,-12947,16455.301425376565
1735576621587,-28,1,969,969.404972134969,9364,-4284,-14804,18033.179641982166
1735576621618,-14,-12,1027,1027.1655173339884,9505,-4351,-16679,19684.137446177316
1735576621647,-14,-12,1027,1027.1655173339884,9682,-4386,17434,20418.679585124988
1735576621677,-14,-12,1027,1027.1655173339884,9835,-4384,15549,18913.436546540135
1735576621708,-14,-12,1027,1027.1655173339884,9958,-4349,13670,17462.659161765714
1735576621738,-163,-209,1064,1096.5153897688806,10284,-4187,11555,16025.281588789634
1735576621767,-163,-209,1064,1096.5153897688806,10552,-3919,9437,14688.779186848715
1735576621798,-163,-209,1064,1096.5153897688806,10668,-3591,7370,13454.308046124112
1735576621827,-55,-144,954,966.3731163479249,10595,-3265,5396,12330.087834237029
1735576621858,-55,-144,954,966.3731163479249,10375,-3004,3507,11356.218120483598
1735576621888,-55,-144,954,966.3731163479249,10131,-2803,1607,10633.739652633969
1735576621918,-33,-127,961,969.9170067588258,9867,-2682,-269,10228.547013139256
1735576621948,-33,-127,961,969.9170067588258,9581,-2667,-2070,10158.41276971949
1735576621977,-33,-127,961,969.9170067588258,9346,-2722,-3874,10476.873388563976
1735576622007,-33,-127,961,969.9170067588258,9170,-2833,-5678,11151.43367464471
1735576622038,-72,-101,1007,1014.6102700051878,9089,-2959,-7609,12217.302607367961
1735576622068,-72,-101,1007,1014.6102700051878,9058,-3101,-9556,13527.035928096
1735576622098,-72,-101,1007,1014.6102700051878,9073,-3242,-11507,15008.029251037593
1735576622127,-176,-80,1008,1026.372252158056,9115,-3374,-13439,16585.349619468383
1735576622157,-176,-80,1008,1026.372252158056,9201,-3486,-15420,18291.71935603649
1735576622188,-176,-80,1008,1026.372252158056,9303,-3570,-17407,20057.2769338213
1735576622218,-68,-34,941,944.0662053055389,9426,-3629,16589,19421.99881577589
1735576622248,-68,-34,941,944.0662053055389,9475,-3684,14674,17851.43571256945
1735576622277,-68,-34,941,944.0662053055389,9530,-3726,12756,16352.966458719347
1735576622307,-68,-34,941,944.0662053055389,9586,-3754,10836,14946.665447517049
1735576622337,-38,-137,1122,1130.971706100555,9733,-3737,8844,13671.605392198826
1735576622367,-38,-137,1122,1130.971706100555,9864,-3680,6868,12570.215590832164
1735576622397,-38,-137,1122,1130.971706100555,9951,-3593,4903,11660.680040203488
1735576622428,-131,-90,1023,1035.272910879059,9948,-3473,2963,10945.49231419035
1735576622458,-131,-90,1023,1035.272910879059,9895,-3345,990,10491.90878725125
1735576622488,-131,-90,1023,1035.272910879059,9815,-3235,-978,10380.555572800524
1735576622518,-121,-86,907,919.0680061888783,9705,-3158,-2930,10618.139620479664
1735576622548,-121,-86,907,919.0680061888783,9561,-3135,-4840,11165.417412707866
1735576622578,-121,-86,907,919.0680061888783,9440,-3148,-6754,12026.63793418593
1735576622608,-121,-86,907,919.0680061888783,9346,-3191,-8670,13141.50284404337
1735576622638,-133,22,976,985.265953943401,9297,-3287,-10636,14503.898579347555
1735576622668,-133,22,976,985.265953943401,9260,-3399,-12611,16010.562825834699
1735576622697,-133,22,976,985.265953943401,9263,-3514,-14592,17637.398589361186
1735576622727,-28,-7,1018,1018.4090533768835,9262,-3621,-16524,19285.716502116276
1735576622757,-28,-7,1018,1018.4090533768835,9257,-3729,17621,20250.855068366865
1735576622787,-28,-7,1018,1018.4090533768835,9282,-3834,15761,18688.611532160434
1735576622818,-147,-167,995,1019.5700074050825,9319,-3926,13896,17185.92601520209
1735576622848,-147,-167,995,1019.5700074050825,9555,-3959,11903,15768.738535469474
1735576622878,-147,-167,995,1019.5700074050825,9754,-3936,9913,14453.379570190496
1735576622907,-147,-167,995,1019.5700074050825,9905,-3866,7933,13266.02691087275
1735576622937,-38,-13,901,901.894672342619,9912,-3784,6056,12216.445309499813
1735576622967,-38,-13,901,901.894672342619,9839,-3724,4220,11335.011998229204
1735576622998,-38,-13,901,901.894672342619,9764,-3682,2386,10704.476446795517
1735576623027,-24,1,989,989.291665789215,9689,-3670,554,10375.574056407675
1735576623058,-24,1,989,989.291665789215,9615,-3685,-1270,10374.986746979486
1735576623088,-24,1,989,989.291665789215,9559,-3716,-3097,10713.288290716348
1735576623118,-217,-243,1088,1135.729721368601,9541,-3753,-4955,11387.173266443257
1735576623148,-217,-243,1088,1135.729721368601,9877,-3700,-7075,12700.423378769701
1735576623178,-217,-243,1088,1135.729721368601,10123,-3562,-9173,14117.60964186218
1735576623208,-217,-243,1088,1135.729721368601,10269,-3365,-11247,15597.134191895639
1735576623238,-87,-62,967,972.883343469298,10162,-3180,-13216,16971.779517775973
1735576623268,-87,-62,967,972.883343469298,9964,-3054,-15145,18384.211623020445
1735576623298,-87,-62,967,972.883343469298,9772,-2983,-17079,19901.821876401165
1735576623328,-62,-128,1029,1038.7824603833085,9573,-2978,17057,19785.147510190567
1735576623358,-62,-128,1029,1038.7824603833085,9420,-3026,15241,18170.887622788272
1735576623387,-62,-128,1029,1038.7824603833085,9309,-3110,13424,16629.292137670804
1735576623418,-99,-15,931,936.3690511758705,9256,-3213,11589,15175.698534169687
1735576623448,-99,-15,931,936.3690511758705,9200,-3327,9681,13763.382215138836
1735576623477,-99,-15,931,936.3690511758705,9186,-3449,7768,12514.792087765582
1735576623508,-99,-15,931,936.3690511758705,9209,-3569,5850,11478.934706670301
1735576623538,-8,-65,865,867.4756480731894,9234,-3695,4002,10720.810836872368
1735576623568,-8,-65,865,867.4756480731894,9284,-3813,2178,10270.117282679881
1735576623597,-8,-65,865,867.4756480731894,9357,-3914,348,10148.593449340653
1735576623627,62,-61,1008,1011.7455213639446,9452,-3997,-1489,10369.832881970664
1735576623657,62,-61,1008,1011.7455213639446,9532,-4063,-3294,10872.78386614946
1735576623687,62,-61,1008,1011.7455213639446,9615,-4111,-5103,11635.684552272805
1735576623718,28,-69,966,968.8658317847729,9708,-4143,-6914,12617.967704824736
1735576623748,28,-69,966,968.8658317847729,9846,-4148,-8764,13818.73062187696
1735576623778,28,-69,966,968.8658317847729,9958,-4124,-10610,15124.19386281464
1735576623808,28,-69,966,968.8658317847729,10042,-4076,-12450,16506.30303853652
1735576623837,181,-70,1063,1080.5692943999472,9958,-4083,-14077,17719.892268295538
1735576623867,181,-70,1063,1080.5692943999472,9860,-4121,-15649,18949.761001131385
1735576623897,181,-70,1063,1080.5692943999472,9788,-4176,-17224,20246.236588561344
1735576623928,-78,-157,912,928.6963981840352,9837,-4171,17005,20083.172931586283
1735576623958,-78,-157,912,928.6963981840352,10025,-4071,15004,18498.47782927017
1735576623988,-78,-157,912,928.6963981840352,10142,-3930,13024,16968.489620470056
1735576624018,69,25,987,989.7247091994824,10188,-3789,11111,15543.686370999641
1735576624048,69,25,987,989.7247091994824,9960,-3749,9455,14235.646314797232
1735576624078,69,25,987,989.7247091994824,9764,-3757,7795,13046.561615996761
1735576624107,69,25,987,989.7247091994824,9606,-3803,6132,12014.13621530903
1735576624137,-42,-92,1041,1045.9010469446907,9656,-3843,4295,11245.177188466174
1735576624167,-42,-92,1041,1045.9010469446907,9756,-3853,2417,10764.155052766566
1735576624197,-42,-92,1041,1045.9010469446907,9839,-3840,540,10575.590810919266
1735576624227,-51,-202,1117,1136.2631737410131,9910,-3805,-1337,10699.23801025101
1735576624258,-51,-202,1117,1136.2631737410131,10003,-3741,-3217,11153.662134025757
1735576624287,-51,-202,1117,1136.2631737410131,10060,-3657,-5089,11852.222154516005
1735576624317,66,-52,946,949.7241704831988,10069,-3564,-6949,12742.662908513275
1735576624348,66,-52,946,949.7241704831988,9847,-3527,-8679,13591.4744969043
1735576624378,66,-52,946,949.7241704831988,9658,-3539,-10413,14636.668131784638
1735576624408,66,-52,946,949.7241704831988,9507,-3591,-12150,15839.849431102557
1735576624438,-33,-144,1039,1049.4503323168753,9538,-3640,-13987,17316.44342814078
1735576624467,-33,-144,1039,1049.4503323168753,9615,-3665,-15860,18905.556061644947
1735576624498,-33,-144,1039,1049.4503323168753,9685,-3672,-17734,20537.22388737095
1735576624528,156,57,916,930.9355509378723,9640,-3694,16476,19443.091626590664
1735576624558,156,57,916,930.9355509378723,9433,-3782,14828,17976.501244680512
1735576624588,156,57,916,930.9355509378723,9281,-3909,13176,16583.854135875652
1735576624618,-31,-86,919,923.5355975813818,9187,-4052,11502,15268.126178414954
1735576624648,-31,-86,919,923.5355975813818,9389,-4141,9571,14032.292863249399
1735576624677,-31,-86,919,923.5355975813818,9580,-4181,7634,12943.535722514154
1735576624707,-31,-86,919,923.5355975813818,9745,-4177,5698,12036.592458000729
1735576624737,118,-75,975,984.9741113349122,9845,-4196,3921,11397.573513691412
1735576624768,118,-75,975,984.9741113349122,9898,-4209,2199,10978.236925845607
1735576624798,118,-75,975,984.9741113349122,9944,-4211,477,10809.40266619761
1735576624828,-87,-112,958,968.4404989466312,10027,-4175,-1358,10946.027498595095
1735576624858,-87,-112,958,968.4404989466312,10178,-4070,-3354,11463.241251932195
1735576624888,-87,-112,958,968.4404989466312,10264,-3933,-5331,12216.290189742547
1735576624918,191,-55,993,1012.6968944358425,10297,-3793,-7287,13172.525460214529
1735576624948,191,-55,993,1012.6968944358425,10103,-3761,-8937,14003.060344081932
1735576624978,191,-55,993,1012.6968944358425,9937,-3768,-10589,15002.29029181878
1735576625008,191,-55,993,1012.6968944358425,9803,-3809,-12245,16141.478092169875
1735576625037,24,-6,1017,1017.3008404596941,9750,-3804,-14087,17549.25881625774
1735576625068,24,-6,1017,1017.3008404596941,9724,-3801,-15989,19095.860755671634
1735576625098,24,-6,1017,1017.3008404596941,9702,-3803,-17892,20705.44075840937
1735576625127,112,-213,1016,1044.1115840751888,9708,-3843,16286,19345.4829094546
1735576625157,112,-213,1016,1044.1115840751888,9791,-3888,14551,17964.181751474236
1735576625187,112,-213,1016,1044.1115840751888,9870,-3915,12815,16642.366117833124
1735576625218,76,-52,890,894.7513621112851,9958,-3904,11058,15384.483871745584
1735576625248,76,-52,890,894.7513621112851,9945,-3841,9223,14096.809390780596
1735576625278,76,-52,890,894.7513621112851,9917,-3783,7391,12933.864812962907
1735576625308,217,-73,962,988.8690509870354,9861,-3759,5599,11946.47240820486
1735576625338,217,-73,962,988.8690509870354,9715,-3832,4031,11194.391899518258
1735576625368,217,-73,962,988.8690509870354,9610,-3932,2461,10670.953331357045
1735576625398,217,-73,962,988.8690509870354,9544,-4049,888,10405.329451776142
1735576625428,22,-121,985,992.6479738557874,9553,-4127,-815,10438.206886242484
1735576625458,22,-121,985,992.6479738557874,9633,-4182,-2598,10818.198417481535
1735576625488,22,-121,985,992.6479738557874,9713,-4219,-4384,11461.316940037912
1735576625518,84,-199,1066,1087.664010620927,9836,-4237,-6212,12380.953477014604
1735576625578,84,-199,1066,1087.664010620927,10046,-4219,-8047,13545.341856151139
1735576625579,84,-199,1066,1087.664010620927,10210,-4156,-9874,14799.06456503248
1735576625608,144,-141,914,935.9556613429933,10265,-4069,-11631,16037.678977956879
1735576625638,144,-141,914,935.9556613429933,10099,-4023,-13207,17105.530655317303
1735576625668,144,-141,914,935.9556613429933,9953,-4008,-14785,18268.073187941853
1735576625698,144,-141,914,935.9556613429933,9830,-4020,-16365,19509.03700852505
1735576625727,147,-224,1070,1103.0344509579018,9990,-4048,17846,20848.647917790735
1735576625757,147,-224,1070,1103.0344509579018,10147,-4038,16060,19421.396782929904
1735576625787,147,-224,1070,1103.0344509579018,10271,-3994,14280,18037.845686223176
1735576625818,136,-180,1023,1047.5805458292932,10248,-3906,12574,16684.837907513516
1735576625848,136,-180,1023,1047.5805458292932,10145,-3822,10896,15370.47575711305
1735576625878,136,-180,1023,1047.5805458292932,10040,-3759,9219,14139.364978668596
1735576625908,288,-127,985,1034.0686630973787,9975,-3729,7531,13043.08349279418
1735576625937,288,-127,985,1034.0686630973787,9846,-3770,5987,12124.388025793301
1735576625968,288,-127,985,1034.0686630973787,9748,-3835,4441,11377.75065643469
1735576625998,288,-127,985,1034.0686630973787,9681,-3917,2893,10836.701481539481
1735576626028,156,-253,909,956.3608105730807,9686,-4003,1333,10565.012730706954
1735576626057,156,-253,909,956.3608105730807,9768,-4068,-278,10584.882238362408
1735576626087,156,-253,909,956.3608105730807,9851,-4117,-1893,10843.216266403617
1735576626118,75,-96,1109,1115.6710984873635,9971,-4138,-3614,11384.41395066079
1735576626148,75,-96,1109,1115.6710984873635,10056,-4128,-5431,12151.513527129038
1735576626177,75,-96,1109,1115.6710984873635,10122,-4099,-7244,13104.664093367674
1735576626207,9,-203,989,1009.6588532766897,10145,-4050,-9063,14193.713185773482
1735576626238,9,-203,989,1009.6588532766897,10234,-3954,-10968,15513.410198921449
1735576626267,9,-203,989,1009.6588532766897,10277,-3839,-12860,16903.675635789987
1735576626297,9,-203,989,1009.6588532766897,10278,-3717,-14742,18351.564974137764
1735576626327,44,-186,897,917.1373942872464,10118,-3621,-16452,19650.798177173365
1735576626357,44,-186,897,917.1373942872464,9956,-3565,17847,20744.796214954727
1735576626388,44,-186,897,917.1373942872464,9811,-3544,16144,19220.936319544893
1735576626418,-104,-65,910,918.2270960933357,9807,-3538,14263,17667.140742066895
1735576626449,-104,-65,910,918.2270960933357,9844,-3510,12219,16078.818271253644
1735576626479,-104,-65,910,918.2270960933357,9866,-3473,10179,14594.921239938227
1735576626509,-36,-119,940,948.1861631557381,9864,-3462,8187,13278.211814849166
1735576626538,-36,-119,940,948.1861631557381,9864,-3518,6353,12248.895011387762
1735576626568,-36,-119,940,948.1861631557381,9879,-3573,4518,11435.615156168906
1735576626598,-36,-119,940,948.1861631557381,9906,-3623,2679,10882.647012560868
1735576626628,-142,-44,899,911.2085381513938,9913,-3511,604,10533.731817357038
1735576626657,-142,-44,899,911.2085381513938,9882,-3398,-1499,10556.861702229504
1735576626688,-142,-44,899,911.2085381513938,9822,-3298,-3597,10967.538329087343
1735576626718,-108,-80,982,991.1548819432813,9715,-3294,-5512,11645.334044156913
1735576626748,-108,-80,982,991.1548819432813,9625,-3353,-7322,12549.697924651413
1735576626777,-108,-80,982,991.1548819432813,9567,-3432,-9135,13665.809086914685
1735576626807,-87,-115,977,987.5844267706939,9544,-3506,-10986,14969.040316600125
1735576626837,-87,-115,977,987.5844267706939,9564,-3551,-12884,16434.0242484913
1735576626867,-87,-115,977,987.5844267706939,9593,-3588,-14785,17985.983931939892
1735576626897,-87,-115,977,987.5844267706939,9627,-3618,-16688,19602.509966838432
1735576626928,-45,-148,922,934.8866241422005,9624,-3656,17508,20310.53362174416
1735576626958,-45,-148,922,934.8866241422005,9633,-3696,15718,18801.87833701729
1735576626988,-45,-148,922,934.8866241422005,9650,-3732,13926,17348.884690377072
1735576627018,33,-166,1079,1092.1932063513304,9747,-3758,12042,15941.654148801497
1735576627047,33,-166,1079,1092.1932063513304,9851,-3761,10156,14640.070286716522
1735576627077,33,-166,1079,1092.1932063513304,9936,-3741,8273,13459.632461549609
1735576627107,269,-91,919,961.8747319687735,9957,-3718,6453,12434.08951230447
1735576627138,269,-91,919,961.8747319687735,9699,-3794,5007,11555.73822825699
1735576627167,269,-91,919,961.8747319687735,9497,-3914,3561,10871.66620164545
1735576627198,269,-91,919,961.8747319687735,9351,-4068,2115,10414.559520210156
1735576627228,259,-24,937,972.433031113197,9208,-4220,675,10151.418078278522
1735576627257,259,-24,937,972.433031113197,9101,-4396,-769,10136.290149754002
1735576627288,259,-24,937,972.433031113197,9044,-4585,-2218,10379.580193822869
1735576627318,-37,-84,1013,1017.1499397827245,9256,-4772,-3901,11120.401116866244
1735576627348,-37,-84,1013,1017.1499397827245,9737,-4861,-5910,12384.126533591298
1735576627378,-37,-84,1013,1017.1499397827245,10155,-4846,-7921,13760.449919969913
1735576627408,-201,-302,1027,1089.1896070014623,10473,-4750,-9903,15176.153597008697
1735576627438,-201,-302,1027,1089.1896070014623,10966,-4511,-12016,16881.544153305407
1735576627468,-201,-302,1027,1089.1896070014623,11255,-4163,-14044,18472.669812455373
1735576627498,-201,-302,1027,1089.1896070014623,11360,-3750,-16003,19980.19291698656
1735576627528,-53,-95,1013,1018.8243224422943,11180,-3357,-17884,21356.481568835257
1735576627557,-53,-95,1013,1018.8243224422943,10865,-3044,16272,19801.31674914575
1735576627588,-53,-95,1013,1018.8243224422943,10534,-2810,14412,18071.16487667577
1735576627618,-140,-142,823,846.8134387218946,10171,-2620,12509,16333.66835710827
1735576627648,-140,-142,823,846.8134387218946,9843,-2497,10536,14633.077393357831
1735576627678,-140,-142,823,846.8134387218946,9550,-2468,8551,13054.237817659061
1735576627708,83,-69,1060,1065.4811119865053,9355,-2540,6565,11707.55525291254
1735576627738,83,-69,1060,1065.4811119865053,9167,-2722,4800,10699.680976552525
1735576627768,83,-69,1060,1065.4811119865053,9057,-2942,3039,9996.005902359202
1735576627798,83,-69,1060,1065.4811119865053,9022,-3178,1280,9650.625264717308
1735576627828,123,-144,904,923.6238411821124,8857,-3367,-363,9482.347125052953
1735576627858,123,-144,904,923.6238411821124,8774,-3579,-1993,9683.200194150691
1735576627888,123,-144,904,923.6238411821124,8753,-3800,-3625,10207.626266669446
1735576627918,59,-87,947,952.8163516648946,8870,-4030,-5344,11111.981641453516
1735576627948,59,-87,947,952.8163516648946,9068,-4227,-7157,12301.17075728973
1735576627978,59,-87,947,952.8163516648946,9287,-4376,-8990,13646.165945055776
1735576628008,-39,-19,984,984.9558365733968,9515,-4484,-10816,15087.323718937034
1735576628037,-39,-19,984,984.9558365733968,9766,-4551,-12726,16674.454503821107
1735576628068,-39,-19,984,984.9558365733968,9991,-4564,-14639,18301.652876174874
1735576628098,-39,-19,984,984.9558365733968,10176,-4531,-16546,19946.203974691525
1735576628128,16,-4,948,948.1434490624296,10244,-4487,17606,20857.706992859978
1735576628158,16,-4,948,948.1434490624296,10270,-4437,15786,19348.32460447157
1735576628188,16,-4,948,948.1434490624296,10277,-4383,13974,17891.34131360754
1735576628218,98,-209,1078,1102.4377533448317,10306,-4321,12180,16529.884361362
1735576628248,98,-209,1078,1102.4377533448317,10382,-4245,10449,15329.30363715195
1735576628278,98,-209,1078,1102.4377533448317,10424,-4155,8726,14215.022933502429
1735576628308,197,-171,937,972.635080592922,10422,-4058,7028,13209.02085697498
1735576628338,197,-171,937,972.635080592922,10285,-4000,5475,12318.96302454066
1735576628368,197,-171,937,972.635080592922,10161,-3966,3920,11590.577077954316
1735576628398,197,-171,937,972.635080592922,10052,-3956,2363,11057.866385519406
1735576628428,341,-70,963,1023.9873046088022,9862,-4001,893,10680.098033257935
1735576628458,341,-70,963,1023.9873046088022,9656,-4096,-522,10501.811081903921
1735576628487,341,-70,963,1023.9873046088022,9501,-4225,-1939,10577.30338980593
1735576628518,-36,-79,919,923.0915447559901,9543,-4336,-3591,11079.937996216404
1735576628548,-36,-79,919,923.0915447559901,9807,-4361,-5588,12100.467511629458
1735576628578,-36,-79,919,923.0915447559901,10027,-4326,-7578,13292.143882760221
1735576628608,-38,-190,980,998.971471064114,10189,-4262,-9531,14588.362690857395
1735576628638,-38,-190,980,998.971471064114,10392,-4187,-11425,16001.726719326261
1735576628668,-38,-190,980,998.971471064114,10530,-4068,-13302,17446.281208326316
1735576628698,-38,-190,980,998.971471064114,10606,-3921,-15161,18913.418464148675
1735576628728,51,-158,876,891.5946388353847,10492,-3762,-16913,20255.475235106187
1735576628758,51,-158,876,891.5946388353847,10339,-3642,17366,20536.237264893487
1735576628788,51,-158,876,891.5946388353847,10186,-3555,15643,19002.52798971758
1735576628818,33,-283,971,1011.9382392221376,10091,-3505,13906,17535.396830411337
1735576628848,33,-283,971,1011.9382392221376,10077,-3462,12153,16162.511624125751
1735576628878,33,-283,971,1011.9382392221376,10055,-3423,10401,14866.094140694791
1735576628908,245,-124,990,1027.3757832458384,10036,-3393,8647,13674.953528257418
1735576628938,245,-124,990,1027.3757832458384,9792,-3444,7102,12577.074540607606
1735576628968,245,-124,990,1027.3757832458384,9601,-3542,5557,11644.965178136
1735576628998,245,-124,990,1027.3757832458384,9464,-3676,4012,10916.795134104148
1735576629028,49,2,1046,1047.14898653439,9418,-3789,2254,10398.834598165315
1735576629058,49,2,1046,1047.14898653439,9416,-3903,419,10201.471756565325
1735576629088,49,2,1046,1047.14898653439,9445,-4014,-1423,10360.750455444819
1735576629118,-29,-38,1014,1015.1261005412086,9595,-4113,-3369,10969.546708957485
1735576629148,-29,-38,1014,1015.1261005412086,9772,-4166,-5353,11895.46758223484
1735576629207,-29,-38,1014,1015.1261005412086,9931,-4175,-7337,13034.069011632553
1735576629208,180,-173,958,989.9964646401521,10025,-4148,-9286,14280.627612258504
1735576629238,180,-173,958,989.9964646401521,9998,-4145,-10934,15384.842703128297
1735576629268,180,-173,958,989.9964646401521,9975,-4147,-12583,16584.032169529823
1735576629298,61,-229,966,994.6446601676399,9952,-4140,-14228,17849.870811857436
1735576629328,61,-229,966,994.6446601676399,10044,-4076,-15992,19319.414483881235
1735576629358,61,-229,966,994.6446601676399,10101,-3994,-17749,20808.874020475014
1735576629388,61,-229,966,994.6446601676399,10125,-3902,16502,19749.86665777772
1735576629418,143,32,963,974.0852118783038,10003,-3832,14785,18257.61369949534
1735576629447,143,32,963,974.0852118783038,9809,-3814,13095,16800.06255940733
1735576629477,143,32,963,974.0852118783038,9646,-3835,11401,15418.668619566348
1735576629508,18,-105,900,906.2830683621977,9501,-3893,9719,14138.012979199022
1735576629538,18,-105,900,906.2830683621977,9555,-3948,7926,13027.13341453138
1735576629568,18,-105,900,906.2830683621977,9614,-3991,6131,12080.821081366945
1735576629598,-71,-79,1031,1036.45694556021,9709,-4014,4293,11349.305088858964
1735576629628,-71,-79,1031,1036.45694556021,9893,-3979,2281,10904.441801394512
1735576629658,-71,-79,1031,1036.45694556021,10028,-3901,281,10763.71432173857
1735576629688,-71,-79,1031,1036.45694556021,10110,-3794,-1706,10932.381808188004
1735576629718,185,-127,1081,1104.044836046073,9970,-3766,-3374,11178.88778009691
1735576629748,185,-127,1081,1104.044836046073,9816,-3787,-4956,11630.011220974811
1735576629778,185,-127,1081,1104.044836046073,9693,-3837,-6540,12306.438071188591
1735576629808,-23,-44,967,968.2737216304075,9653,-3856,-8272,13284.394190176683
1735576629838,-23,-44,967,968.2737216304075,9671,-3835,-10189,14561.977441268064
1735576629868,-23,-44,967,968.2737216304075,9679,-3812,-12104,15959.987499995104
1735576629897,-101,-156,1007,1024.0048828008585,9684,-3802,-14000,17442.33527942861
1735576629928,-101,-156,1007,1024.0048828008585,9832,-3787,-15943,19109.91475648178
1735576629958,-101,-156,1007,1024.0048828008585,9946,-3737,-17881,20799.477060734003
1735576629988,-101,-156,1007,1024.0048828008585,10022,-3661,16189,19388.840243810355
1735576630018,-77,-151,961,975.8334898946644,10040,-3560,14233,17777.893266638766
1735576630048,-77,-151,961,975.8334898946644,10020,-3460,12291,16230.855830793396
1735576630078,-77,-151,961,975.8334898946644,9975,-3368,10354,14766.494675446844
1735576630108,110,-105,944,956.1699639708413,9912,-3320,8464,13450.257990090748
1735576630137,110,-105,944,956.1699639708413,9790,-3331,6690,12316.483304904854
1735576630168,110,-105,944,956.1699639708413,9693,-3369,4914,11377.688956901573
1735576630198,233,-10,961,988.8933208390074,9611,-3430,3149,10679.532854952036
1735576630228,233,-10,961,988.8933208390074,9390,-3548,1540,10155.39285306088
1735576630258,233,-10,961,988.8933208390074,9233,-3707,-69,9949.618032869403
1735576630288,233,-10,961,988.8933208390074,9137,-3893,-1681,10073.032264417701
1735576630318,52,-192,1037,1055.905772311147,9251,-4073,-3365,10653.335393199633
1735576630348,52,-192,1037,1055.905772311147,9475,-4201,-5132,11565.528522294171
1735576630378,52,-192,1037,1055.905772311147,9695,-4279,-6908,12650.032806281572
1735576630406,-90,-187,907,930.4396810110799,9930,-4261,-8820,13948.240785131293
1735576630438,-90,-187,907,930.4396810110799,10165,-4144,-10862,15442.894968237011
1735576630468,-90,-187,907,930.4396810110799,10311,-3976,-12877,16968.866373449935
1735576630497,9,-203,1054,1073.4085894942336,10385,-3795,-14846,18510.91478020468
1735576630527,9,-203,1054,1073.4085894942336,10381,-3660,-16656,19964.546000347716
1735576630558,9,-203,1054,1073.4085894942336,10341,-3527,17539,20663.797593859654
1735576630588,9,-203,1054,1073.4085894942336,10273,-3405,15738,19100.083717094018
1735576630618,159,-145,996,1018.9808634120662,10048,-3308,14045,17583.15082685694
1735576630648,159,-145,996,1018.9808634120662,9808,-3279,12395,16142.637021255232
1735576630678,159,-145,996,1018.9808634120662,9605,-3302,10741,14782.703068113084
1735576630708,8,-103,981,986.4248577565348,9503,-3394,9062,13562.67263484598
1735576630738,8,-103,981,986.4248577565348,9491,-3505,7291,12470.877555328654
1735576630767,8,-103,981,986.4248577565348,9510,-3616,5516,11573.323291086273
1735576630798,83,-172,936,955.2847742950789,9544,-3715,3714,10894.17078074325
1735576630828,83,-172,936,955.2847742950789,9591,-3803,1944,10499.010715300752
1735576630858,83,-172,936,955.2847742950789,9652,-3878,170,10403.31139589698
1735576630888,83,-172,936,955.2847742950789,9722,-3938,-1607,10611.671734462954
1735576630918,253,-18,893,928.3221423622298,9576,-3953,-3249,10857.347097703012
1735576630948,253,-18,893,928.3221423622298,9387,-4018,-4832,11296.385129766071
1735576630978,253,-18,893,928.3221423622298,9244,-4117,-6418,11982.985813227018
1735576631007,45,20,1011,1012.1985971142225,9282,-4259,-8121,13047.806175752305
1735576631038,45,20,1011,1012.1985971142225,9474,-4374,-10017,14464.744760969686
1735576631068,45,20,1011,1012.1985971142225,9666,-4444,-11924,15980.06470575135
1735576631097,10,-231,1002,1028.3311723370055,9794,-4480,-13797,17502.85819516344
1735576631127,10,-231,1002,1028.3311723370055,10051,-4475,-15632,19115.638885478038
1735576631158,10,-231,1002,1028.3311723370055,10257,-4417,-17458,20724.326334045214
1735576631188,10,-231,1002,1028.3311723370055,10405,-4319,16730,20169.54848279951
1735576631218,220,-195,937,982.0356409010826,10403,-4231,15085,18806.408349283498
1735576631248,220,-195,937,982.0356409010826,10330,-4171,13521,17519.234629400908
1735576631278,220,-195,937,982.0356409010826,10257,-4123,11957,16284.19562029393
1735576631308,115,-51,914,922.616930258707,10204,-4058,10313,15064.75851117435
1735576631338,115,-51,914,922.616930258707,10126,-3983,8574,13853.289898071143
1735576631368,115,-51,914,922.616930258707,10045,-3924,6837,12768.882879876375
1735576631398,-34,-146,992,1003.2626774678703,9944,-3881,5113,11835.880448872404
1735576631428,-34,-146,992,1003.2626774678703,9978,-3812,3255,11166.326746070079
1735576631458,-34,-146,992,1003.2626774678703,9985,-3737,1402,10753.185481521277
1735576631488,-34,-146,992,1003.2626774678703,9971,-3661,-444,10631.128726527584
1735576631518,186,-98,1076,1096.3466605047877,9859,-3637,-2165,10729.160032360409
1735576631548,186,-98,1076,1096.3466605047877,9713,-3658,-3812,11056.883692976064
1735576631578,186,-98,1076,1096.3466605047877,9599,-3710,-5461,11650.211242720023
1735576631608,122,-62,1025,1034.0952567341174,9526,-3785,-7130,12486.304537372136
1735576631638,122,-62,1025,1034.0952567341174,9493,-3872,-8847,13541.744422340867
1735576631668,122,-62,1025,1034.0952567341174,9488,-3963,-10569,14745.550990044421
1735576631698,69,-134,1027,1038.0009633906898,9486,-4052,-12274,16032.902918685686
1735576631728,69,-134,1027,1038.0009633906898,9562,-4124,-13998,17446.582014824566
1735576631758,69,-134,1027,1038.0009633906898,9643,-4179,-15727,18915.33819417459
1735576631788,69,-134,1027,1038.0009633906898,9723,-4217,-17459,20423.919775596456
1735576631818,105,-137,927,942.9331895738956,9803,-4231,16792,19899.030981432235
1735576631848,105,-137,927,942.9331895738956,9865,-4232,15058,18492.469088793958
1735576631907,105,-137,927,942.9331895738956,9915,-4221,13326,17137.86281891648
1735576631908,94,-101,911,921.3891685927288,9955,-4209,11603,15857.090369926003
1735576631938,94,-101,911,921.3891685927288,9974,-4194,9880,14652.123122605815
1735576631968,94,-101,911,921.3891685927288,9987,-4176,8159,13555.38365373699
1735576631998,119,-73,894,904.8347915503691,9991,-4155,6437,12590.435854250638
1735576632028,119,-73,894,904.8347915503691,9949,-4142,4741,11773.523092091
1735576632058,119,-73,894,904.8347915503691,9912,-4138,3045,11164.354571581825
1735576632088,119,-73,894,904.8347915503691,9880,-4142,1348,10797.576950408828
1735576632118,277,-141,923,973.9296689186546,9861,-4158,-321,10706.601981954873
1735576632149,277,-141,923,973.9296689186546,9832,-4189,-1933,10860.590867904011
1735576632178,277,-141,923,973.9296689186546,9816,-4225,-3546,11259.600214927705
1735576632208,166,-70,1021,1036.7723954658516,9842,-4257,-5194,11914.8919004748
1735576632238,166,-70,1021,1036.7723954658516,9897,-4270,-6924,12811.139098456468
1735576632268,166,-70,1021,1036.7723954658516,9945,-4272,-8653,13857.395787087846
1735576632298,321,-83,977,1031.7262233751742,9962,-4273,-10356,14991.554589167863
1735576632327,321,-83,977,1031.7262233751742,9830,-4326,-11826,15974.900688267204
1735576632358,321,-83,977,1031.7262233751742,9732,-4401,-13299,17057.081403335098
1735576632388,321,-83,977,1031.7262233751742,9664,-4492,-14775,18217.342973112187
1735576632418,162,-380,1099,1174.071973943676,9886,-4527,-16429,19701.237676856752
1735576632448,162,-380,1099,1174.071973943676,10191,-4489,17857,21044.7155124511
1735576632478,162,-380,1099,1174.071973943676,10426,-4393,16158,19725.13343427618
1735576632508,276,-11,894,935.6992038042995,10493,-4270,14482,18386.52422291935
1735576632538,276,-11,894,935.6992038042995,10292,-4197,12878,17011.259712319956
1735576632568,276,-11,894,935.6992038042995,10111,-4161,11271,15702.919569303029
1735576632598,36,-68,895,898.3011744398423,9924,-4152,9681,14472.27145267805
1735576632628,36,-68,895,898.3011744398423,9916,-4107,7859,13302.57065382477
1735576632658,36,-68,895,898.3011744398423,9897,-4065,6040,12286.432924164768
1735576632688,36,-68,895,898.3011744398423,9870,-4027,4224,11466.289940516941
1735576632718,212,-73,977,1002.3981244994426,9821,-4068,2584,10939.73130383009
1735576632748,212,-73,977,1002.3981244994426,9756,-4132,1006,10642.602877116105
1735576632778,212,-73,977,1002.3981244994426,9716,-4208,-574,10603.650126253695
1735576632808,202,-127,1023,1050.4579953525033,9668,-4292,-2118,10787.836298350101
1735576632838,202,-127,1023,1050.4579953525033,9657,-4382,-3651,11215.586208486831
1735576632868,202,-127,1023,1050.4579953525033,9666,-4472,-5189,11847.19633499842
1735576632898,246,-4,981,1011.3817281323605,9718,-4548,-6766,12684.738231433868
1735576632928,246,-4,981,1011.3817281323605,9684,-4611,-8361,13599.540359879815
1735576632958,246,-4,981,1011.3817281323605,9671,-4679,-9962,14651.37283670032
1735576632988,144,-182,985,1011.9708493825303,9671,-4744,-11568,15806.720121517936
1735576633018,144,-182,985,1011.9708493825303,9907,-4759,-13310,17261.310205195896
1735576633047,144,-182,985,1011.9708493825303,10103,-4730,-15046,18730.339692595007
1735576633077,144,-182,985,1011.9708493825303,10254,-4666,-16772,20204.35735181894
1735576633108,161,-100,1030,1047.2922228299035,10383,-4592,17482,20844.986855356852
1735576633138,161,-100,1030,1047.2922228299035,10442,-4502,15756,19430.772089652022
1735576633168,161,-100,1030,1047.2922228299035,10465,-4400,14041,18056.18747133514
1735576633197,32,-16,882,882.7253253419209,10427,-4288,12348,16720.717000176755
1735576633228,32,-16,882,882.7253253419209,10328,-4149,10542,15330.216860827508
1735576633258,32,-16,882,882.7253253419209,10212,-4031,8743,14034.740966615665
1735576633288,0,-181,1011,1027.0744861011785,10102,-3953,6944,12880.052367905962
1735576633317,0,-181,1011,1027.0744861011785,10172,-3892,5109,12029.92639212726
1735576633348,0,-181,1011,1027.0744861011785,10211,-3817,3281,11384.15438229823
1735576633378,0,-181,1011,1027.0744861011785,10222,-3734,1459,10980.014617476609
1735576633408,270,-159,957,1006.9905659935449,10051,-3688,-145,10707.239139946394
1735576633438,270,-159,957,1006.9905659935449,9849,-3702,-1659,10651.755066654508
1735576633468,270,-159,957,1006.9905659935449,9685,-3755,-3175,10861.854123491072
1735576633498,350,12,981,1041.6357328740216,9544,-3839,-4701,11310.404855706978
1735576633528,350,12,981,1041.6357328740216,9344,-3970,-6186,11888.55886977055
1735576633558,350,12,981,1041.6357328740216,9202,-4134,-7672,12673.844878331121
1735576633588,125,14,875,883.9943438733078,9095,-4311,-9160,13609.164044863299
1735576633618,125,14,875,883.9943438733078,9184,-4460,-10930,14956.682653583313
1735576633648,125,14,875,883.9943438733078,9299,-4587,-12715,16406.803314479028
1735576633678,125,14,875,883.9943438733078,9429,-4688,-14515,17932.33420388991
1735576633707,82,-203,1044,1066.7094262262801,9758,-4807,-16314,19607.967997729902
1735576633738,82,-203,1044,1066.7094262262801,10131,-4843,17856,21093.329419510803
1735576633768,82,-203,1044,1066.7094262262801,10444,-4809,16032,19728.87835129002
1735576633798,125,-168,914,937.6806492617836,10629,-4692,14219,18362.202101055307
1735576633828,125,-168,914,937.6806492617836,10685,-4542,12451,17024.288237691468
1735576633858,125,-168,914,937.6806492617836,10689,-4381,10702,15747.402515970689
1735576633888,293,-58,897,945.4215990763063,10657,-4225,8980,14562.371853513425
1735576633918,293,-58,897,945.4215990763063,10414,-4152,7476,13475.202261932842
1735576633948,293,-58,897,945.4215990763063,10201,-4120,5968,12516.062679612945
1735576633978,293,-58,897,945.4215990763063,10018,-4126,4456,11714.953521034558
1735576634008,300,-73,1098,1140.5844992809607,9919,-4178,2923,11152.854970813527
1735576634038,300,-73,1098,1140.5844992809607,9850,-4247,1390,10816.265945325124
1735576634068,300,-73,1098,1140.5844992809607,9807,-4328,-146,10720.54798039727
1735576634098,118,-341,1078,1136.7888986087082,9862,-4374,-1762,10931.402654737405
1735576634128,118,-341,1078,1136.7888986087082,10117,-4339,-3519,11556.987972651006
1735576634158,118,-341,1078,1136.7888986087082,10314,-4255,-5264,12336.66555435463
1735576634188,144,-199,949,980.2744513655347,10460,-4142,-6980,13239.643650793627
1735576634218,144,-199,949,980.2744513655347,10438,-4044,-8633,14136.282007656751
1735576634248,144,-199,949,980.2744513655347,10397,-3950,-10281,15145.92585482974
1735576634278,144,-199,949,980.2744513655347,10340,-3865,-11927,16251.373911149789
1735576634308,54,31,1002,1003.9327666731473,10150,-3775,-13643,17418.51239342786
1735576634338,54,31,1002,1003.9327666731473,9933,-3732,-15395,18697.548983757202
1735576634368,54,31,1002,1003.9327666731473,9747,-3736,-17151,20077.811285097785
1735576634398,-168,-234,976,1017.6227198721538,9751,-3766,16969,19930.171047936343
1735576634428,-168,-234,976,1017.6227198721538,9994,-3722,14916,18336.313042702997
1735576634458,-168,-234,976,1017.6227198721538,10171,-3620,12877,16803.89151357506
1735576634488,98,-5,893,898.3752000138918,10234,-3483,10906,15356.004721280859
1735576634518,98,-5,893,898.3752000138918,9853,-3458,9308,13988.503744146477
1735576634548,98,-5,893,898.3752000138918,9536,-3511,7705,12752.624906269297
1735576634578,98,-5,893,898.3752000138918,9286,-3627,6100,11687.383154496134
1735576634608,99,-82,936,944.7862192051703,9209,-3772,4453,10902.425143058768
1735576634638,99,-82,936,944.7862192051703,9198,-3923,2801,10384.543032796388
1735576634668,99,-82,936,944.7862192051703,9224,-4072,1142,10147.291461271821
1735576634698,31,-41,1037,1038.273085464513,9384,-4198,-655,10301.05261611647
1735576634728,31,-41,1037,1038.273085464513,9603,-4270,-2565,10818.028193714417
1735576634758,31,-41,1037,1038.273085464513,9802,-4292,-4479,11600.08228419092
1735576634788,34,-168,1041,1055.0170614734152,9951,-4265,-6395,12574.12625195087
1735576634818,34,-168,1041,1055.0170614734152,10128,-4183,-8308,13751.244925460385
1735576634848,34,-168,1041,1055.0170614734152,10244,-4065,-10205,15020.179293204194
1735576634878,34,-168,1041,1055.0170614734152,10301,-3923,-12085,16356.88708159349
1735576634908,-68,-70,924,929.1393867445294,10258,-3753,-14022,17774.36516447212
1735576634938,-68,-70,924,929.1393867445294,10167,-3594,-15985,19282.24442330301
1735576634967,-68,-70,924,929.1393867445294,10048,-3461,-17944,20854.926540268607
1735576634997,213,91,886,915.7761735271343,9818,-3423,16236,19279.983117212527
1735576635028,213,91,886,915.7761735271343,9446,-3519,14626,17763.168439217145
1735576635058,213,91,886,915.7761735271343,9160,-3688,13018,16339.377833932356
1735576635088,119,-97,1089,1099.7686120270937,8954,-3897,11432,15035.004123710774
1735576635118,119,-97,1089,1099.7686120270937,9033,-4087,9780,13926.487640464124
1735576635148,119,-97,1089,1099.7686120270937,9145,-4256,8116,12946.583217204452
1735576635177,119,-97,1089,1099.7686120270937,9280,-4397,6439,12120.75616453033
1735576635207,133,-244,1007,1044.640608056187,9524,-4512,4718,11546.611797406198
1735576635238,133,-244,1007,1044.640608056187,9790,-4571,2993,11211.431219964737
1735576635268,133,-244,1007,1044.640608056187,10024,-4578,1266,11092.403526738468
1735576635298,145,-54,965,977.3259435827947,10209,-4534,-505,11181.943569880865
1735576635328,145,-54,965,977.3259435827947,10264,-4468,-2287,11425.545457438782
1735576635358,145,-54,965,977.3259435827947,10290,-4391,-4059,11901.279847142492
1735576635388,84,-57,889,894.7770672072458,10301,-4306,-5842,12600.841281438315
1735576635418,84,-57,889,894.7770672072458,10349,-4190,-7721,13574.672813736617
1735576635448,84,-57,889,894.7770672072458,10352,-4066,-9586,14682.903527572467
1735576635478,84,-57,889,894.7770672072458,10320,-3943,-11441,15904.28024149474
1735576635508,-148,-264,1068,1110.0558544505768,10495,-3761,-13403,17433.604188463152
1735576635538,-148,-264,1068,1110.0558544505768,10660,-3497,-15413,19063.71364661146
1735576635568,-148,-264,1068,1110.0558544505768,10706,-3196,-17394,20673.269891335527
1735576635598,137,-60,922,934.0519257514542,10439,-2947,16824,20017.604901685914
1735576635628,137,-60,922,934.0519257514542,9940,-2860,15251,18427.593467406426
1735576635658,137,-60,922,934.0519257514542,9515,-2881,13666,16899.554491169285
1735576635688,71,-81,992,997.8306469536802,9185,-3002,12072,15463.163098150391
1735576635718,71,-81,992,997.8306469536802,9016,-3199,10401,14131.619086290148
1735576635748,71,-81,992,997.8306469536802,8920,-3426,8731,12943.501728666783
