Timestamp,Acc_X,Acc_Y,Acc_Z,Acc_Betrag,Ori_X,Ori_Y,Ori_Z,Ori_Betrag
1735575690974,-40,102,977,983.1241020339193,9733,-4183,12050,16044.665094666201
1735575691003,-40,102,977,983.1241020339193,9731,-4185,10138,14662.388277494223
1735575691033,-40,102,977,983.1241020339193,9730,-4186,8226,13411.285247879861
1735575691063,-40,102,977,983.1241020339193,9729,-4189,6313,12331.063660528234
1735575691093,-35,101,977,982.8300972192498,9728,-4192,4407,11472.9463085992
1735575691123,-35,101,977,982.8300972192498,9728,-4196,2501,10885.559287422948
1735575691153,-35,101,977,982.8300972192498,9728,-4199,595,10612.238689362392
1735575691184,-37,94,981,986.1876089264151,9730,-4204,-1310,10680.010112354763
1735575691213,-37,94,981,986.1876089264151,9736,-4208,-3219,11084.174349043775
1735575691243,-37,94,981,986.1876089264151,9742,-4210,-5128,11786.731862564788
1735575691273,-35,103,981,987.0131711380553,9747,-4210,-7037,12737.640205312757
1735575691303,-35,103,981,987.0131711380553,9742,-4210,-8946,13880.258643123334
1735575691334,-35,103,981,987.0131711380553,9737,-4210,-10854,15177.041378345122
1735575691363,-35,103,981,987.0131711380553,9733,-4212,-12763,16594.167710373426
1735575691393,-33,98,979,984.4460371193537,9738,-4213,-14671,18105.696727825747
1735575691424,-33,98,979,984.4460371193537,9743,-4213,-16577,19684.317285595658
1735575691454,-33,98,979,984.4460371193537,9747,-4212,17516,20483.04686808093
1735575691484,-38,97,984,989.499368367661,9752,-4210,15609,18880.320044956865
1735575691514,-38,97,984,989.499368367661,9759,-4207,13699,17337.80640680937
1735575691544,-38,97,984,989.499368367661,9764,-4202,11790,15874.400776092305
1735575691574,-39,94,984,989.2487048260411,9764,-4196,9882,14511.92737027029
1735575691604,-39,94,984,989.2487048260411,9762,-4191,7972,13282.08978286173
1735575691633,-39,94,984,989.2487048260411,9759,-4187,6063,12228.205878214514
1735575691664,-39,94,984,989.2487048260411,9755,-4183,4155,11398.31298921029
1735575691694,-30,105,984,990.0409082457148,9740,-4182,2252,10836.430593142744
1735575691723,-30,105,984,990.0409082457148,9722,-4186,352,10590.7404840266
1735575691754,-30,105,984,990.0409082457148,9710,-4193,-1548,10689.32425366543
1735575691783,-38,91,979,983.9542672299358,9710,-4202,-3452,11129.115328722226
1735575691813,-38,91,979,983.9542672299358,9724,-4206,-5362,11874.243386422564
1735575691843,-38,91,979,983.9542672299358,9737,-4207,-7272,12860.404425989098
1735575691873,-35,94,979,984.124992061476,9748,-4206,-9181,14035.836312810148
1735575691904,-35,94,979,984.124992061476,9751,-4204,-11086,15351.059018842967
1735575691933,-35,94,979,984.124992061476,9754,-4201,-12990,16778.826448831278
1735575691964,-35,94,979,984.124992061476,9755,-4198,-14895,18293.28439619305
1735575691994,-51,105,984,990.8995912805697,9754,-4195,-16814,19885.902971703348
1735575692024,-51,105,984,990.8995912805697,9753,-4191,17260,20263.09675247098
1735575692054,-51,105,984,990.8995912805697,9751,-4187,15335,18648.731726313188
1735575692083,-35,102,977,982.933364984626,9745,-4184,13417,17102.24458952684
1735575692114,-35,102,977,982.933364984626,9735,-4183,11512,15645.889492131791
1735575692144,-35,102,977,982.933364984626,9726,-4185,9607,14296.983947672321
1735575692173,-35,94,984,989.0990850263688,9721,-4190,7702,13091.017722087156
1735575692203,-35,94,984,989.0990850263688,9727,-4196,5798,12076.330113076572
1735575692233,-35,94,984,989.0990850263688,9733,-4201,3894,11293.49042590465
1735575692264,-35,94,984,989.0990850263688,9740,-4204,1989,10793.393210663642
1735575692294,-37,97,988,993.4394797872692,9744,-4204,80,10612.518645448874
1735575692324,-37,97,988,993.4394797872692,9748,-4203,-1829,10771.90577381737
1735575692354,-37,97,988,993.4394797872692,9750,-4201,-3739,11255.710639493182
1735575692384,-37,99,982,987.67099785303,9748,-4199,-5648,12023.103135214304
1735575692413,-37,99,982,987.67099785303,9744,-4198,-7557,13026.012014427133
1735575692443,-37,99,982,987.67099785303,9740,-4197,-9465,14215.08473418291
1735575692474,-34,95,976,981.2018141035003,9739,-4198,-11374,15551.180051687395
1735575692504,-34,95,976,981.2018141035003,9744,-4200,-13280,16998.350978844977
1735575692534,-34,95,976,981.2018141035003,9748,-4201,-15186,18527.992362908615
1735575692563,-34,95,976,981.2018141035003,9752,-4201,-17092,20121.788414552022
1735575692594,-33,107,979,985.3826667848384,9743,-4198,17003,20041.239033552793
1735575692624,-33,107,979,985.3826667848384,9732,-4198,15100,18448.442427478803
1735575692654,-33,107,979,985.3826667848384,9724,-4201,13197,16922.333940683242
1735575692683,-45,99,978,984.0274386418297,9723,-4206,11287,15479.778228385574
1735575692713,-45,99,978,984.0274386418297,9734,-4209,9368,14150.118762752489
1735575692743,-45,99,978,984.0274386418297,9744,-4209,7450,12967.795379323348
1735575692773,-29,98,977,982.3309014787227,9752,-4207,5531,11974.652980358136
1735575692804,-29,98,977,982.3309014787227,9748,-4206,3632,11220.75594601362
1735575692834,-29,98,977,982.3309014787227,9744,-4207,1732,10753.79974706615
1735575692864,-29,98,977,982.3309014787227,9741,-4208,-167,10612.36231948382
1735575692893,-44,104,968,974.5645181310471,9743,-4208,-2079,10814.59911416045
1735575692924,-44,104,968,974.5645181310471,9746,-4207,-3997,11342.811556223616
1735575692954,-44,104,968,974.5645181310471,9748,-4205,-5914,12152.404083143385
1735575692984,-40,101,977,983.0208543057466,9750,-4203,-7830,13192.293545854716
1735575693014,-40,101,977,983.0208543057466,9750,-4201,-9742,14408.936983691754
1735575693043,-40,101,977,983.0208543057466,9750,-4199,-11654,15764.194143691582
1735575693073,-33,101,979,984.7492066511148,9749,-4197,-13566,17224.812509864947
1735575693104,-33,101,979,984.7492066511148,9742,-4197,-15470,18757.459129636936
1735575693134,-33,101,979,984.7492066511148,9737,-4199,-17374,20354.278321768128
1735575693163,-33,101,979,984.7492066511148,9733,-4202,16721,19798.4831237143
1735575693194,-29,103,979,984.8304422589708,9728,-4207,14819,18219.09970333331
1735575693223,-29,103,979,984.8304422589708,9725,-4214,12918,16709.522584442682
1735575693253,-29,103,979,984.8304422589708,9724,-4221,11015,15287.355624829299
1735575693283,-35,100,982,987.6988407404355,9728,-4226,9110,13981.600766721956
1735575693313,-35,100,982,987.6988407404355,9736,-4229,7200,12826.306444179478
1735575693344,-35,100,982,987.6988407404355,9744,-4229,5290,11866.510733994219
1735575693374,-42,95,976,981.5115893355513,9750,-4228,3380,11151.810794664694
1735575693404,-42,95,976,981.5115893355513,9762,-4224,1465,10737.087361104966
1735575693434,-42,95,976,981.5115893355513,9771,-4218,-449,10652.02168604627
1735575693464,-42,95,976,981.5115893355513,9776,-4210,-2363,10903.120883490195
1735575693494,-36,95,982,987.2411053030562,9777,-4201,-4273,11467.199265731802
1735575693523,-36,95,982,987.2411053030562,9773,-4194,-6179,12299.642515130266
1735575693553,-36,95,982,987.2411053030562,9769,-4187,-8085,13354.083832296395
1735575693583,-34,95,974,979.2124386464869,9761,-4182,-9988,14578.284844246939
1735575693613,-34,95,974,979.2124386464869,9752,-4179,-11890,15935.421080097005
1735575693644,-34,95,974,979.2124386464869,9744,-4179,-13791,17395.437850195092
1735575693674,-36,97,979,984.4521318987531,9737,-4180,-15693,18935.464557279814
1735575693704,-36,97,979,984.4521318987531,9733,-4181,-17600,20541.95828055349
1735575693734,-36,97,979,984.4521318987531,9731,-4184,16493,19601.46081290882
1735575693763,-36,97,979,984.4521318987531,9729,-4187,14585,18025.166712127797
1735575693794,-29,100,982,987.5044303698086,9723,-4192,12684,16522.513398390693
1735575693824,-29,100,982,987.5044303698086,9718,-4199,10784,15111.776235770565
1735575693863,-29,100,982,987.5044303698086,9715,-4207,8884,13820.475028015499
1735575693883,-27,99,980,985.3578030340045,9716,-4216,6984,12686.668908740387
1735575693913,-27,99,980,985.3578030340045,9719,-4223,5084,11753.286604180126
1735575693944,-27,99,980,985.3578030340045,9724,-4230,3183,11071.610768086097
1735575693974,-35,101,979,984.8182573449783,9730,-4236,1282,10689.252546366373
1735575694004,-35,101,979,984.8182573449783,9741,-4239,-626,10641.808023075779
1735575694034,-35,101,979,984.8182573449783,9750,-4240,-2536,10930.297159729922
1735575694064,-40,105,981,987.4137937055568,9757,-4238,-4446,11529.380252207835
1735575694093,-40,105,981,987.4137937055568,9762,-4233,-6362,12397.176170402678
1735575694123,-40,105,981,987.4137937055568,9765,-4227,-8278,13481.395995964216
1735575694154,-40,105,981,987.4137937055568,9765,-4221,-10193,14733.27237921026
1735575694183,-39,101,982,987.9504036134607,9765,-4216,-12104,16113.246010658437
1735575694214,-39,101,982,987.9504036134607,9765,-4211,-14013,17591.245407872633
1735575694243,-39,101,982,987.9504036134607,9764,-4207,-15922,19145.355285290476
1735575694274,-43,103,974,980.3744182708972,9760,-4203,-17831,20757.34496509609
1735575694334,-43,103,974,980.3744182708972,9758,-4198,16255,19418.207770028625
1735575694334,-43,103,974,980.3744182708972,9754,-4194,14343,17845.217874825736
1735575694363,-42,100,975,981.0142710480822,9750,-4191,12430,16344.16963323619
1735575694393,-42,100,975,981.0142710480822,9747,-4188,10516,14937.52352299403
1735575694423,-42,100,975,981.0142710480822,9743,-4186,8603,13655.045001756676
1735575694453,-42,100,975,981.0142710480822,9740,-4185,6690,12535.46668457142
1735575694484,-30,102,973,978.791601925558,9732,-4188,4786,11625.702731448107
1735575694513,-30,102,973,978.791601925558,9724,-4192,2885,10975.074715007639
1735575694544,-30,102,973,978.791601925558,9719,-4199,984,10632.91201882156
1735575694573,-41,101,967,973.1243497107654,9719,-4205,-921,10629.639081361136
1735575694603,-41,101,967,973.1243497107654,9726,-4208,-2837,10970.45618923844
1735575694634,-41,101,967,973.1243497107654,9733,-4210,-4752,11620.537552110058
1735575694664,-52,102,979,985.6718520887162,9741,-4211,-6668,12533.228873678163
1735575694694,-52,102,979,985.6718520887162,9760,-4208,-8597,13670.15994785723
1735575694723,-52,102,979,985.6718520887162,9775,-4202,-10524,14965.360169404545
1735575694753,-52,102,979,985.6718520887162,9784,-4193,-12451,16380.943379427206
1735575694783,-59,106,1020,1027.188882338589,9791,-4179,-14388,17898.10788882445
1735575694814,-59,106,1020,1027.188882338589,9793,-4163,-16326,19487.731884444634
1735575694844,-59,106,1020,1027.188882338589,9790,-4148,17736,20678.87085892264
1735575694903,-49,98,994,1000.0204997898793,9774,-4137,15817,19047.922038899676
1735575694904,-49,98,994,1000.0204997898793,9755,-4132,13912,17486.486010631183
1735575694934,-49,98,994,1000.0204997898793,9738,-4131,12007,16001.932820756372
1735575694963,-81,108,944,953.6042155947089,9723,-4132,10097,14613.677223751727
1735575694993,-81,108,944,953.6042155947089,9722,-4128,8143,13336.645642739406
1735575695024,-81,108,944,953.6042155947089,9720,-4124,6189,12238.851947793142
1735575695054,-81,108,944,953.6042155947089,9717,-4121,4236,11373.057020871742
1735575695084,-85,98,989,997.4718041127779,9731,-4119,2282,10810.460027214383
1735575695113,-85,98,989,997.4718041127779,9746,-4113,326,10583.362461902172
1735575695144,-85,98,989,997.4718041127779,9756,-4103,-1627,10708.000466940595
1735575695174,-1,96,997,1001.6117012096055,9736,-4099,-3544,11142.326193394269
1735575695234,-1,96,997,1001.6117012096055,9683,-4114,-5399,11825.17171122686
1735575695234,-1,96,997,1001.6117012096055,9644,-4140,-7256,12759.14856093462
1735575695264,4,84,990,993.565297300585,9620,-4173,-9118,13895.907778911027
1735575695293,4,84,990,993.565297300585,9615,-4209,-10980,15189.611779107458
1735575695323,4,84,990,993.565297300585,9621,-4244,-12846,16601.050960707278
1735575695354,4,84,990,993.565297300585,9635,-4277,-14714,18100.490324850318
1735575695383,-51,103,945,951.9637598144164,9672,-4298,-16630,19712.363835927947
1735575695413,-51,103,945,951.9637598144164,9716,-4306,17432,20416.094533480198
1735575695444,-51,103,945,951.9637598144164,9753,-4304,15495,18807.988994041865
1735575695474,-81,106,945,954.3699492335244,9796,-4293,13545,17258.577287829958
1735575695533,-81,106,945,954.3699492335244,9842,-4268,11573,15780.212831264349
1735575695534,-81,106,945,954.3699492335244,9870,-4233,9605,14408.0260271836
1735575695563,-56,95,977,983.2039462898834,9883,-4195,7646,13180.782601955014
1735575695593,-56,95,977,983.2039462898834,9874,-4161,5723,12147.531683432648
1735575695624,-56,95,977,983.2039462898834,9857,-4129,3803,11343.363654577948
1735575695654,-56,95,977,983.2039462898834,9834,-4103,1886,10821.236574440094
1735575695684,-36,91,982,986.8642257169929,9796,-4083,-15,10612.856825567751
1735575695713,-36,91,982,986.8642257169929,9757,-4074,-1909,10744.338323042513
1735575695744,-36,91,982,986.8642257169929,9723,-4074,-3804,11207.34674220442
1735575695773,-28,99,982,987.3748021901308,9690,-4082,-5697,11958.872563916717
1735575695804,-28,99,982,987.3748021901308,9657,-4099,-7586,12946.306268584874
1735575695834,-28,99,982,987.3748021901308,9636,-4123,-9478,14130.962776824515
1735575695864,-19,100,979,984.2773999234159,9626,-4151,-11372,15466.514183874788
1735575695893,-19,100,979,984.2773999234159,9621,-4183,-13259,16907.460217312357
1735575695923,-19,100,979,984.2773999234159,9625,-4215,-15148,18435.5296642109
1735575695953,-19,100,979,984.2773999234159,9639,-4245,-17041,20033.123246263924
1735575695984,-34,91,974,978.8324677900708,9672,-4268,17050,20061.552980763976
1735575696014,-34,91,974,978.8324677900708,9711,-4281,15136,18485.91296095489
1735575696044,-34,91,974,978.8324677900708,9746,-4285,13222,16975.483056455272
1735575696073,-23,92,967,971.6388217851322,9773,-4282,11311,15549.462177194426
1735575696104,-23,92,967,971.6388217851322,9788,-4275,9410,14234.769720652315
1735575696134,-23,92,967,971.6388217851322,9798,-4265,7509,13060.478934556726
1735575696163,-36,109,981,987.6932722257452,9801,-4253,5612,12068.229116154533
1735575696193,-36,109,981,987.6932722257452,9792,-4240,3705,11295.480910523465
1735575696223,-36,109,981,987.6932722257452,9781,-4230,1800,10807.444702611252
1735575696253,-36,109,981,987.6932722257452,9769,-4223,-104,10643.209384391534
1735575696283,-36,101,995,1000.7607106596462,9767,-4218,-2014,10827.834917470806
1735575696313,-36,101,995,1000.7607106596462,9765,-4214,-3923,11335.914166929811
1735575696344,-36,101,995,1000.7607106596462,9763,-4209,-5831,12125.692186427957
1735575696373,-41,93,985,990.2297713157285,9764,-4204,-7742,13150.96483152472
1735575696403,-41,93,985,990.2297713157285,9770,-4196,-9655,14362.393289420814
1735575696433,-41,93,985,990.2297713157285,9772,-4188,-11567,15710.722994184576
1735575696464,-61,101,1006,1012.8958485451503,9772,-4179,-13481,17166.635838160022
1735575696494,-61,101,1006,1012.8958485451503,9780,-4165,-15420,18728.908804305713
1735575696524,-61,101,1006,1012.8958485451503,9782,-4149,-17358,20351.950496205518
1735575696554,-61,101,1006,1012.8958485451503,9778,-4134,16705,19792.833677874423
1735575696584,-61,89,986,991.8860821687135,9772,-4122,14777,18189.07905859997
1735575696614,-61,89,986,991.8860821687135,9767,-4111,12849,16655.071629987066
1735575696643,-61,89,986,991.8860821687135,9759,-4102,10923,15211.062224578533
1735575696673,-36,101,988,993.8012879846756,9740,-4096,9006,13883.546088805986
1735575696703,-36,101,988,993.8012879846756,9707,-4101,7107,12710.3697428517
1735575696733,-36,101,988,993.8012879846756,9682,-4113,5207,11737.578199952493
1735575696763,-69,98,979,986.3092821219924,9667,-4129,3305,11019.190306007062
1735575696794,-69,98,979,986.3092821219924,9688,-4139,1364,10623.048573738144
1735575696824,-69,98,979,986.3092821219924,9707,-4143,-576,10569.866318927596
1735575696853,-69,98,979,986.3092821219924,9724,-4144,-2517,10865.735179913047
1735575696883,-55,103,979,985.9386390643183,9721,-4145,-4444,11464.20524938384
1735575696913,-55,103,979,985.9386390643183,9715,-4149,-6366,12333.749713692101
1735575696943,-55,103,979,985.9386390643183,9711,-4154,-8288,13425.728322888112
1735575696973,-39,107,979,985.6018465891792,9703,-4161,-10204,14682.770378916915
1735575697003,-39,107,979,985.6018465891792,9688,-4175,-12108,16059.00473254803
1735575697034,-39,107,979,985.6018465891792,9681,-4191,-14014,17540.765034627195
1735575697064,-50,109,985,992.2731478781435,9682,-4207,-15923,19104.499522363836
1735575697093,-50,109,985,992.2731478781435,9698,-4218,-17849,20746.79563209702
1735575697123,-50,109,985,992.2731478781435,9715,-4226,16223,19375.91365587698
1735575697153,-50,109,985,992.2731478781435,9730,-4229,14296,17802.61096019345
1735575697184,-55,98,978,984.4353711646082,9751,-4227,12365,16304.685062889133
1735575697214,-55,98,978,984.4353711646082,9771,-4219,10434,14904.38720645703
1735575697244,-55,98,978,984.4353711646082,9784,-4208,8504,13629.084195205487
1735575697274,-57,95,977,983.2614097990422,9792,-4194,6577,12519.178447486081
1735575697304,-57,95,977,983.2614097990422,9796,-4179,4652,11621.822619537781
1735575697334,-57,95,977,983.2614097990422,9794,-4164,2728,10986.506087014197
1735575697364,-66,101,987,994.3470219194102,9789,-4149,803,10662.247933714541
1735575697394,-66,101,987,994.3470219194102,9782,-4134,-1132,10679.836328333875
1735575697423,-66,101,987,994.3470219194102,9772,-4121,-3067,11039.977989108493
1735575697453,-66,101,987,994.3470219194102,9760,-4111,-5001,11711.870986311282
1735575697483,-47,96,989,994.7592673607016,9740,-4107,-6917,12632.495319611244
1735575697514,-47,96,989,994.7592673607016,9720,-4108,-8827,13757.543130951834
1735575697544,-47,96,989,994.7592673607016,9705,-4114,-10737,15046.43446135994
1735575697574,-54,92,1005,1010.6458331186054,9699,-4121,-12650,16464.377971851838
1735575697603,-54,92,1005,1010.6458331186054,9703,-4128,-14568,17983.748691527024
1735575697634,-54,92,1005,1010.6458331186054,9708,-4133,-16487,19574.169765279956
1735575697664,-27,96,998,1002.9700892848201,9712,-4137,17592,20516.241785473285
1735575697693,-27,96,998,1002.9700892848201,9693,-4148,15703,18914.13127796252
1735575697723,-27,96,998,1002.9700892848201,9681,-4163,13812,17373.073245686843
1735575697753,-27,96,998,1002.9700892848201,9676,-4180,11919,15911.0005027968
1735575697783,-23,103,1006,1011.5206374563003,9672,-4198,10022,14546.864679373353
1735575697814,-23,103,1006,1011.5206374563003,9672,-4217,8125,13317.14301192264
1735575697844,-23,103,1006,1011.5206374563003,9677,-4236,6226,12261.773974429638
1735575697874,-21,117,974,981.2267831648298,9675,-4254,4332,11422.274948538054
1735575697904,-21,117,974,981.2267831648298,9675,-4273,2437,10853.714709720354
1735575697933,-21,117,974,981.2267831648298,9680,-4291,539,10602.15081952714
1735575697963,-18,101,973,978.3935813362637,9692,-4308,-1359,10693.016833429188
1735575697993,-18,101,973,978.3935813362637,9720,-4322,-3256,11124.730109085793
1735575698023,-18,101,973,978.3935813362637,9747,-4329,-5153,11844.731275972452
1735575698053,-34,92,959,964.0025933575075,9769,-4329,-7051,12801.960904486468
1735575698083,-34,92,959,964.0025933575075,9803,-4319,-8967,13969.955583322375
1735575698113,-34,92,959,964.0025933575075,9827,-4301,-10880,15278.839288375279
1735575698144,-34,92,959,964.0025933575075,9841,-4279,-12791,16696.25116605521
1735575698174,-66,107,958,966.213744468583,9857,-4250,-14732,18227.85706000571
1735575698203,-66,107,958,966.213744468583,9863,-4216,-16680,19831.183146751482
1735575698234,-66,107,958,966.213744468583,9858,-4182,17374,20408.94813556054
1735575698263,-75,97,963,970.7744331202795,9851,-4150,15432,18772.621686914164
1735575698293,-75,97,963,970.7744331202795,9845,-4118,13489,17199.856685449446
1735575698323,-75,97,963,970.7744331202795,9831,-4089,11549,15708.210687408035
1735575698354,-31,95,1000,1004.9805968276204,9809,-4064,9613,14322.791138601442
1735575698383,-31,95,1000,1004.9805968276204,9753,-4056,7732,13090.300569505653
1735575698413,-31,95,1000,1004.9805968276204,9706,-4060,5849,12037.476355116965
1735575698444,-31,95,1000,1004.9805968276204,9669,-4074,3965,11216.428219357533
1735575698474,-15,101,994,999.2307040919029,9635,-4098,2080,10674.887774585735
1735575698503,-15,101,994,999.2307040919029,9610,-4130,199,10461.76854073918
1735575698533,-15,101,994,999.2307040919029,9598,-4166,-1685,10597.942488992852
1735575698563,-16,103,988,993.4832660895703,9599,-4204,-3570,11070.651155194078
1735575698594,-16,103,988,993.4832660895703,9610,-4241,-5457,11837.103953248024
1735575698624,-16,103,988,993.4832660895703,9629,-4274,-7348,12844.369233247695
1735575698654,-48,101,953,959.5384307050969,9654,-4301,-9243,14040.34778771523
1735575698683,-48,101,953,959.5384307050969,9707,-4313,-11180,15421.420751668764
1735575698713,-48,101,953,959.5384307050969,9752,-4313,-13117,16904.41250088272
1735575698743,-48,101,953,959.5384307050969,9789,-4303,-15052,18463.559624297803
1735575698774,-91,95,953,962.0369015791442,9846,-4279,-17018,20121.27930823485
1735575698804,-91,95,953,962.0369015791442,9895,-4239,17004,20125.013341610484
1735575698834,-91,95,953,962.0369015791442,9921,-4189,15033,18492.29707202434
1735575698864,-41,102,990,996.084835744426,9906,-4139,13093,16931.828194261834
1735575698894,-41,102,990,996.084835744426,9854,-4106,11197,15470.402742010307
1735575698923,-41,102,990,996.084835744426,9802,-4085,9301,14116.480793738927
1735575698953,-24,95,994,998.8178012030022,9756,-4076,7403,12907.273956959309
1735575698983,-24,95,994,998.8178012030022,9713,-4079,5518,11892.389751433477
1735575699014,-24,95,994,998.8178012030022,9679,-4092,3632,11118.404966540838
1735575699047,-24,95,994,998.8178012030022,9655,-4112,1743,10637.93297591219
1735575699073,-34,100,967,972.7512528904807,9642,-4134,-152,10491.959969424206
1735575699103,-34,100,967,972.7512528904807,9638,-4158,-2054,10695.743265430412
1735575699133,-34,100,967,972.7512528904807,9642,-4182,-3958,11230.451994465762
1735575699163,-42,90,979,984.0248980589871,9657,-4204,-5866,12055.754683967321
1735575699193,-42,90,979,984.0248980589871,9684,-4220,-7780,13119.32376306035
1735575699222,-42,90,979,984.0248980589871,9711,-4229,-9695,14359.003691064363
1735575699254,-41,105,973,979.5075293227715,9735,-4233,-11612,15732.992658741057
1735575699284,-41,105,973,979.5075293227715,9744,-4234,-13529,17201.922363503447
1735575699314,-41,105,973,979.5075293227715,9752,-4234,-15446,18751.191322153372
1735575699344,-41,105,973,979.5075293227715,9758,-4232,-17363,20361.781773705367
1735575699373,-50,97,979,985.0634497330616,9772,-4225,16710,19813.2962679106
1735575699403,-50,97,979,985.0634497330616,9785,-4214,14783,18221.995225550905
1735575699434,-50,97,979,985.0634497330616,9792,-4200,12857,16698.075128588924
1735575699463,-24,101,992,997.4171644803392,9786,-4188,10947,15268.98650860626
1735575699493,-24,101,992,997.4171644803392,9764,-4183,9059,13960.611233037042
1735575699523,-24,101,992,997.4171644803392,9745,-4183,7171,12801.787179921403
1735575699554,-24,91,987,991.4766764780702,9729,-4187,5280,11834.813475505222
1735575699584,-24,91,987,991.4766764780702,9723,-4191,3386,11116.03373510534
1735575699612,-24,91,987,991.4766764780702,9720,-4196,1490,10691.3477167287
1735575699644,-24,91,987,991.4766764780702,9718,-4203,-405,10595.695257980951
1735575699673,-31,96,961,966.2804975782136,9719,-4208,-2306,10838.997232216641
1735575699704,-31,96,961,966.2804975782136,9721,-4212,-4211,11400.495866408619
1735575699734,-31,96,961,966.2804975782136,9725,-4216,-6115,12236.97290999698
1735575699764,-22,103,979,984.6491761028392,9728,-4222,-8018,13294.64523783918
1735575699794,-22,103,979,984.6491761028392,9728,-4229,-9915,14519.836431585585
1735575699824,-22,103,979,984.6491761028392,9730,-4237,-11813,15879.925629548774
1735575699853,-29,93,980,984.829934557231,9731,-4243,-13709,17338.74536983573
1735575699883,-29,93,980,984.829934557231,9742,-4245,-15609,18882.994201132406
1735575699913,-29,93,980,984.829934557231,9751,-4245,-17509,20485.778164375402
1735575699943,-29,93,980,984.829934557231,9758,-4243,16590,19709.127657001973
1735575699973,-38,101,965,971.014932943876,9766,-4238,14679,18133.075883589085
1735575700003,-38,101,965,971.014932943876,9770,-4232,12765,16622.513317786816
1735575700033,-38,101,965,971.014932943876,9772,-4224,10852,15201.97566107774
1735575700063,-29,99,985,990.3872979799368,9771,-4218,8945,13902.40950339185
1735575700093,-29,99,985,990.3872979799368,9766,-4215,7046,12758.80468539275
1735575700123,-29,99,985,990.3872979799368,9760,-4212,5147,11810.594946911015
1735575700153,-36,101,984,989.8247319601587,9755,-4210,3247,11109.776505402797
1735575700183,-36,101,984,989.8247319601587,9753,-4207,1338,10705.610771927028
1735575700213,-36,101,984,989.8247319601587,9751,-4204,-570,10633.932339449973
1735575700244,-36,101,984,989.8247319601587,9748,-4203,-2478,10900.880560762052
1735575700274,-29,105,987,992.9929506295601,9739,-4204,-4381,11476.7111142522
1735575700304,-29,105,987,992.9929506295601,9731,-4209,-6281,12323.1084958301
1735575700334,-29,105,987,992.9929506295601,9725,-4215,-8182,13389.808587130736
1735575700364,-33,100,984,989.618613406195,9724,-4221,-10085,14631.481196379265
1735575700393,-33,100,984,989.618613406195,9731,-4226,-11993,16011.979452897134
1735575700424,-33,100,984,989.618613406195,9737,-4230,-13900,17490.342163605605
1735575700453,-32,109,971,977.6226265793974,9743,-4232,-15808,19045.43874527442
1735575700484,-32,109,971,977.6226265793974,9739,-4233,-17714,20653.14034233051
1735575700513,-32,109,971,977.6226265793974,9736,-4235,16380,19519.972361660763
1735575700544,-32,109,971,977.6226265793974,9734,-4237,14474,17949.919247729224
1735575700573,-39,100,980,985.8605378044098,9745,-4239,12560,16452.590859800774
1735575700603,-39,100,980,985.8605378044098,9757,-4237,10643,15047.413963867679
1735575700634,-39,100,980,985.8605378044098,9767,-4233,8728,13765.557090070855
1735575700664,-37,99,979,984.6882755471398,9773,-4227,6815,12642.123358043933
1735575700693,-37,99,979,984.6882755471398,9776,-4220,4906,11723.796825261004
1735575700723,-37,99,979,984.6882755471398,9776,-4213,2997,11059.003300478755
1735575700753,-45,104,980,986.5297765399685,9773,-4206,1089,10695.227253312572
1735575700783,-45,104,980,986.5297765399685,9769,-4197,-825,10664.37035178355
1735575700814,-45,104,980,986.5297765399685,9763,-4189,-2740,10971.394168472847
1735575700844,-45,104,980,986.5297765399685,9756,-4183,-4655,11590.774348592937
1735575700874,-43,101,979,985.1350161272312,9750,-4180,-6568,12476.919651901266
1735575700903,-43,101,979,985.1350161272312,9744,-4178,-8479,13575.516969898421
1735575700933,-43,101,979,985.1350161272312,9739,-4178,-10391,14841.721126607925
1735575700964,-36,101,981,986.8424392981891,9735,-4179,-12301,16234.188214998618
1735575700994,-36,101,981,986.8424392981891,9731,-4183,-14207,17720.854917300123
1735575701024,-36,101,981,986.8424392981891,9729,-4188,-16113,19282.67497003463
1735575701054,-32,88,972,976.4998719917991,9728,-4192,17978,20866.60806168554
1735575701084,-32,88,972,976.4998719917991,9734,-4194,16073,19253.096400319613
1735575701114,-32,88,972,976.4998719917991,9740,-4195,14167,17696.596113377283
1735575701144,-32,88,972,976.4998719917991,9745,-4194,12262,16214.539925634646
1735575701174,-36,96,984,989.3270440051662,9747,-4192,10352,14823.655993040313
1735575701204,-36,96,984,989.3270440051662,9746,-4191,8441,13557.26661241122
1735575701234,-36,96,984,989.3270440051662,9746,-4190,6530,12457.18732298748
1735575701264,-39,94,984,989.2487048260411,9747,-4190,4620,11571.711584722461
1735575701293,-39,94,984,989.2487048260411,9752,-4189,2710,10954.146475193766
1735575701323,-39,94,984,989.2487048260411,9756,-4188,799,10646.937634831906
1735575701353,-33,98,978,983.4515748118969,9756,-4185,-1109,10673.501862088187
1735575701383,-33,98,978,983.4515748118969,9745,-4182,-3010,11023.350171340835
1735575701414,-33,98,978,983.4515748118969,9735,-4181,-4911,11677.709835408654
1735575701444,-33,98,978,983.4515748118969,9727,-4183,-6812,12590.288400191634
1735575701474,-24,105,974,979.9372428885433,9712,-4189,-8708,13700.36236747043
1735575701504,-24,105,974,979.9372428885433,9699,-4199,-10602,14970.123780383381
1735575701534,-24,105,974,979.9372428885433,9691,-4211,-12498,16366.062629722519
1735575701563,-38,102,974,980.063263264163,9702,-4225,-14405,17874.10008923526
1735575701594,-38,102,974,980.063263264163,9719,-4234,-16319,19460.09964003268
1735575701624,-38,102,974,980.063263264163,9735,-4240,17766,20697.308544832587
1735575701654,-47,95,993,998.6405759831713,9749,-4242,15853,19088.089846812854
1735575701684,-47,95,993,998.6405759831713,9770,-4239,13934,17537.9125610775
1735575701714,-47,95,993,998.6405759831713,9787,-4232,12016,16064.851353187181
1735575701744,-28,111,966,972.7594769520367,9793,-4220,10099,14686.764449666918
1735575701774,-28,111,966,972.7594769520367,9759,-4212,8205,13427.62264885337
1735575701803,-28,111,966,972.7594769520367,9730,-4211,6310,12337.808597964227
1735575701834,-28,111,966,972.7594769520367,9706,-4217,4415,11466.549175754666
1735575701864,-41,106,987,993.5220178737862,9716,-4223,2504,10885.97267128666
1735575701894,-41,106,987,993.5220178737862,9730,-4224,588,10623.597319175835
1735575701923,-41,106,987,993.5220178737862,9741,-4223,-1326,10699.489987845214
1735575701953,-40,85,984,988.474076544246,9752,-4220,-3243,11109.768359421361
1735575701983,-40,85,984,988.474076544246,9780,-4212,-5160,11832.791048607256
1735575702013,-40,85,984,988.474076544246,9799,-4199,-7076,12795.381119763491
1735575702044,-36,93,979,984.0660546934845,9805,-4183,-8987,13942.800400206552
1735575702074,-36,93,979,984.0660546934845,9786,-4172,-10888,15222.349490141132
1735575702134,-36,93,979,984.0660546934845,9767,-4165,-12789,16622.275265438242
1735575702135,-36,93,979,984.0660546934845,9750,-4163,-14690,18115.992078823616
1735575702164,-39,115,969,976.5792338566288,9724,-4167,-16591,19676.924200697627
1735575702193,-39,115,969,976.5792338566288,9698,-4176,17504,20442.118187702567
1735575702224,-39,115,969,976.5792338566288,9681,-4192,15599,18831.44779351816
1735575702253,-46,93,980,985.4770418431877,9689,-4206,13684,17286.382299370798
1735575702284,-46,93,980,985.4770418431877,9718,-4213,11760,15826.765083237951
1735575702314,-46,93,980,985.4770418431877,9744,-4214,9836,14472.395378789235
1735575702343,-49,105,979,985.8331501831332,9763,-4208,7914,13253.483655250797
1735575702374,-49,105,979,985.8331501831332,9764,-4197,5993,12201.088230153899
1735575702404,-49,105,979,985.8331501831332,9762,-4187,4072,11375.798741187364
1735575702434,-49,105,979,985.8331501831332,9758,-4178,2152,10830.759530152998
1735575702464,-31,104,974,980.0270404432727,9739,-4178,248,10600.250421570237
1735575702494,-31,104,974,980.0270404432727,9722,-4185,-1648,10712.021891314449
1735575702524,-31,104,974,980.0270404432727,9709,-4194,-3547,11155.067279044084
1735575702554,-31,99,979,984.481081585624,9707,-4206,-5450,11900.369111922537
1735575702584,-31,99,979,984.481081585624,9713,-4217,-7355,12892.691068973925
1735575702614,-31,99,979,984.481081585624,9721,-4227,-9261,14075.918833241401
1735575702644,-46,101,974,980.3025043322086,9730,-4233,-11167,15404.320108333246
1735575702674,-46,101,974,980.3025043322086,9748,-4230,-13091,16860.92183126415
1735575702704,-46,101,974,980.3025043322086,9762,-4223,-15014,18399.743721041334
1735575702734,-46,101,974,980.3025043322086,9771,-4213,-16935,20000.40087098256
1735575702764,-44,93,979,984.391182406669,9777,-4204,17146,20180.402894887902
1735575702793,-44,93,979,984.391182406669,9781,-4194,15229,18579.021448935357
1735575702824,-44,93,979,984.391182406669,9781,-4183,13314,17041.949595043403
1735575702854,-35,101,982,987.8005871632189,9773,-4175,11404,15588.24460932019
1735575702884,-35,101,982,987.8005871632189,9756,-4172,9502,14243.35367811949
1735575702914,-35,101,982,987.8005871632189,9742,-4173,7599,13040.908480623579
1735575702945,-21,105,979,984.8385654512114,9729,-4177,5697,12023.168426001526
1735575702974,-21,105,979,984.8385654512114,9705,-4184,3812,11234.955496129034
1735575703004,-21,105,979,984.8385654512114,9688,-4197,1927,10732.449953295845
1735575703034,-21,105,979,984.8385654512114,9678,-4213,39,10555.31022755845
1735575703063,-50,87,979,984.129056577439,9699,-4226,-1864,10742.633429471565
1735575703094,-50,87,979,984.129056577439,9729,-4229,-3779,11261.381931184113
1735575703124,-50,87,979,984.129056577439,9755,-4226,-5693,12059.409189508415
1735575703153,-38,95,979,984.3322609769529,9770,-4219,-7607,13081.25796703054
1735575703184,-38,95,979,984.3322609769529,9770,-4213,-9515,14273.664350824563
1735575703214,-38,95,979,984.3322609769529,9769,-4207,-11422,15607.507616528655
1735575703244,-46,94,973,978.6117718482647,9770,-4201,-13335,17056.480469311362
1735575703274,-46,94,973,978.6117718482647,9782,-4190,-15270,18612.268104666877
1735575703304,-46,94,973,978.6117718482647,9789,-4178,-17205,20230.972047828054
1735575703334,-46,94,973,978.6117718482647,9791,-4164,16862,19938.1448735834
1735575703364,-36,104,984,990.1353442838005,9773,-4153,14953,18339.878598289575
1735575703394,-36,104,984,990.1353442838005,9751,-4147,13048,16808.626178245504
1735575703423,-36,104,984,990.1353442838005,9731,-4147,11143,15364.12766804546
1735575703453,-39,96,981,986.4572976059328,9717,-4152,9238,14035.663040982425
1735575703484,-39,96,981,986.4572976059328,9710,-4158,7330,12856.981138665484
1735575703514,-39,96,981,986.4572976059328,9707,-4166,5421,11873.021772067968
1735575703544,-35,98,968,973.5774237316722,9707,-4174,3512,11134.732551794857
1735575703574,-35,98,968,973.5774237316722,9703,-4184,1607,10688.148296126883
1735575703604,-35,98,968,973.5774237316722,9703,-4193,-298,10574.415444836655
1735575703634,-35,98,968,973.5774237316722,9706,-4203,-2205,10804.335703781144
1735575703664,-43,93,974,979.374290044414,9722,-4210,-4120,11367.312083337907
1735575703694,-43,93,974,979.374290044414,9740,-4212,-6040,12210.247499539066
1735575703724,-43,93,974,979.374290044414,9756,-4211,-7959,13276.209474093122
1735575703754,-35,91,977,981.8528402973635,9765,-4206,-9873,14509.369042105174
1735575703784,-35,91,977,981.8528402973635,9768,-4200,-11781,15869.649807100344
1735575703814,-35,91,977,981.8528402973635,9769,-4193,-13688,17331.357534826868
1735575703844,-38,98,972,977.6666098420259,9767,-4186,-15594,18870.339716072947
1735575703873,-38,98,972,977.6666098420259,9759,-4180,-17502,20470.234121768124
1735575703904,-38,98,972,977.6666098420259,9752,-4175,16590,19691.628398890734
1735575703934,-38,98,972,977.6666098420259,9744,-4173,14682,18108.577774082645
1735575703963,-35,98,977,982.5263355249059,9736,-4173,12778,16597.61757000082
1735575703994,-35,98,977,982.5263355249059,9730,-4176,10874,15177.475152343357
1735575704024,-35,98,977,982.5263355249059,9725,-4180,8970,13874.758556457838
1735575704054,-35,94,974,979.1511629978285,9722,-4185,7065,12725.79011299495
1735575704084,-35,94,974,979.1511629978285,9722,-4190,5159,11776.61517584743
1735575704114,-35,94,974,979.1511629978285,9724,-4195,3253,11078.637551612563
1735575704144,-40,98,977,982.717151575162,9727,-4200,1345,10680.05402608058
1735575704173,-40,98,977,982.717151575162,9732,-4204,-567,10616.351962891962
1735575704204,-40,98,977,982.717151575162,9738,-4208,-2481,10894.552262484218
1735575704234,-40,98,977,982.717151575162,9744,-4209,-4395,11488.134835559687
1735575704264,-36,92,982,986.9569392835738,9749,-4210,-6303,12348.882945432757
1735575704294,-36,92,982,986.9569392835738,9755,-4209,-8211,13427.443055176216
1735575704324,-36,92,982,986.9569392835738,9759,-4208,-10118,14673.761242435425
1735575704354,-38,103,989,995.0748715548997,9758,-4202,-12025,16046.058487990127
1735575704384,-38,103,989,995.0748715548997,9751,-4197,-13933,17516.429402135585
1735575704414,-38,103,989,995.0748715548997,9744,-4193,-15841,19064.73356750626
1735575704444,-49,97,972,978.0562356020231,9738,-4191,-17750,20675.0
1735575704474,-49,97,972,978.0562356020231,9747,-4189,16327,19471.072363894084
1735575704503,-49,97,972,978.0562356020231,9753,-4184,14405,17892.201932685646
1735575704534,-49,97,972,978.0562356020231,9757,-4179,12484,16386.37684175486
1735575704564,-35,93,981,986.0197766779326,9752,-4178,10576,14980.285845069846
1735575704594,-35,93,981,986.0197766779326,9747,-4180,8674,13700.900882788694
1735575704624,-35,93,981,986.0197766779326,9742,-4183,6771,12579.76526013105
1735575704654,-32,103,976,981.9414442827026,9735,-4183,4869,11660.826514445705
1735575704684,-32,103,976,981.9414442827026,9722,-4186,2968,10993.12985459555
1735575704714,-32,103,976,981.9414442827026,9712,-4191,1068,10631.465044856235
1735575704744,-39,99,985,990.7305385421406,9708,-4199,-834,10610.01512722767
1735575704804,-39,99,985,990.7305385421406,9719,-4205,-2746,10939.904112925306
1735575704804,-39,99,985,990.7305385421406,9730,-4209,-4658,11579.531294486836
1735575704834,-39,99,985,990.7305385421406,9740,-4210,-6570,12480.24839496394
1735575704864,-50,91,976,981.5075139804076,9759,-4206,-8493,13603.66002221461
1735575704894,-50,91,976,981.5075139804076,9777,-4197,-10418,14890.912060716764
1735575704924,-50,91,976,981.5075139804076,9789,-4184,-12341,16298.179591598566
1735575704954,-28,100,972,977.5315851674563,9782,-4171,-14252,17782.13342093687
1735575704983,-28,100,972,977.5315851674563,9756,-4167,-16144,19317.664480987343
1735575705014,-28,100,972,977.5315851674563,9734,-4168,17962,20850.813509309413
1735575705044,-30,113,979,985.9563884878479,9716,-4174,16069,19236.31183465271
1735575705074,-30,113,979,985.9563884878479,9693,-4187,14171,17672.08134318083
1735575705104,-30,113,979,985.9563884878479,9677,-4203,12272,16183.680730909145
1735575705133,-30,113,979,985.9563884878479,9670,-4223,10371,14795.278638809072
1735575705164,-43,93,974,979.374290044414,9694,-4239,8454,13543.000886066573
1735575705194,-43,93,974,979.374290044414,9727,-4247,6533,12463.210942610254
1735575705223,-43,93,974,979.374290044414,9755,-4247,4611,11595.61792230151
1735575705254,-39,100,979,984.8664884135311,9773,-4240,2693,10988.238166330397
1735575705284,-39,100,979,984.8664884135311,9781,-4230,779,10684.928731629425
1735575705314,-39,100,979,984.8664884135311,9784,-4219,-1132,10714.851422208336
1735575705344,-37,103,972,978.1421164636558,9782,-4208,-3042,11074.680672597291
1735575705374,-37,103,972,978.1421164636558,9771,-4200,-4948,11730.095694409318
1735575705404,-37,103,972,978.1421164636558,9759,-4194,-6853,12640.859385342437
1735575705434,-32,102,978,983.8251877239168,9750,-4191,-8759,13760.343818378959
1735575705464,-32,102,978,983.8251877239168,9742,-4191,-10663,15038.969845039253
1735575705494,-32,102,978,983.8251877239168,9735,-4193,-12567,16440.22393399798
1735575705524,-32,102,978,983.8251877239168,9730,-4196,-14471,17935.69505204635
1735575705554,-42,98,974,979.8183505119712,9733,-4198,-16383,19513.000333111257
1735575705584,-42,98,974,979.8183505119712,9740,-4198,17701,20635.314511778102
1735575705614,-42,98,974,979.8183505119712,9745,-4197,15785,19019.622998366714
1735575705644,-32,102,975,980.8430047668179,9748,-4196,13871,17465.23864709555
1735575705704,-32,102,975,980.8430047668179,9739,-4198,11970,15992.255156793866
1735575705704,-32,102,975,980.8430047668179,9732,-4202,10068,14619.618736478733
1735575705734,-37,101,971,976.9396091877942,9727,-4207,8166,13378.973577969276
1735575705764,-37,101,971,976.9396091877942,9729,-4210,6258,12310.162671549064
1735575705794,-37,101,971,976.9396091877942,9731,-4214,4350,11461.791177647585
1735575705824,-37,101,971,976.9396091877942,9733,-4216,2441,10884.136437954092
1735575705854,-35,91,965,969.9128826858627,9744,-4216,531,10630.247080853766
1735575705884,-35,91,965,969.9128826858627,9754,-4213,-1376,10713.695020859983
1735575705914,-35,91,965,969.9128826858627,9761,-4208,-3284,11125.153527030538
1735575705944,-36,89,972,976.7297476784456,9767,-4203,-5192,11832.850966694376
1735575705974,-36,89,972,976.7297476784456,9772,-4196,-7100,12787.040314318243
1735575706004,-36,89,972,976.7297476784456,9774,-4188,-9008,13936.085677118952
1735575706034,-29,101,972,977.6635413065171,9772,-4180,-10913,15233.448493364856
1735575706064,-29,101,972,977.6635413065171,9752,-4178,-12809,16632.12761495053
1735575706094,-29,101,972,977.6635413065171,9736,-4180,-14706,18125.356051675233
1735575706124,-29,101,972,977.6635413065171,9723,-4185,-16603,19690.367264223387
1735575706154,-47,101,979,985.3177152573681,9725,-4189,17482,20438.778583858675
1735575706184,-47,101,979,985.3177152573681,9731,-4191,15561,18825.556113963805
1735575706214,-47,101,979,985.3177152573681,9737,-4192,13641,17275.963475302906
1735575706244,-38,100,981,986.8155856085776,9740,-4192,11725,15808.73457933936
1735575706274,-38,100,981,986.8155856085776,9738,-4194,9817,14449.628680350232
1735575706304,-38,100,981,986.8155856085776,9738,-4195,7909,13227.960916180544
1735575706334,-36,95,986,991.2199554084855,9738,-4197,6001,12184.229725345793
1735575706364,-36,95,986,991.2199554084855,9740,-4198,4095,11369.249271609802
1735575706394,-36,95,986,991.2199554084855,9743,-4198,2188,10832.201853732231
1735575706424,-36,95,986,991.2199554084855,9745,-4197,282,10614.11126755321
1735575706453,-40,94,977,982.3263205269418,9746,-4196,-1626,10734.747691492334
1735575706484,-40,94,977,982.3263205269418,9748,-4195,-3536,11185.920838268077
1735575706514,-40,94,977,982.3263205269418,9749,-4193,-5446,11928.250751891494
1735575706544,-38,103,975,981.161556523695,9747,-4191,-7355,12909.861153397429
1735575706574,-38,103,975,981.161556523695,9739,-4191,-9263,14078.912280428485
1735575706603,-38,103,975,981.161556523695,9732,-4193,-11171,15397.542466250905
1735575706634,-39,101,977,982.9806712240073,9729,-4195,-13079,16831.865820520314
1735575706664,-39,101,977,982.9806712240073,9732,-4198,-14990,18358.51649780014
1735575706694,-39,101,977,982.9806712240073,9735,-4199,-16901,19951.08084791398
1735575706724,-39,101,977,982.9806712240073,9738,-4200,17187,20195.583997498066
1735575706754,-41,97,982,987.6304977065056,9741,-4201,15275,18597.341396016796
1735575706784,-41,97,982,987.6304977065056,9745,-4201,13363,17064.090804962332
1735575706814,-41,97,982,987.6304977065056,9748,-4200,11450,15613.007525777984
1735575706843,-31,112,982,988.8523651182718,9742,-4199,9542,14268.424194703492
1735575706874,-31,112,982,988.8523651182718,9724,-4204,7641,13061.955175240802
1735575706904,-31,112,982,988.8523651182718,9712,-4212,5739,12041.59495249695
1735575706934,-34,106,976,982.3278475132424,9705,-4222,3835,11256.97712532099
1735575706964,-34,106,976,982.3278475132424,9712,-4232,1926,10767.648025451055
1735575706994,-34,106,976,982.3278475132424,9720,-4239,16,10604.139616206494
1735575707024,-34,106,976,982.3278475132424,9729,-4244,-1893,10781.856333674643
1735575707053,-42,99,981,986.8768920184523,9748,-4245,-3810,11294.229898492416
1735575707084,-42,99,981,986.8768920184523,9766,-4241,-5730,12091.060209923693
1735575707114,-42,99,981,986.8768920184523,9780,-4233,-7649,13117.693775965347
1735575707144,-44,106,979,985.7043167197758,9785,-4223,-9566,14320.904650195811
1735575707204,-44,106,979,985.7043167197758,9783,-4213,-11483,15662.558762858642
1735575707204,-44,106,979,985.7043167197758,9778,-4204,-13399,17111.870178329427
1735575707234,-29,99,972,977.4589505447275,9770,-4197,-15313,18642.845222765758
1735575707264,-29,99,972,977.4589505447275,9756,-4194,-17209,20221.74208618041
1735575707294,-29,99,972,977.4589505447275,9744,-4195,16894,19948.704143377334
1735575707324,-29,99,972,977.4589505447275,9734,-4198,14998,18366.10911434428
1735575707354,-31,98,974,979.4084949600958,9730,-4200,13098,16848.457021341746
1735575707384,-31,98,974,979.4084949600958,9729,-4202,11197,15416.972919480659
1735575707414,-31,98,974,979.4084949600958,9728,-4205,9296,14097.220470716913
1735575707444,-40,98,982,987.6882099124197,9732,-4208,7391,12924.626454950256
1735575707474,-40,98,982,987.6882099124197,9741,-4210,5479,11942.806286631296
1735575707504,-40,98,982,987.6882099124197,9749,-4209,3567,11201.882475727016
1735575707534,-35,98,985,990.4817009919972,9753,-4208,1656,10750.377156174569
1735575707564,-35,98,985,990.4817009919972,9750,-4207,-248,10621.81025061171
1735575707594,-35,98,985,990.4817009919972,9747,-4208,-2153,10832.667353888422
1735575707624,-35,98,985,990.4817009919972,9746,-4208,-4058,11364.820456126881
1735575707653,-56,104,959,966.2468628668349,9755,-4204,-5984,12191.878321243204
1735575707684,-56,104,959,966.2468628668349,9763,-4196,-7918,13252.068102752868
1735575707713,-56,104,959,966.2468628668349,9768,-4187,-9850,14490.2482035333
1735575707744,-42,92,1001,1006.0959198804059,9767,-4178,-11774,15858.027903872537
1735575707774,-42,92,1001,1006.0959198804059,9765,-4173,-13685,17321.904600822625
1735575707804,-42,92,1001,1006.0959198804059,9761,-4167,-15596,18864.681974525836
1735575707834,-39,107,979,985.6018465891792,9756,-4163,-17506,20468.760123661617
1735575707864,-39,107,979,985.6018465891792,9735,-4163,16588,19678.98721987491
1735575707894,-39,107,979,985.6018465891792,9719,-4168,14683,18094.796876450422
1735575707924,-39,107,979,985.6018465891792,9707,-4175,12777,16580.35593707204
1735575707954,-35,106,966,972.4284035341625,9694,-4185,10873,15156.18652564028
1735575707984,-35,106,966,972.4284035341625,9685,-4198,8970,13852.195818714086
1735575708014,-35,106,966,972.4284035341625,9682,-4213,7065,12704.515653892517
1735575708044,-48,100,979,985.2639240325407,9698,-4227,5151,11766.542992740051
1735575708074,-48,100,979,985.2639240325407,9727,-4234,3225,11087.91729767137
1735575708104,-48,100,979,985.2639240325407,9753,-4234,1299,10711.450228610503
1735575708134,-45,100,990,996.0547173724946,9772,-4228,-626,10665.825987704844
1735575708164,-45,100,990,996.0547173724946,9781,-4218,-2547,10952.017804952657
1735575708194,-45,100,990,996.0547173724946,9785,-4207,-4467,11549.855540222137
1735575708224,-45,100,990,996.0547173724946,9785,-4195,-6386,12414.718925533514
1735575708254,-33,99,977,982.5573774594541,9770,-4186,-8290,13479.599252203308
1735575708283,-33,99,977,982.5573774594541,9754,-4181,-10189,14711.797918677377
1735575708313,-33,99,977,982.5573774594541,9739,-4180,-12088,16076.077413349314
1735575708344,-30,102,985,990.7214542947983,9730,-4182,-13990,17546.570149177303
1735575708374,-30,102,985,990.7214542947983,9723,-4187,-15893,19095.945826274226
1735575708404,-30,102,985,990.7214542947983,9719,-4192,-17797,20706.64226763963
1735575708434,-50,92,973,978.6179029631535,9717,-4199,16298,19433.900637803003
1735575708464,-50,92,973,978.6179029631535,9736,-4201,14372,17860.360606661892
1735575708494,-50,92,973,978.6179029631535,9751,-4199,12446,16358.988905186041
1735575708524,-50,92,973,978.6179029631535,9764,-4193,10521,14953.540918458077
1735575708554,-38,96,981,986.4182682817669,9759,-4188,8611,13672.115637310855
1735575708584,-38,96,981,986.4182682817669,9750,-4186,6706,12552.112650864794
1735575708614,-38,96,981,986.4182682817669,9743,-4185,4801,11640.011812708783
1735575708644,-41,110,973,980.0561208420669,9734,-4185,2893,10983.370611975179
1735575708674,-41,110,973,980.0561208420669,9722,-4187,981,10630.645041576734
1735575708704,-41,110,973,980.0561208420669,9712,-4192,-931,10618.972125398956
1735575708733,-41,103,972,978.3015894906846,9709,-4200,-2845,10954.392087194981
1735575708763,-41,103,972,978.3015894906846,9718,-4208,-4760,11610.529186906168
1735575708794,-41,103,972,978.3015894906846,9728,-4215,-6676,12528.73437343134
1735575708824,-41,103,972,978.3015894906846,9738,-4219,-8593,13655.337930640897
1735575708854,-55,97,974,980.3621779730183,9758,-4215,-10517,14952.995619607464
1735575708884,-55,97,974,980.3621779730183,9778,-4206,-12445,16376.133395890496
1735575708914,-55,97,974,980.3621779730183,9791,-4192,-14372,17888.29027604371
1735575708944,-34,102,984,989.8565552644484,9790,-4177,-16289,19458.236045438447
1735575708974,-34,102,984,989.8565552644484,9773,-4167,17811,20739.024543116775
1735575709004,-34,102,984,989.8565552644484,9756,-4161,15911,19122.065212732647
1735575709034,-25,91,985,989.5104850379303,9741,-4159,14012,17564.751805818378
1735575709064,-25,91,985,989.5104850379303,9728,-4161,12120,16088.576848186418
1735575709094,-25,91,985,989.5104850379303,9719,-4166,10228,14711.44115985922
1735575709124,-35,100,966,971.7926733619677,9712,-4173,8336,13462.012071009296
1735575709154,-35,100,966,971.7926733619677,9707,-4179,6432,12371.76276849827
1735575709184,-35,100,966,971.7926733619677,9704,-4187,4528,11497.885414283794
1735575709214,-35,100,966,971.7926733619677,9704,-4195,2623,10892.46390859295
1735575709244,-47,99,968,974.183760899349,9716,-4205,703,10610.225728041793
1735575709274,-47,99,968,974.183760899349,9731,-4211,-1221,10673.130890230852
1735575709304,-47,99,968,974.183760899349,9744,-4214,-3146,11072.517690209395
1735575709334,-30,92,990,994.7180505047648,9757,-4213,-5071,11775.544955542397
1735575709364,-30,92,990,994.7180505047648,9765,-4212,-6978,12719.616857437177
1735575709394,-30,92,990,994.7180505047648,9770,-4210,-8885,13860.744027648732
1735575709424,-37,107,977,983.5380012993905,9771,-4204,-10789,15150.860635620671
1735575709454,-37,107,977,983.5380012993905,9759,-4195,-12696,16553.68605477342
1735575709484,-37,107,977,983.5380012993905,9747,-4190,-14602,18049.335527935647
1735575709514,-37,107,977,983.5380012993905,9735,-4187,-16509,19617.55017834796
1735575709543,-42,98,976,981.8064982469815,9734,-4187,17579,20525.666030606655
1735575709574,-42,98,976,981.8064982469815,9737,-4186,15666,18914.420979770963
1735575709633,-42,98,976,981.8064982469815,9739,-4185,13754,17364.75919786969
1735575709634,-38,92,979,984.0472549628905,9742,-4184,11843,15895.567589740229
1735575709664,-38,92,979,984.0472549628905,9746,-4184,9936,14533.219464385722
1735575709694,-38,92,979,984.0472549628905,9750,-4182,8030,13305.3569662749
1735575709724,-47,97,964,970.0072164680014,9750,-4180,6123,12248.5112972965
1735575709754,-47,97,964,970.0072164680014,9748,-4175,4206,11408.092084130458
1735575709784,-47,97,964,970.0072164680014,9745,-4171,2290,10844.646882217972
1735575709814,-47,97,964,970.0072164680014,9741,-4168,373,10601.812769522012
1735575709844,-45,99,985,990.984863658371,9742,-4169,-1542,10708.16926463156
1735575709874,-45,99,985,990.984863658371,9742,-4170,-3458,11146.893199452483
1735575709934,-45,99,985,990.984863658371,9743,-4171,-5373,11882.441626197875
1735575709934,-31,104,971,977.045546533016,9737,-4171,-7282,12854.335222017511
1735575709964,-31,104,971,977.045546533016,9722,-4175,-9179,14007.210643093791
1735575709994,-31,104,971,977.045546533016,9711,-4181,-11077,15312.877293311012
1735575710024,-39,102,969,975.1338369680338,9703,-4190,-12977,16736.392622067637
1735575710054,-39,102,969,975.1338369680338,9703,-4199,-14886,18258.499555001774
1735575710084,-39,102,969,975.1338369680338,9706,-4207,-16796,19849.707831602962
1735575710114,-39,102,969,975.1338369680338,9711,-4214,17292,20274.97425399105
1735575710144,-37,104,979,985.2035322713779,9722,-4221,15380,18678.290205476518
1735575710174,-37,104,979,985.2035322713779,9733,-4226,13468,17145.768836654715
1735575710204,-37,104,979,985.2035322713779,9743,-4228,11556,15695.323156915247
1735575710234,-39,90,978,982.9064044963793,9751,-4228,9645,14352.143045552466
1735575710263,-39,90,978,982.9064044963793,9764,-4225,7734,13152.987379299046
1735575710294,-39,90,978,982.9064044963793,9773,-4218,5823,12133.028558443271
1735575710324,-36,94,987,992.1194484536628,9777,-4210,3913,11341.313768695407
1735575710354,-36,94,987,992.1194484536628,9771,-4204,2008,10824.884341183511
1735575710384,-36,94,987,992.1194484536628,9764,-4199,102,10629.096904252967
1735575710414,-36,94,987,992.1194484536628,9757,-4195,-1802,10772.38497269755
1735575710444,-28,104,964,969.9979381421385,9732,-4197,-3700,11225.71302857863
1735575710474,-28,104,964,969.9979381421385,9708,-4205,-5596,11968.396091373314
1735575710504,-28,104,964,969.9979381421385,9691,-4218,-7494,12956.351376834453
1735575710534,-42,107,975,981.7525146390001,9690,-4236,-9402,14150.52649197195
1735575710564,-42,107,975,981.7525146390001,9703,-4252,-11323,15506.064684503286
1735575710594,-42,107,975,981.7525146390001,9718,-4265,-13246,16973.104165119592
1735575710624,-44,102,985,991.2441677003703,9736,-4273,-15169,18524.221603079575
1735575710654,-44,102,985,991.2441677003703,9763,-4275,-17096,20146.091680522055
1735575710684,-44,102,985,991.2441677003703,9785,-4270,16977,20054.866092796532
1735575710714,-44,102,985,991.2441677003703,9801,-4261,15053,18461.000270841232
1735575710744,-35,108,963,969.6690156955619,9799,-4244,13140,16931.9679009854
1735575710774,-35,108,963,969.6690156955619,9790,-4229,11233,15488.990606233836
1735575710803,-35,108,963,969.6690156955619,9778,-4217,9326,14155.092687792616
1735575710834,-38,98,972,977.6666098420259,9773,-4211,7416,12970.778928036665
1735575710864,-38,98,972,977.6666098420259,9775,-4205,5502,11979.34280334276
1735575710894,-38,98,972,977.6666098420259,9775,-4199,3588,11227.46498547201
1735575710924,-42,106,969,975.6848876558456,9772,-4192,1677,10764.62618951536
1735575710954,-42,106,969,975.6848876558456,9759,-4184,-234,10620.672907118456
1735575710984,-42,106,969,975.6848876558456,9747,-4179,-2145,10819.846348262068
1735575711014,-42,106,969,975.6848876558456,9735,-4177,-4056,11343.222205352411
1735575711044,-41,97,968,973.7114562333135,9731,-4178,-5972,12157.829946170492
1735575711074,-41,97,968,973.7114562333135,9729,-4179,-7888,13203.712583966677
1735575711104,-41,97,968,973.7114562333135,9729,-4181,-9804,14430.960397700494
1735575711134,-37,94,985,990.1666526398473,9733,-4185,-11717,15796.63264749801
1735575711164,-37,94,985,990.1666526398473,9740,-4188,-13627,17265.632713572937
1735575711194,-37,94,985,990.1666526398473,9747,-4189,-15536,18812.735739386764
1735575711224,-39,100,971,976.9145305501398,9749,-4189,-17443,20416.879560794787
1735575711254,-39,100,971,976.9145305501398,9741,-4186,16648,19737.41576296147
1735575711284,-39,100,971,976.9145305501398,9734,-4186,14741,18154.07483183872
1735575711313,-39,100,971,976.9145305501398,9728,-4187,12833,16638.835355877527
1735575711344,-38,103,979,985.1365387599833,9726,-4191,10924,15214.904961911527
1735575711374,-38,103,979,985.1365387599833,9724,-4195,9014,13907.062845906752
1735575711404,-38,103,979,985.1365387599833,9725,-4200,7104,12754.70270135686
1735575711434,-38,100,971,976.8751199616049,9726,-4205,5194,11800.624432630673
1735575711464,-38,100,971,976.8751199616049,9729,-4210,3284,11097.846502813058
1735575711494,-38,100,971,976.8751199616049,9733,-4215,1374,10695.110565113388
1735575711524,-38,113,982,989.2102910908277,9737,-4217,-535,10624.428596399903
1735575711554,-38,113,982,989.2102910908277,9730,-4218,-2443,10882.677657635551
1735575711585,-38,113,982,989.2102910908277,9725,-4221,-4351,11459.653877844654
1735575711614,-38,113,982,989.2102910908277,9721,-4224,-6260,12309.65543790727
1735575711644,-26,90,980,984.4673686821723,9731,-4229,-8166,13388.814660006314
1735575711674,-26,90,980,984.4673686821723,9744,-4231,-10069,14636.654604109506
1735575711704,-26,90,980,984.4673686821723,9755,-4230,-11971,16011.176284083565
1735575711734,-47,103,979,985.5247333273783,9767,-4227,-13878,17488.873662989277
1735575711764,-47,103,979,985.5247333273783,9780,-4220,-15800,19055.09905510858
1735575711794,-47,103,979,985.5247333273783,9788,-4209,-17720,20676.533195872078
1735575711824,-40,100,974,979.9367326516544,9788,-4198,16360,19521.212769702604
1735575711854,-40,100,974,979.9367326516544,9776,-4189,14451,17942.945633312273
1735575711884,-40,100,974,979.9367326516544,9763,-4183,12542,16435.188529493662
1735575711914,-40,100,974,979.9367326516544,9752,-4180,10634,15021.846091609379
1735575711944,-40,104,979,985.3207599558633,9744,-4177,8726,13730.839049380776
1735575711974,-40,104,979,985.3207599558633,9736,-4176,6817,12597.625212713705
1735575712004,-40,104,979,985.3207599558633,9730,-4177,4909,11671.26856858328
1735575712034,-27,99,986,991.3253754444098,9723,-4180,3005,11001.779583321964
1735575712064,-27,99,986,991.3253754444098,9715,-4186,1109,10636.432766675112
1735575712094,-27,99,986,991.3253754444098,9711,-4193,-787,10606.796830334782
1735575712124,-30,103,975,980.8842949094454,9708,-4202,-2684,10913.566053311813
1735575712154,-30,103,975,980.8842949094454,9702,-4213,-4585,11528.243491529835
1735575712184,-30,103,975,980.8842949094454,9702,-4225,-6487,12412.114968852005
1735575712214,-30,103,975,980.8842949094454,9705,-4237,-8391,13511.035304520523
1735575712244,-39,111,978,985.0512677013314,9716,-4247,-10304,14785.468575598137
1735575712274,-39,111,978,985.0512677013314,9728,-4254,-12221,16188.988263631549
1735575712304,-39,111,978,985.0512677013314,9739,-4258,-14138,17687.8978117808
1735575712334,-44,97,977,982.7888888260795,9757,-4257,-16058,19266.04427483753
1735575712364,-44,97,977,982.7888888260795,9780,-4250,-17980,20904.33687061132
1735575712394,-44,97,977,982.7888888260795,9797,-4238,16098,19315.47195902808
1735575712424,-37,93,979,984.1031450005635,9805,-4222,14180,17749.245307899713
1735575712454,-37,93,979,984.1031450005635,9801,-4206,12273,16259.660697566847
1735575712484,-37,93,979,984.1031450005635,9793,-4192,10368,14865.097947877774
1735575712514,-37,93,979,984.1031450005635,9782,-4180,8464,13594.087685460912
1735575712544,-32,103,968,973.9902463577343,9763,-4173,6564,12482.635699242368
1735575712574,-32,103,968,973.9902463577343,9743,-4172,4666,11580.293131004932
1735575712604,-32,103,968,973.9902463577343,9726,-4175,2768,10940.179386097834
1735575712634,-38,104,976,982.2606578704045,9716,-4181,864,10612.62988141959
1735575712664,-38,104,976,982.2606578704045,9714,-4188,-1045,10629.824316516242
1735575712694,-38,104,976,982.2606578704045,9714,-4195,-2955,10985.984070623805
1735575712724,-44,92,984,989.2704382523517,9716,-4202,-4866,11650.554321576292
1735575712754,-44,92,984,989.2704382523517,9733,-4205,-6783,12586.596164174014
1735575712784,-44,92,984,989.2704382523517,9748,-4203,-8700,13725.112494985242
1735575712814,-35,99,974,979.6438128217827,9758,-4199,-10615,15017.602671531831
1735575712844,-35,99,974,979.6438128217827,9751,-4197,-12519,16414.084531279837
1735575712874,-35,99,974,979.6438128217827,9745,-4195,-14423,17904.91493975886
1735575712904,-35,99,974,979.6438128217827,9740,-4196,-16327,19469.07663449913
1735575712934,-38,103,979,985.1365387599833,9736,-4196,17764,20687.092787533
1735575712964,-38,103,979,985.1365387599833,9733,-4197,15855,19071.63136703308
1735575712994,-38,103,979,985.1365387599833,9730,-4199,13946,17515.57641072654
1735575713024,-33,106,972,978.3194774714444,9729,-4201,12036,16036.431585611557
1735575713054,-33,106,972,978.3194774714444,9725,-4206,10129,14658.195727987808
1735575713084,-33,106,972,978.3194774714444,9723,-4211,8222,13411.582084153979
1735575713114,-32,91,975,979.7601747366547,9722,-4216,6316,12336.279666090584
1735575713144,-32,91,975,979.7601747366547,9734,-4220,4411,11489.824933392154
1735575713174,-32,91,975,979.7601747366547,9744,-4222,2507,10911.272565562644
1735575713204,-32,91,975,979.7601747366547,9753,-4221,603,10644.315807039924
1735575713234,-29,100,981,986.5100100860609,9751,-4219,-1298,10703.58659515585
1735575713264,-29,100,981,986.5100100860609,9747,-4219,-3199,11092.230208573928
1735575713294,-29,100,981,986.5100100860609,9743,-4220,-5099,11778.550420149331
1735575713324,-34,96,974,979.3099611461123,9744,-4222,-7002,12720.016666655747
1735575713354,-34,96,974,979.3099611461123,9750,-4221,-8908,13864.768479855695
1735575713384,-34,96,974,979.3099611461123,9755,-4220,-10814,15162.817053568904
1735575713413,-45,98,981,986.9093170094201,9759,-4217,-12719,16576.91560574524
1735575713444,-45,98,981,986.9093170094201,9768,-4211,-14637,18093.869514285772
1735575713474,-45,98,981,986.9093170094201,9773,-4204,-16555,19678.749198056263
1735575713504,-45,98,981,986.9093170094201,9775,-4195,17528,20503.156683788962
1735575713534,-42,102,969,975.2584272899159,9766,-4188,15616,18888.45033347098
1735575713564,-42,102,969,975.2584272899159,9756,-4183,13705,17335.05263908939
1735575713593,-42,102,969,975.2584272899159,9746,-4180,11794,15860.496587433825
1735575713624,-37,104,976,982.2224798893578,9737,-4180,9885,14491.197121011086
1735575713654,-37,104,976,982.2224798893578,9727,-4183,7978,13257.46966807769
1735575713684,-37,104,976,982.2224798893578,9720,-4189,6071,12201.768806201828
1735575713714,-40,96,974,979.5366251447671,9716,-4195,4162,11371.935851032576
1735575713744,-40,96,974,979.5366251447671,9725,-4200,2250,10829.50252781724
1735575713774,-40,96,974,979.5366251447671,9733,-4202,337,10606.680064940207
1735575713834,-40,96,974,979.5366251447671,9740,-4203,-1574,10724.284824639823
1735575713835,-49,101,974,980.4478568491035,9746,-4201,-3493,11172.912153955207
1735575713864,-49,101,974,980.4478568491035,9751,-4198,-5414,11917.071829942119
1735575713894,-49,101,974,980.4478568491035,9754,-4194,-7335,12904.742422845951
1735575713924,-41,101,981,987.0374866234818,9754,-4190,-9252,14081.76551430963
1735575713954,-41,101,981,987.0374866234818,9749,-4187,-11163,15400.86163173996
1735575713984,-41,101,981,987.0374866234818,9744,-4185,-13073,16833.3921121086
1735575714014,-36,95,980,985.2517444795518,9740,-4185,-14984,18354.892563019814
1735575714044,-36,95,980,985.2517444795518,9739,-4185,-16889,19939.926454227458
1735575714074,-36,95,980,985.2517444795518,9738,-4186,17204,20207.148636064416
1735575714104,-36,95,980,985.2517444795518,9737,-4187,15298,18610.989817846872
1735575714134,-32,95,980,985.1136990215902,9734,-4189,13396,17080.728702253895
1735575714164,-32,95,980,985.1136990215902,9731,-4192,11495,15633.30579244198
1735575714194,-32,95,980,985.1136990215902,9730,-4195,9594,14293.906428964756
1735575714225,-39,99,977,982.7771873624255,9729,-4199,7690,13092.789695095542
1735575714254,-39,99,977,982.7771873624255,9731,-4202,5781,12073.488559650024
1735575714284,-39,99,977,982.7771873624255,9733,-4205,3871,11287.070257600066
1735575714314,-38,100,976,981.8452016484065,9737,-4207,1961,10786.729763927528
1735575714344,-38,100,976,981.8452016484065,9739,-4209,50,10609.726763682465
1735575714374,-38,100,976,981.8452016484065,9742,-4209,-1859,10773.955912291454
1735575714404,-38,100,976,981.8452016484065,9744,-4209,-3770,11263.841129916562
1735575714434,-47,100,985,991.1780869248472,9753,-4207,-5687,12048.31220545019
1735575714464,-47,100,985,991.1780869248472,9761,-4201,-7608,13069.322323670804
1735575714494,-47,100,985,991.1780869248472,9765,-4195,-9528,14273.613207593935
1735575714524,-31,100,987,992.5371529570065,9760,-4189,-11438,15608.752832946007
1735575714554,-31,100,987,992.5371529570065,9745,-4188,-13334,17038.190191449325
1735575714584,-31,100,987,992.5371529570065,9733,-4190,-15231,18554.53448621118
1735575714613,-37,94,975,980.2193632039719,9725,-4195,-17130,20139.775321487577
1735575714644,-37,94,975,980.2193632039719,9729,-4198,16959,19997.107940899856
1735575714674,-37,94,975,980.2193632039719,9735,-4201,15049,18408.99310119921
1735575714704,-37,94,975,980.2193632039719,9739,-4202,13138,16885.258926057366
1735575714735,-36,98,984,989.5231174661864,9747,-4204,11228,15451.395050285913
1735575714764,-36,98,984,989.5231174661864,9752,-4205,9318,14128.292642778886
1735575714794,-36,98,984,989.5231174661864,9757,-4204,7408,12951.877431476874
1735575714836,-25,94,956,960.9354817051975,9762,-4206,5505,11970.468035962504
1735575714853,-25,94,956,960.9354817051975,9767,-4209,3611,11231.620141368741
1735575714884,-25,94,956,960.9354817051975,9772,-4211,1717,10778.339111384463
1735575714915,-6,106,998,1003.6314064436206,9778,-4210,-182,10647.3709431014
1735575714944,-6,106,998,1003.6314064436206,9759,-4210,-2071,10828.260340424033
1735575714974,-6,106,998,1003.6314064436206,9745,-4214,-3962,11332.26654292953
1735575715004,-6,106,998,1003.6314064436206,9734,-4220,-5853,12116.7968126894
1735575715034,-27,105,993,998.9008959851823,9728,-4227,-7746,13134.002779046456
1735575715064,-27,105,993,998.9008959851823,9730,-4233,-9648,14341.376956206122
1735575715094,-27,105,993,998.9008959851823,9734,-4238,-11551,15688.753965818956
1735575715123,-49,96,982,987.8972618648156,9747,-4240,-13465,17154.819556031478
1735575715154,-49,96,982,987.8972618648156,9772,-4233,-15397,18721.054510897615
1735575715184,-49,96,982,987.8972618648156,9791,-4221,-17328,20345.518081385886
1735575715214,-35,99,977,982.6265821765662,9799,-4206,16746,19852.943182309267
1735575715244,-35,99,977,982.6265821765662,9783,-4195,14847,18268.51178941514
1735575715304,-35,99,977,982.6265821765662,9768,-4189,12949,16752.257937364742
1735575715305,-35,99,977,982.6265821765662,9754,-4186,11051,15322.784113861293
1735575715334,-27,94,979,983.8729592787882,9749,-4186,9148,14008.979299006762
1735575715364,-27,94,979,983.8729592787882,9745,-4188,7248,12846.706698605678
1735575715394,-27,94,979,983.8729592787882,9743,-4191,5348,11878.19994780354
1735575715424,-6,100,956,961.2346227638703,9729,-4195,3461,11145.850662914876
1735575715454,-6,100,956,961.2346227638703,9705,-4206,1590,10696.0535245482
1735575715483,-6,100,956,961.2346227638703,9689,-4221,-281,10572.252503605841
1735575715514,-41,94,995,1000.2709632894479,9687,-4240,-2161,10792.844388760546
1735575715544,-41,94,995,1000.2709632894479,9731,-4249,-4093,11379.763222492813
1735575715574,-41,94,995,1000.2709632894479,9770,-4248,-6024,12238.749119088927
1735575715604,-41,94,995,1000.2709632894479,9800,-4238,-7953,13313.558990743233
1735575715634,-23,110,993,999.3387813949782,9784,-4228,-9849,14512.251410446279
1735575715664,-23,110,993,999.3387813949782,9762,-4224,-11738,15840.43762021744
1735575715694,-23,110,993,999.3387813949782,9742,-4226,-13628,17276.80595480542
1735575715724,-35,100,998,1003.6079911997513,9737,-4228,-15528,18809.67668515331
1735575715754,-35,100,998,1003.6079911997513,9746,-4227,-17439,20419.86204654674
1735575715784,-35,100,998,1003.6079911997513,9753,-4224,16649,19752.275463854792
1735575715814,-41,105,995,1001.3645689757552,9757,-4221,14740,18173.703254978056
1735575715844,-41,105,995,1001.3645689757552,9756,-4217,12827,16658.167786404363
1735575715874,-41,105,995,1001.3645689757552,9755,-4214,10915,15233.353078032427
1735575715904,-41,105,995,1001.3645689757552,9753,-4211,9003,13925.06872514459
1735575715934,-33,99,966,971.6202962062906,9751,-4211,7095,12773.157283929451
1735575715964,-33,99,966,971.6202962062906,9750,-4211,5191,11821.230984969374
1735575715994,-33,99,966,971.6202962062906,9749,-4212,3286,11116.732478565813
1735575716023,-41,94,979,984.3566426859728,9751,-4210,1379,10710.170026661575
1735575716053,-41,94,979,984.3566426859728,9757,-4205,-533,10637.911590157159
1735575716083,-41,94,979,984.3566426859728,9761,-4198,-2445,10903.13487030221
1735575716114,-31,104,973,979.033196577113,9761,-4191,-4357,11481.509090707545
1735575716144,-31,104,973,979.033196577113,9744,-4189,-6256,12313.845581295876
1735575716174,-31,104,973,979.033196577113,9729,-4190,-8156,13368.989378408527
1735575716204,-31,104,973,979.033196577113,9718,-4194,-10056,14599.73616199964
1735575716234,-39,99,981,986.7537686778804,9722,-4202,-11964,15978.466259312876
1735575716264,-39,99,981,986.7537686778804,9730,-4207,-13875,17461.02442584627
1735575716294,-39,99,981,986.7537686778804,9739,-4210,-15786,19020.252811148435
1735575716324,-43,95,961,966.6410916157041,9745,-4210,-17698,20637.546583835978
1735575716354,-43,95,961,966.6410916157041,9753,-4207,16386,19527.438490493318
1735575716384,-43,95,961,966.6410916157041,9758,-4202,14472,17953.109814179825
1735575716414,-31,107,969,975.3824890780027,9761,-4196,12558,16449.52585942829
1735575716444,-31,107,969,975.3824890780027,9743,-4194,10657,15036.200783442604
1735575716474,-31,107,969,975.3824890780027,9729,-4195,8757,13745.41796381616
1735575716504,-35,109,981,987.6573292392458,9719,-4201,6855,12613.420907905991
1735575716534,-35,109,981,987.6573292392458,9717,-4210,4948,11688.750703133333
1735575716564,-35,109,981,987.6573292392458,9718,-4219,3039,11021.570033348244
1735575716594,-35,109,981,987.6573292392458,9722,-4228,1130,10661.621265079715
1735575716624,-41,97,986,991.6077853667749,9738,-4232,-785,10646.816096843224
1735575716654,-41,97,986,991.6077853667749,9755,-4231,-2703,10971.21665996985
1735575716684,-41,97,986,991.6077853667749,9769,-4226,-4620,11603.311466990792
1735575716714,-29,99,987,992.376440671583,9778,-4217,-6535,12493.942452244608
1735575716744,-29,99,987,992.376440671583,9771,-4209,-8436,13577.710337166573
1735575716774,-29,99,987,992.376440671583,9764,-4203,-10336,14826.793348529547
1735575716804,-41,92,984,989.1415469992148,9755,-4199,-12236,16202.201146757807
1735575716834,-41,92,984,989.1415469992148,9758,-4195,-14149,17692.110953755633
1735575716864,-41,92,984,989.1415469992148,9759,-4190,-16062,19255.701103828964
1735575716894,-41,92,984,989.1415469992148,9759,-4185,-17975,20877.09105694565
1735575716924,-36,102,969,975.018461363681,9752,-4182,16117,19296.32910685346
1735575716954,-36,102,969,975.018461363681,9742,-4182,14211,17729.86770960235
1735575716984,-36,102,969,975.018461363681,9735,-4185,12305,16238.764577393194
1735575717014,-47,99,971,977.1647762788014,9733,-4187,10394,14842.42210692042
1735575717044,-47,99,971,977.1647762788014,9739,-4186,8476,13572.519773424536
1735575717104,-47,99,971,977.1647762788014,9743,-4183,6558,12467.1930281038
1735575717105,-38,103,963,969.2378449070177,9744,-4180,4641,11573.971530982786
1735575717135,-38,103,963,969.2378449070177,9733,-4181,2736,10940.64650740531
1735575717164,-38,103,963,969.2378449070177,9724,-4184,831,10618.502389696958
1735575717194,-38,103,963,969.2378449070177,9717,-4188,-1073,10635.354342945044
1735575717224,-36,93,985,990.0353529041273,9722,-4195,-2982,11000.346949073924
1735575717254,-36,93,985,990.0353529041273,9730,-4200,-4890,11671.546598459006
1735575717284,-36,93,985,990.0353529041273,9738,-4203,-6799,12598.422679049945
1735575717314,-34,90,1043,1047.4278018078383,9748,-4202,-8709,13730.513063975432
1735575717344,-34,90,1043,1047.4278018078383,9756,-4197,-10618,15017.864994732108
1735575717374,-34,90,1043,1047.4278018078383,9761,-4190,-12526,16423.577472645844
1735575717404,-20,100,1033,1038.0216760742524,9774,-4193,-14416,17914.61361570492
1735575717434,-20,100,1033,1038.0216760742524,9790,-4213,-16260,19441.735236341432
1735575717464,-20,100,1033,1038.0216760742524,9809,-4230,17894,20839.97641553368
1735575717494,-20,100,1033,1038.0216760742524,9830,-4242,16049,19292.326583385428
1735575717524,-55,92,958,963.9776968374321,9839,-4226,14167,17758.628494340435
1735575717554,-55,92,958,963.9776968374321,9850,-4204,12274,16289.481023040606
1735575717584,-55,92,958,963.9776968374321,9853,-4181,10383,14912.044091941252
1735575717614,-21,99,981,986.20636785614,9848,-4160,8512,13665.388688215202
1735575717644,-21,99,981,986.20636785614,9824,-4146,6669,12576.798201450161
1735575717675,-21,99,981,986.20636785614,9802,-4138,4826,11683.00149790284
1735575717703,0,88,981,984.9390844108076,9783,-4114,3048,11041.847173367325
1735575717734,0,88,981,984.9390844108076,9755,-4052,1424,10658.635231585702
1735575717764,0,88,981,984.9390844108076,9718,-3997,-197,10509.72606683923
1735575717794,0,88,981,984.9390844108076,9675,-3949,-1818,10606.853916218513
1735575717824,-24,73,958,961.0770000369378,9547,-3793,-3437,10832.590964307661
1735575717854,-24,73,958,961.0770000369378,9418,-3662,-5067,11304.134509107718
1735575717884,-24,73,958,961.0770000369378,9285,-3561,-6699,11990.352246702347
1735575717914,-20,71,1007,1009.6979746439031,9165,-3586,-8397,12937.010087342438
1735575717944,-20,71,1007,1009.6979746439031,9084,-3682,-10127,14093.697492141657
1735575717974,-20,71,1007,1009.6979746439031,9042,-3793,-11862,15389.985607530632
1735575718004,-9,64,987,989.1137447230223,9040,-3927,-13639,16827.514670919172
1735575718034,-9,64,987,989.1137447230223,9089,-4093,-15488,18418.488374456792
1735575718094,-9,64,987,989.1137447230223,9175,-4242,-17352,20081.511223013073
1735575718094,-9,64,987,989.1137447230223,9289,-4366,16768,19659.941530940523
1735575718124,-24,62,1011,1013.1835963930723,9445,-4458,14860,18163.187743345054
1735575718154,-24,62,1011,1013.1835963930723,9605,-4513,12938,16733.649870844078
1735575718184,-24,62,1011,1013.1835963930723,9750,-4533,11013,15391.450808809415
1735575718214,8,70,1011,1013.4520215580015,9850,-4517,9082,14138.900699842261
1735575718244,8,70,1011,1013.4520215580015,9899,-4484,7171,13019.973041446745
1735575718274,8,70,1011,1013.4520215580015,9928,-4442,5267,12084.611578366927
1735575718304,9,68,976,978.4073793671018,9942,-4400,3391,11388.689345135374
1735575718334,9,68,976,978.4073793671018,9947,-4364,1567,10974.643228825254
1735575718364,9,68,976,978.4073793671018,9942,-4329,-252,10846.525203953568
1735575718394,9,68,976,978.4073793671018,9927,-4294,-2069,11012.017344701197
1735575718424,-32,75,958,961.4639878851417,9921,-4246,-3967,11497.471287200504
1735575718454,-32,75,958,961.4639878851417,9909,-4197,-5875,12260.453295045823
1735575718484,-32,75,958,961.4639878851417,9885,-4152,-7779,13246.326660625578
1735575718514,-21,73,979,981.942462672839,9850,-4115,-9722,14438.594426051312
1735575718544,-21,73,979,981.942462672839,9807,-4089,-11678,15788.377180698464
1735575718574,-21,73,979,981.942462672839,9766,-4074,-13632,17256.98861331258
1735575718604,-9,75,981,983.9039587276799,9731,-4071,-15569,18805.827899882526
1735575718634,-9,75,981,983.9039587276799,9698,-4084,-17459,20384.96850623027
1735575718664,-9,75,981,983.9039587276799,9675,-4103,16649,19688.307062822845
1735575718694,-9,75,981,983.9039587276799,9662,-4127,14755,18113.431425326344
1735575718724,-22,81,972,975.617240520072,9660,-4147,12868,16616.215965134783
1735575718754,-22,81,972,975.617240520072,9665,-4165,10974,15204.871785056263
1735575718784,-22,81,972,975.617240520072,9675,-4183,9079,13911.554729792066
1735575718814,-22,73,977,979.9704077164779,9688,-4200,7179,12768.531043154495
1735575718844,-22,73,977,979.9704077164779,9708,-4214,5277,11825.810289362838
1735575718874,-22,73,977,979.9704077164779,9727,-4223,3374,11127.988767068378
1735575718904,-14,66,984,986.3102960022267,9747,-4228,1472,10725.986061896594
1735575718934,-14,66,984,986.3102960022267,9765,-4229,-416,10649.540929072953
1735575718964,-14,66,984,986.3102960022267,9780,-4226,-2303,10900.058944794748
1735575718994,-14,66,984,986.3102960022267,9791,-4220,-4191,11455.852739975318
1735575719024,-25,82,978,981.7499681690853,9793,-4208,-6082,12271.953267512063
1735575719054,-25,82,978,981.7499681690853,9789,-4196,-7977,13306.519680216912
1735575719084,-25,82,978,981.7499681690853,9782,-4186,-9871,14513.67496535595
1735575719114,-5,76,995,997.9108176585721,9774,-4180,-11744,15840.61274067389
1735575719144,-5,76,995,997.9108176585721,9762,-4180,-13596,17251.674121661352
1735575719174,-5,76,995,997.9108176585721,9752,-4183,-15449,18742.214223511586
1735575719204,-22,78,984,987.3317578200349,9742,-4186,-17309,20298.537903011635
1735575719234,-22,78,984,987.3317578200349,9741,-4186,16796,19862.409043215277
1735575719264,-22,78,984,987.3317578200349,9740,-4186,14902,18288.242124381446
1735575719294,-22,78,984,987.3317578200349,9739,-4187,13009,16781.33400537633
1735575719324,-18,83,976,979.6882157094674,9736,-4189,11117,15359.853710240863
1735575719354,-18,83,976,979.6882157094674,9732,-4192,9227,14050.701655077586
1735575719383,-18,83,976,979.6882157094674,9730,-4197,7336,12888.157548695624
1735575719414,-16,80,981,984.386611042633,9731,-4202,5447,11917.171392574666
1735575719444,-16,80,981,984.386611042633,9735,-4206,3558,11185.706280785313
1735575719473,-16,80,981,984.386611042633,9739,-4210,1669,10740.474011886068
1735575719504,-8,66,990,992.229812089921,9744,-4213,-216,10617.982906371624
1735575719533,-8,66,990,992.229812089921,9756,-4215,-2086,10830.381202894014
1735575719564,-8,66,990,992.229812089921,9767,-4215,-3955,11349.120626726988
1735575719594,-8,66,990,992.229812089921,9775,-4212,-5825,12133.515319148033
1735575719624,-14,71,971,973.6929700886209,9777,-4205,-7706,13139.794138417847
1735575719654,-14,71,971,973.6929700886209,9776,-4198,-9588,14322.12009445529
1735575719684,-14,71,971,973.6929700886209,9773,-4192,-11469,15640.40773125816
1735575719714,-19,66,997,999.3627969861595,9774,-4186,-13352,17068.379419265322
1735575719744,-19,66,997,999.3627969861595,9779,-4180,-15238,18582.192685471757
1735575719774,-19,66,997,999.3627969861595,9781,-4172,-17123,20156.157223042293
1735575719804,-18,72,985,987.7919821500881,9779,-4165,16995,20045.10142154437
1735575719834,-18,72,985,987.7919821500881,9766,-4160,15122,18475.801471113507
1735575719864,-18,72,985,987.7919821500881,9754,-4157,13249,16969.300692721547
1735575719894,-18,72,985,987.7919821500881,9744,-4158,11376,15545.027372121285
1735575719924,-22,80,960,963.5787461333921,9735,-4158,9482,14211.527468924654
1735575719954,-22,80,960,963.5787461333921,9726,-4161,7585,13016.959015069533
1735575719984,-22,80,960,963.5787461333921,9720,-4165,5687,12006.981052704297
1735575720014,-34,71,979,982.1598647878053,9725,-4170,3790,11239.600749136955
1735575720045,-34,71,979,982.1598647878053,9741,-4172,1886,10763.348038598398
1735575720075,-34,71,979,982.1598647878053,9754,-4170,-17,10608.001932503596
1735575720104,-3,74,986,988.7775280617981,9763,-4166,-1918,10786.586531428744
1735575720134,-3,74,986,988.7775280617981,9742,-4169,-3782,11251.250997111389
1735575720164,-3,74,986,988.7775280617981,9726,-4177,-5646,11996.65457533891
1735575720194,-3,74,986,988.7775280617981,9716,-4187,-7512,12975.429434126641
1735575720224,-9,70,993,995.5048970246204,9723,-4197,-9384,14149.59342172064
1735575720254,-9,70,993,995.5048970246204,9734,-4204,-11260,15466.478978746261
1735575720284,-9,70,993,995.5048970246204,9745,-4209,-13136,16888.907661539273
1735575720314,-8,70,992,994.4988687776372,9749,-4210,-15012,18388.236592996076
1735575720344,-8,70,992,994.4988687776372,9752,-4210,-16887,19949.846440511767
1735575720374,-8,70,992,994.4988687776372,9755,-4209,17236,20247.355432253367
1735575720404,-14,72,985,987.7271890557635,9757,-4208,15360,18677.14948807767
1735575720434,-14,72,985,987.7271890557635,9763,-4205,13476,17163.938067937674
1735575720464,-14,72,985,987.7271890557635,9766,-4201,11593,15729.615570636175
1735575720494,-11,83,979,982.5736613608162,9768,-4197,9711,14399.033092537846
1735575720524,-11,83,979,982.5736613608162,9758,-4196,7837,13200.134431133647
1735575720554,-11,83,979,982.5736613608162,9750,-4198,5962,12175.02147842048
1735575720584,-11,83,979,982.5736613608162,9744,-4201,4087,11370.906120446163
1735575720614,-4,68,989,991.3430284215449,9742,-4206,2212,10839.27783572319
1735575720644,-4,68,989,991.3430284215449,9744,-4211,339,10620.403852961525
1735575720674,-4,68,989,991.3430284215449,9747,-4215,-1533,10729.4139168922
1735575720704,-8,73,993,995.7118056948004,9750,-4219,-3407,11156.617318882996
1735575720734,-8,73,993,995.7118056948004,9750,-4221,-5286,11866.808206084736
1735575720764,-8,73,993,995.7118056948004,9751,-4223,-7166,12816.679991323806
1735575720794,-12,82,1035,1038.3125733612205,9754,-4225,-9047,13958.486665824486
1735575720824,-12,82,1035,1038.3125733612205,9758,-4226,-10936,15253.646645966335
1735575720854,-12,82,1035,1038.3125733612205,9761,-4226,-12824,16661.067582841144
1735575720884,-12,82,1035,1038.3125733612205,9764,-4226,-14712,18155.927847400144
1735575720914,-18,77,994,997.140411376452,9761,-4225,-16600,19715.16538099541
1735575720944,-18,77,994,997.140411376452,9761,-4223,17509,20485.99353216729
1735575720974,-18,77,994,997.140411376452,9761,-4222,15619,18895.9140027679
1735575721004,-7,70,968,970.5529351869479,9763,-4219,13733,17369.842227262747
1735575721034,-7,70,968,970.5529351869479,9763,-4216,11854,15925.078995094498
1735575721064,-7,70,968,970.5529351869479,9763,-4213,9976,14580.333123766412
1735575721094,-11,83,970,973.6066967723671,9764,-4211,8100,13367.057155559709
1735575721124,-11,83,970,973.6066967723671,9760,-4210,6225,12317.967567744283
1735575721154,-11,83,970,973.6066967723671,9757,-4211,4349,11482.3939577076
1735575721184,-11,83,970,973.6066967723671,9755,-4212,2474,10909.70416647491
1735575721214,-12,73,979,981.7912201685244,9754,-4211,591,10640.597633591828
1735575721243,-12,73,979,981.7912201685244,9755,-4210,-1291,10702.841024699937
1735575721274,-12,73,979,981.7912201685244,9756,-4209,-3174,11089.161059340784
1735575721304,-20,70,982,984.6948765988376,9762,-4207,-5056,11771.09293991004
1735575721334,-20,70,982,984.6948765988376,9774,-4203,-6942,12703.843867113606
1735575721364,-20,70,982,984.6948765988376,9782,-4197,-8827,13828.169148517096
1735575721394,-5,71,988,990.5604474235785,9786,-4188,-10712,15101.39344563938
1735575721424,-5,71,988,990.5604474235785,9778,-4183,-12582,16474.631923050663
1735575721454,-5,71,988,990.5604474235785,9769,-4180,-14450,17936.227613408566
1735575721484,-5,71,988,990.5604474235785,9762,-4179,-16319,19469.731533845043
1735575721513,-9,80,959,962.3731085187283,9736,-4177,17825,20735.66131089144
1735575721545,-9,80,959,962.3731085187283,9713,-4181,15968,19152.027412261083
1735575721574,-9,80,959,962.3731085187283,9695,-4189,14110,17624.77931776736
1735575721604,-19,70,993,995.6455192486933,9696,-4202,12238,16169.04029310336
1735575721634,-19,70,993,995.6455192486933,9712,-4211,10353,14806.757713962905
1735575721664,-19,70,993,995.6455192486933,9728,-4217,8467,13568.609435015807
1735575721694,-26,68,984,986.6894141521941,9745,-4220,6579,12492.264246324603
1735575721724,-26,68,984,986.6894141521941,9768,-4220,4679,11623.909196135352
1735575721754,-26,68,984,986.6894141521941,9787,-4214,2779,11012.084543809133
1735575721784,-26,68,984,986.6894141521941,9801,-4204,881,10700.90547570625
1735575721814,-9,85,981,984.7167105315112,9784,-4194,-998,10691.692850058871
1735575721844,-9,85,981,984.7167105315112,9761,-4190,-2872,11003.708692981652
1735575721874,-9,85,981,984.7167105315112,9741,-4192,-4747,11618.689857294583
1735575721904,0,76,979,981.9455178369113,9727,-4198,-6619,12491.95316994104
1735575721934,0,76,979,981.9455178369113,9719,-4206,-8484,13569.364502437098
1735575721964,0,76,979,981.9455178369113,9714,-4216,-10350,14807.395179436524
1735575721994,-27,79,953,956.6498837087684,9715,-4227,-12219,16172.591474466917
1735575722024,-27,79,953,956.6498837087684,9738,-4231,-14124,17669.674049059307
1735575722054,-27,79,953,956.6498837087684,9758,-4230,-16029,19236.43171172866
1735575722084,-27,79,953,956.6498837087684,9773,-4225,-17934,20856.426108036823
1735575722114,-21,78,982,985.3167003557791,9782,-4217,16174,19366.695355687298
1735575722144,-21,78,982,985.3167003557791,9787,-4209,14286,17821.078699113586
1735575722174,-21,78,982,985.3167003557791,9787,-4199,12399,16344.790332090528
1735575722204,-6,72,992,994.6275684898343,9782,-4191,10518,14962.631085474239
1735575722234,-6,72,992,994.6275684898343,9771,-4186,8651,13705.285038991346
1735575722264,-6,72,992,994.6275684898343,9761,-4184,6783,12601.272396071756
1735575722294,-12,77,981,984.0904429980001,9753,-4185,4911,11694.150460807317
1735575722324,-12,77,981,984.0904429980001,9750,-4187,3026,11034.044815932188
1735575722354,-12,77,981,984.0904429980001,9747,-4189,1140,10670.113870057807
1735575722384,-12,77,981,984.0904429980001,9746,-4192,-746,10635.501680691888
1735575722414,-26,71,984,986.9007042251009,9757,-4192,-2642,10943.129214260425
1735575722444,-26,71,984,986.9007042251009,9769,-4188,-4543,11559.046413956474
1735575722474,-26,71,984,986.9007042251009,9778,-4181,-6443,12433.917081917509
1735575722504,0,78,976,979.1118424368076,9769,-4176,-8326,13497.948473749631
1735575722534,0,78,976,979.1118424368076,9743,-4180,-10184,14700.758653892663
1735575722564,0,78,976,979.1118424368076,9723,-4189,-12044,16035.659824279137
1735575722593,-26,77,963,966.4233026991847,9710,-4201,-13907,17473.899106953777
1735575722623,-26,77,963,966.4233026991847,9726,-4207,-15804,19027.88325064036
1735575722653,-26,77,963,966.4233026991847,9740,-4209,-17700,20636.697434424917
1735575722684,-26,77,963,966.4233026991847,9752,-4208,16402,19540.582693461318
1735575722714,-11,79,959,962.3112801999154,9754,-4208,14517,17988.637219089167
1735575722744,-11,79,959,962.3112801999154,9753,-4210,12639,16510.282553608828
1735575722774,-11,79,959,962.3112801999154,9752,-4212,10760,15120.186771333216
1735575722804,1075,125,-157,1093.5716711766083,9467,-4786,8338,13492.66945418882
1735575722834,1075,125,-157,1093.5716711766083,10634,-5309,4756,12801.834751315922
1735575722865,1075,125,-157,1093.5716711766083,12087,-5278,904,13220.06312390376
1735575722895,-44,118,566,579.8413576143047,13805,-4336,-2052,14614.705778769547
1735575722924,-44,118,566,579.8413576143047,13684,-2712,-2831,14234.513022931273
1735575722954,-44,118,566,579.8413576143047,13408,-937,-3749,13953.76056839159
1735575722984,-44,118,566,579.8413576143047,12875,937,-4961,13829.501617918124
1735575723014,-18,98,995,999.9764997238685,10729,1727,-7134,12999.53560708997
1735575723044,-18,98,995,999.9764997238685,8715,1708,-9600,13077.786089396019
1735575723074,-18,98,995,999.9764997238685,7216,995,-11890,13943.915554821751
1735575723104,-32,99,979,984.5130776175602,6275,-57,-13792,15152.496098003126
1735575723134,-32,99,979,984.5130776175602,5774,-1221,-15413,16504.25660246471
1735575723164,-32,99,979,984.5130776175602,5602,-2363,-16895,17955.700988822464
1735575723194,-38,106,965,971.5477342879248,5682,-3413,17655,18858.226798933138
1735575723224,-38,106,965,971.5477342879248,5979,-4338,16140,17750.10661939809
1735575723254,-38,106,965,971.5477342879248,6487,-5114,14477,16667.864110317194
1735575723284,-38,106,965,971.5477342879248,7212,-5724,12588,15595.98871505106
1735575723314,-195,100,1119,1140.256988577575,8450,-6238,10010,14509.143461969077
1735575723344,-195,100,1119,1140.256988577575,9956,-6421,6977,13748.80743919268
1735575723374,-195,100,1119,1140.256988577575,11226,-6271,3962,13455.332065764858
1735575723404,-113,165,1091,1109.1776232867303,12726,-6117,-488,14128.230922518218
1735575723434,-113,165,1091,1109.1776232867303,13701,-5644,-5213,15708.198687309758
1735575723464,-113,165,1091,1109.1776232867303,13713,-4971,-9225,17258.558311747827
1735575723494,127,140,678,703.8558090972895,12438,-4677,-12988,18581.343250691
1735575723524,127,140,678,703.8558090972895,10388,-6194,-17117,20958.718209852435
1735575723554,127,140,678,703.8558090972895,12165,-7506,11457,18319.118701509633
1735575723584,127,140,678,703.8558090972895,-16263,-7380,-670,17871.72260863513
1735575723614,-1652,805,1172,2179.613039050739,17897,-5574,1206,18783.676982955174
1735575723644,-1652,805,1172,2179.613039050739,16787,-3241,1490,17161.8049750019
1735575723674,-1652,805,1172,2179.613039050739,15951,-912,1273,16027.684611321749
1735575723704,117,419,961,1054.8796139844585,17574,818,287,17595.36782792562
1735575723734,117,419,961,1054.8796139844585,-14723,2851,-106,14996.871873827555
1735575723764,117,419,961,1054.8796139844585,-10479,4839,1350,11621.009508644247
1735575723794,-250,259,1234,1285.4326120026674,-4872,4811,4760,8339.047007902042
1735575723824,-250,259,1234,1285.4326120026674,-1235,2503,5784,6422.218464051188
1735575723853,-250,259,1234,1285.4326120026674,1178,423,5247,5394.221167138033
1735575723884,-250,259,1234,1285.4326120026674,2796,-1259,4160,5168.007062688673
1735575723914,-129,253,1083,1119.6155590201486,3297,-2901,3193,5429.664722614095
1735575723942,-129,253,1083,1119.6155590201486,4022,-4227,2055,6186.035725729363
1735575723973,-129,253,1083,1119.6155590201486,5032,-5271,594,7311.449992990447
1735575724004,48,217,698,732.5278151715469,823,-7045,2774,7616.063944059293
1735575724034,48,217,698,732.5278151715469,-6064,-6890,8513,12518.6007604684
1735575724064,48,217,698,732.5278151715469,-8939,-5316,11081,15197.175329645966
1735575724094,54,181,534,566.4212213538614,-8964,-4072,12196,15674.083577676878
1735575724124,54,181,534,566.4212213538614,-6748,-4236,12946,15201.253764081435
1735575724154,54,181,534,566.4212213538614,-4822,-4552,13623,15151.188633239308
1735575724184,-126,89,919,931.8572852105627,-2023,-5440,13494,14689.25338470271
1735575724214,-126,89,919,931.8572852105627,4490,-6292,9850,12520.857159156476
1735575724244,-126,89,919,931.8572852105627,9431,-5071,6928,12753.66559072332
1735575724274,-126,89,919,931.8572852105627,11927,-3063,5995,13695.814068539335
1735575724304,30,110,952,958.8034209367423,10888,-2693,4468,12073.26869575924
1735575724334,30,110,952,958.8034209367423,9961,-2560,2910,10688.4620502671
1735575724364,30,110,952,958.8034209367423,9180,-2629,1326,9640.659572871557
1735575724394,91,96,922,931.4402825731771,8644,-2798,-109,9086.221491907403
1735575724424,91,96,922,931.4402825731771,8370,-2910,-1196,8941.77924129197
1735575724454,91,96,922,931.4402825731771,8151,-3058,-2270,8996.836388420099
1735575724484,58,75,909,913.9310696108323,8079,-3088,-3366,9280.945048862211
1735575724514,58,75,909,913.9310696108323,8209,-2829,-4568,9811.093007407482
1735575724544,58,75,909,913.9310696108323,8277,-2560,-5779,10414.373240862842
1735575724574,58,75,909,913.9310696108323,8292,-2289,-7005,11093.548124923784
1735575724604,89,35,1014,1018.4998772704885,8367,-2201,-8575,12181.203347781367
1735575724632,89,35,1014,1018.4998772704885,8417,-2099,-10138,13342.815819758587
1735575724664,89,35,1014,1018.4998772704885,8435,-1991,-11705,14564.351375876648
1735575724694,32,33,929,930.1365491152361,8207,-2199,-13489,15941.881037067113
1735575724724,32,33,929,930.1365491152361,8008,-2621,-15387,17543.01781336381
1735575724754,32,33,929,930.1365491152361,7957,-3061,-17277,19265.988139724366
1735575724784,104,21,998,1003.6239335528024,7968,-3484,17045,19135.289519628386
1735575724814,104,21,998,1003.6239335528024,7896,-3894,15900,18174.70913109753
1735575724844,104,21,998,1003.6239335528024,7884,-4296,14770,17284.848046772062
1735575724874,104,21,998,1003.6239335528024,7923,-4684,13646,16459.863334791087
1735575724904,83,19,984,987.677072731771,8340,-4916,11983,15405.029860405984
1735575724934,83,19,984,987.677072731771,8764,-5063,10274,14422.092115917163
1735575724964,83,19,984,987.677072731771,9159,-5132,8545,13536.680907814884
1735575724994,-118,35,839,847.9799525932202,9518,-4999,6600,12615.162503907748
1735575725024,-118,35,839,847.9799525932202,9819,-4711,4485,11778.009466798709
1735575725054,-118,35,839,847.9799525932202,9946,-4371,2446,11136.043866652106
1735575725084,68,0,930,932.4827076144629,10024,-4168,550,10869.92640269473
1735575725114,68,0,930,932.4827076144629,10138,-4287,-948,11047.901022366194
1735575725174,68,0,930,932.4827076144629,10259,-4388,-2454,11424.69872688116
1735575725175,68,0,930,932.4827076144629,10382,-4468,-3965,11977.903531085896
1735575725204,96,6,929,933.9662734810074,10333,-4341,-5713,12579.886287244412
1735575725234,96,6,929,933.9662734810074,10254,-4229,-7444,13358.221925091677
1735575725264,96,6,929,933.9662734810074,10161,-4134,-9170,14297.7192936496
1735575725294,88,-7,1005,1008.8696645256016,10026,-4063,-10798,15284.811055423615
1735575725324,88,-7,1005,1008.8696645256016,9891,-4020,-12384,16351.016390426621
1735575725354,88,-7,1005,1008.8696645256016,9772,-4002,-13972,17513.559661016945
1735575725384,80,-15,958,961.4515068374484,9675,-4007,-15621,18806.31051003891
1735575725414,80,-15,958,961.4515068374484,9619,-4029,-17400,20285.90648701704
1735575725444,80,-15,958,961.4515068374484,9578,-4061,16817,19774.764069389046
1735575725474,80,-15,958,961.4515068374484,9554,-4101,15032,18277.257480267657
1735575725504,141,5,947,957.4523486837347,9543,-4199,13030,16687.760484858358
1735575725534,141,5,947,957.4523486837347,9548,-4303,11040,15217.151934576983
1735575725564,141,5,947,957.4523486837347,9584,-4401,9036,13887.805910222103
1735575725594,144,23,1074,1083.8546950583366,9883,-4364,6644,12683.095876007561
1735575725624,144,23,1074,1083.8546950583366,10172,-4173,4109,11737.435580227906
1735575725654,144,23,1074,1083.8546950583366,10305,-3914,1636,11144.008120958993
1735575725684,-289,-5,1227,1260.5851815724316,10070,-3474,-409,10660.246573133287
1735575725714,-289,-5,1227,1260.5851815724316,9570,-2716,-2190,10186.150205057846
1735575725744,-289,-5,1227,1260.5851815724316,9000,-2109,-4060,10096.112172514724
1735575725774,-289,-5,1227,1260.5851815724316,8398,-1691,-6018,10469.107364049716
1735575725804,76,0,613,617.6932895863448,8809,-1977,-7916,12007.083992377167
1735575725834,76,0,613,617.6932895863448,9187,-2141,-9706,13534.817545870354
1735575725864,76,0,613,617.6932895863448,9536,-2200,-11496,15097.460448697986
1735575725894,64,-32,940,942.719470468283,9471,-2178,-13298,16470.5898194327
1735575725924,64,-32,940,942.719470468283,9262,-2201,-15115,17863.153976831753
1735575725954,64,-32,940,942.719470468283,9099,-2277,-16932,19356.372439070292
1735575725984,107,-58,910,918.1029354053934,9031,-2417,17250,19620.48291964293
1735575726014,107,-58,910,918.1029354053934,9103,-2609,15470,18138.14736956341
1735575726044,107,-58,910,918.1029354053934,9210,-2774,13691,16732.084657925923
1735575726074,107,-58,910,918.1029354053934,9341,-2906,11910,15412.566853058577
1735575726104,53,-53,1029,1031.7262233751742,9245,-2947,10194,14073.822153203442
1735575726134,53,-53,1029,1031.7262233751742,9183,-3007,8461,12843.599923697406
1735575726164,53,-53,1029,1031.7262233751742,9147,-3078,6727,11764.107360951786
1735575726194,53,-57,978,981.0922484659636,9054,-3212,4982,10821.838291159223
1735575726224,53,-57,978,981.0922484659636,8979,-3396,3230,10128.581193829667
1735575726254,53,-57,978,981.0922484659636,8963,-3588,1475,9766.511045404086
1735575726284,59,-68,979,983.1307135879746,9001,-3775,-291,9764.901791620845
1735575726315,59,-68,979,983.1307135879746,9090,-3946,-2067,10122.821000096761
1735575726344,59,-68,979,983.1307135879746,9209,-4090,-3855,10788.642453988361
1735575726374,59,-68,979,983.1307135879746,9347,-4204,-5654,11705.030585180031
1735575726404,66,-53,981,984.6451137338772,9478,-4287,-7456,12798.546362771047
1735575726434,66,-53,981,984.6451137338772,9602,-4342,-9261,14029.16565587562
1735575726464,66,-53,981,984.6451137338772,9719,-4371,-11070,15365.855068950768
1735575726494,56,-54,979,982.0860451101013,9826,-4374,-12883,16782.545724650954
1735575726524,56,-54,979,982.0860451101013,9920,-4354,-14702,18262.32515316711
1735575726554,56,-54,979,982.0860451101013,9989,-4315,-16516,19778.210283036227
1735575726584,59,-60,973,976.6319675292224,10034,-4263,17677,20768.501486626326
1735575726614,59,-60,973,976.6319675292224,10056,-4203,15882,19262.042181451063
1735575726644,59,-60,973,976.6319675292224,10057,-4140,14093,17801.558864324215
1735575726674,59,-60,973,976.6319675292224,10041,-4077,12309,16399.850334682935
1735575726704,62,-57,990,993.5758652463334,10009,-4019,10531,15074.296102969452
1735575726734,62,-57,990,993.5758652463334,9966,-3969,8756,13847.081028144523
1735575726764,62,-57,990,993.5758652463334,9919,-3928,6983,12750.6091619185
1735575726794,61,-57,979,982.5533064419457,9869,-3899,5212,11822.195481381621
1735575726824,61,-57,979,982.5533064419457,9821,-3881,3441,11106.515340105554
1735575726854,61,-57,979,982.5533064419457,9777,-3873,1669,10647.789394987112
1735575726884,61,-50,961,964.2313000520155,9752,-3875,-115,10494.301024842007
1735575726915,61,-50,961,964.2313000520155,9750,-3881,-1927,10669.48874126591
1735575726944,61,-50,961,964.2313000520155,9749,-3887,-3738,11141.113678622976
1735575726974,61,-50,961,964.2313000520155,9750,-3894,-5550,11875.530977602644
1735575727004,134,-96,1018,1031.2594241993622,8639,-4357,-5948,11357.573420409837
1735575727033,134,-96,1018,1031.2594241993622,7567,-4847,-6123,10874.006943164972
1735575727062,134,-96,1018,1031.2594241993622,6479,-5321,-6061,10345.346925067328
1735575727094,-36,91,548,556.6695608707198,6088,-6939,-7666,11999.209182275305
1735575727124,-36,91,548,556.6695608707198,14496,-8317,17237,24008.762442075185
1735575727154,-36,91,548,556.6695608707198,-15312,-6593,10407,19652.751512192892
1735575727184,18,69,875,877.9009055696434,-14185,-4293,10492,18158.362756592345
1735575727214,18,69,875,877.9009055696434,-13059,-2350,11917,17834.653627138374
1735575727244,18,69,875,877.9009055696434,-11780,-573,13821,18169.11582879035
1735575727274,18,69,875,877.9009055696434,-10194,732,16322,19257.75542476329
1735575727304,68,90,1009,1015.2856740839004,-8592,579,-17382,19398.237780788233
1735575727334,68,90,1009,1015.2856740839004,-7422,-86,-15240,16951.432977775065
1735575727364,68,90,1009,1015.2856740839004,-6704,-1029,-13316,14943.83863001739
1735575727394,141,103,963,978.7027127785025,-6067,-1935,-12447,13981.43494066328
1735575727424,141,103,963,978.7027127785025,-5392,-2740,-12248,13659.969546086111
1735575727454,141,103,963,978.7027127785025,-4733,-3483,-12251,13587.478758033074
1735575727484,-56,104,894,901.7693718462609,-4081,-4068,-12154,13450.758380106305
1735575727514,-56,104,894,901.7693718462609,-3648,-4594,-11401,12821.682455902579
1735575727544,-56,104,894,901.7693718462609,-3284,-5090,-10697,12293.029122230208
1735575727574,202,40,1065,1084.7253108506318,-3402,-5666,-9030,11190.087577852106
1735575727604,202,40,1065,1084.7253108506318,-4450,-6035,-5238,9146.604233266027
1735575727634,202,40,1065,1084.7253108506318,-5516,-6002,-1283,8252.051199550328
1735575727664,202,40,1065,1084.7253108506318,-6150,-5700,2417,8726.648211083108
1735575727694,-203,-129,1083,1109.3867675432225,-12313,-4134,13088,18438.971473485173
1735575727724,-203,-129,1083,1109.3867675432225,-11297,-1010,-16585,20092.39990643228
1735575727754,-203,-129,1083,1109.3867675432225,-8801,-446,-9650,13068.244602853132
1735575727784,-187,108,-522,564.9044166936562,-9807,-593,-8173,12779.938458380775
1735575727814,-187,108,-522,564.9044166936562,-13062,-927,-9657,16270.612219581659
1735575727844,-187,108,-522,564.9044166936562,-15742,-1869,-10868,19220.227600109214
1735575727874,39,-81,619,625.4942046094432,-16053,-2618,-11395,19859.475270006507
1735575727904,39,-81,619,625.4942046094432,-10160,-3304,-11671,15822.586925025882
1735575727934,39,-81,619,625.4942046094432,-4829,-3570,-12252,13644.619635592631
1735575727964,39,-81,619,625.4942046094432,-311,-3400,-12612,13065.958250354239
1735575727993,-86,-94,1028,1035.8648560502475,1,-4846,-12420,13331.920979363776
1735575728024,-86,-94,1028,1035.8648560502475,300,-6117,-12291,13732.311167461943
1735575728054,-86,-94,1028,1035.8648560502475,618,-7209,-12243,14221.204379376593
1735575728084,-36,-102,1005,1010.8041353298868,1160,-8118,-12513,14960.704963336453
1735575728114,-36,-102,1005,1010.8041353298868,4362,-8815,-15582,18426.339652790513
1735575728144,-36,-102,1005,1010.8041353298868,16313,-8457,7194,19732.92816588557
1735575728173,-75,-102,1020,1027.8273201272673,16379,-7829,5051,18843.499754557273
1735575728204,-75,-102,1020,1027.8273201272673,16285,-7181,2996,18048.37948404233
1735575728234,-75,-102,1020,1027.8273201272673,15742,-6487,1382,17082.202931706437
1735575728264,-75,-102,1020,1027.8273201272673,15084,-5776,-102,16152.387934915381
1735575728294,13,-111,956,962.5102596855786,14367,-5232,-1398,15353.791616405375
1735575728324,13,-111,956,962.5102596855786,13700,-4745,-2709,14749.362901495102
1735575728354,13,-111,956,962.5102596855786,13086,-4308,-4060,14362.655047030825
1735575728384,-41,-41,729,731.3022630896202,11322,-3122,-4953,12746.245604098487
1735575728414,-41,-41,729,731.3022630896202,9366,-1757,-6304,11425.822552446716
1735575728444,-41,-41,729,731.3022630896202,7582,-891,-8195,11199.93883911872
1735575728474,68,-95,1125,1131.0499546881208,6664,-932,-10309,12310.68645527129
1735575728504,68,-95,1125,1131.0499546881208,7353,-1527,-12280,14394.330064299624
1735575728534,68,-95,1125,1131.0499546881208,8085,-1859,-14281,16515.75208702286
1735575728564,68,-95,1125,1131.0499546881208,8770,-1949,-16297,18609.237222411884
1735575728594,9,-98,989,993.8842991012585,8397,-2496,-17946,19969.940936317264
1735575728623,9,-98,989,993.8842991012585,8211,-3097,16427,18624.13109382556
1735575728654,9,-98,989,993.8842991012585,8184,-3705,14812,17323.401080619245
1735575728684,80,-102,1021,1029.196288372631,8373,-4175,13138,16129.004867009
1735575728714,80,-102,1021,1029.196288372631,8658,-4526,11443,15046.19184378559
1735575728744,80,-102,1021,1029.196288372631,8996,-4807,9699,14075.00856127626
1735575728774,48,-102,990,996.3975110366345,9364,-4989,7892,13223.39899571967
1735575728803,48,-102,990,996.3975110366345,9745,-5039,5990,12499.465828586435
1735575728834,48,-102,990,996.3975110366345,10069,-5016,4091,11970.016624884027
1735575728864,48,-102,990,996.3975110366345,10321,-4932,2210,11650.397632699065
1735575728893,45,-95,977,982.6387942677615,10509,-4799,347,11558.109317704171
1735575728924,45,-95,977,982.6387942677615,10614,-4630,-1487,11674.976017105988
1735575728954,45,-95,977,982.6387942677615,10648,-4442,-3294,11998.404227229552
1735575728984,43,-87,977,981.8080260417512,10622,-4248,-5081,12517.54564601224
1735575729014,43,-87,977,981.8080260417512,10546,-4060,-6856,13217.656827138462
1735575729044,43,-87,977,981.8080260417512,10437,-3889,-8622,14085.246678706057
1735575729074,50,-93,976,981.6949628066754,10305,-3742,-10385,15101.119627365382
1735575729104,50,-93,976,981.6949628066754,10163,-3627,-12139,16241.829299681733
1735575729134,50,-93,976,981.6949628066754,10019,-3544,-13894,17492.385000336573
1735575729164,50,-93,976,981.6949628066754,9883,-3495,-15651,18837.263999848812
1735575729194,49,-97,977,983.0254320209625,9763,-3476,-17411,20261.82780501305
1735575729224,49,-97,977,983.0254320209625,9663,-3484,16826,19713.601928617714
1735575729254,49,-97,977,983.0254320209625,9583,-3514,15061,18193.839781640378
1735575729284,50,-97,975,981.0881713689142,9527,-3561,13294,16738.42543371389
1735575729314,50,-97,975,981.0881713689142,9494,-3618,11524,15363.220235354305
1735575729344,50,-97,975,981.0881713689142,9481,-3682,9751,14090.013697651255
1735575729374,51,-85,964,969.0830717745512,9487,-3746,7976,12948.060124976251
1735575729404,51,-85,964,969.0830717745512,9498,-3808,6199,11964.13260541691
1735575729434,51,-85,964,969.0830717745512,9523,-3866,4419,11187.539765292457
1735575729464,51,-85,964,969.0830717745512,9559,-3918,2635,10661.53975746468
1735575729494,57,-84,972,977.2865495851255,9598,-3961,854,10418.27437726613
1735575729524,57,-84,972,977.2865495851255,9640,-3995,-927,10476.113496903325
1735575729554,57,-84,972,977.2865495851255,9683,-4019,-2710,10828.52483028044
1735575729584,50,-96,963,969.0639813758429,9730,-4033,-4497,11452.554212925605
1735575729614,50,-96,963,969.0639813758429,9781,-4034,-6289,12308.23456065085
1735575729647,50,-96,963,969.0639813758429,9823,-4024,-8081,13341.156846390795
1735575729674,47,-95,978,983.7265880314509,9855,-4006,-9871,14512.260402845588
1735575729704,47,-95,978,983.7265880314509,9876,-3980,-11662,15791.707317449876
1735575729734,47,-95,978,983.7265880314509,9887,-3951,-13451,17154.957621632297
1735575729764,47,-95,978,983.7265880314509,9887,-3920,-15238,18582.67507653298
1735575729794,55,-97,977,983.342768316318,9876,-3892,-17016,20055.6051018163
1735575729824,55,-97,977,983.342768316318,9858,-3867,17209,20206.027170129215
1735575729854,55,-97,977,983.342768316318,9838,-3846,15436,18704.22561882742
1735575729884,51,-98,987,993.1636320365341,9817,-3830,13663,17254.563396388796
1735575729913,51,-98,987,993.1636320365341,9798,-3817,11887,15870.44618150353
1735575729942,51,-98,987,993.1636320365341,9779,-3809,10111,14572.907842980412
1735575729974,57,-88,976,981.6155051750151,9762,-3805,8335,13388.311842797806
1735575730004,57,-88,976,981.6155051750151,9736,-3807,6564,12343.785521467877
1735575730034,57,-88,976,981.6155051750151,9716,-3815,4792,11485.562459017843
1735575730064,57,-88,976,981.6155051750151,9701,-3827,3020,10857.058994037014
1735575730094,42,-95,969,974.5511787484534,9702,-3840,1236,10507.240360817868
1735575730124,42,-95,969,974.5511787484534,9711,-3851,-552,10461.28223498439
1735575730154,42,-95,969,974.5511787484534,9721,-3859,-2342,10717.960906814318
1735575730184,56,-90,972,977.7627524098062,9727,-3866,-4127,11251.338320395489
1735575730214,56,-90,972,977.7627524098062,9725,-3874,-5902,12017.366808082375
1735575730244,56,-90,972,977.7627524098062,9726,-3883,-7678,12985.547697344151
1735575730274,60,-93,972,978.2806345829401,9729,-3891,-9454,14112.81113031702
1735575730304,60,-93,972,978.2806345829401,9733,-3900,-11226,15361.131631491216
1735575730334,60,-93,972,978.2806345829401,9739,-3908,-12998,16705.346120329265
1735575730364,60,-93,972,978.2806345829401,9745,-3914,-14771,18123.65476387144
1735575730394,54,-90,976,981.6272204864737,9754,-3916,-16550,19605.562271967618
1735575730424,54,-90,976,981.6272204864737,9763,-3916,17668,20562.3308260518
1735575730454,54,-90,976,981.6272204864737,9769,-3914,15887,19056.482519079957
1735575730484,51,-101,974,980.5498457498221,9778,-3911,14105,17602.733594530142
1735575730514,51,-101,974,980.5498457498221,9792,-3904,12321,16215.163304758913
1735575730544,51,-101,974,980.5498457498221,9801,-3895,10538,14909.059997196337
1735575730574,52,-97,966,972.2494535868868,9806,-3884,8756,13708.049751879367
1735575730603,52,-97,966,972.2494535868868,9802,-3874,6977,12639.842127178646
1735575730634,52,-97,966,972.2494535868868,9795,-3865,5198,11743.059822720823
1735575730664,52,-97,966,972.2494535868868,9788,-3857,3420,11062.44968350139
1735575730694,62,-100,974,981.0810364083081,9778,-3852,1649,10637.96921409345
1735575730724,62,-100,974,981.0810364083081,9768,-3850,-118,10500.01180951717
1735575730754,62,-100,974,981.0810364083081,9760,-3850,-1887,10660.247135972037
1735575730783,44,-91,982,987.1884318609087,9754,-3851,-3661,11107.368635279914
1735575730814,44,-91,982,987.1884318609087,9751,-3851,-5449,11815.405325252283
1735575730844,44,-91,982,987.1884318609087,9749,-3851,-7236,12737.067872944699
1735575730874,41,-123,977,985.5653200067462,9748,-3851,-9025,13831.280851750498
1735575730904,41,-123,977,985.5653200067462,9774,-3844,-10819,15078.400876750824
1735575730934,41,-123,977,985.5653200067462,9794,-3831,-12612,16421.374516160333
1735575730964,41,-123,977,985.5653200067462,9806,-3815,-14404,17837.799107513238
1735575730994,25,-97,963,968.1957446714998,9805,-3797,-16207,19318.956571202285
1735575731024,25,-97,963,968.1957446714998,9796,-3781,17985,20825.892585913334
1735575731054,25,-97,963,968.1957446714998,9784,-3767,16178,19278.086756729776
1735575731084,42,-91,979,984.116862979189,9764,-3759,14381,17784.232848228232
1735575731114,42,-91,979,984.116862979189,9735,-3759,12599,16359.55705390583
1735575731144,42,-91,979,984.116862979189,9712,-3766,10816,15016.376260602956
1735575731174,42,-96,977,982.6031752442082,9695,-3778,9032,13778.364670743767
1735575731204,42,-96,977,982.6031752442082,9690,-3793,7247,12680.77119105932
1735575731234,42,-96,977,982.6031752442082,9689,-3809,5460,11755.713589569967
1735575731264,42,-96,977,982.6031752442082,9693,-3824,3673,11048.445773048805
1735575731294,55,-98,971,977.4814576246447,9695,-3838,1892,10597.307818498055
1735575731324,55,-98,971,977.4814576246447,9699,-3852,116,10436.568449447357
1735575731354,55,-98,971,977.4814576246447,9705,-3865,-1661,10577.531422784808
1735575731384,50,-91,979,984.4907312920726,9712,-3876,-3442,11008.800297943459
1735575731414,50,-91,979,984.4907312920726,9721,-3885,-5225,11700.072264734094
1735575731444,50,-91,979,984.4907312920726,9729,-3892,-7009,12606.632619379372
1735575731474,59,-96,987,993.4112944797839,9739,-3897,-8793,13687.643296053562
1735575731504,59,-96,987,993.4112944797839,9748,-3902,-10568,14897.373325522858
1735575731533,59,-96,987,993.4112944797839,9756,-3904,-12342,16209.432932709275
1735575731564,46,-103,975,981.5039480307759,9763,-3905,-14117,17602.69533338574
1735575731594,46,-103,975,981.5039480307759,9780,-3902,-15904,19073.836006425136
1735575731624,46,-103,975,981.5039480307759,9793,-3895,-17691,20592.361569280976
1735575731654,46,-103,975,981.5039480307759,9801,-3885,16522,19599.217076199755
1735575731684,56,-93,978,984.0066056688847,9795,-3874,14745,18120.842309340922
1735575731714,56,-93,978,984.0066056688847,9783,-3867,12972,16701.304200570685
1735575731744,56,-93,978,984.0066056688847,9771,-3862,11199,15355.94627497765
1735575731774,35,-104,964,970.2252315828526,9757,-3861,9432,14109.181195235959
1735575731804,35,-104,964,970.2252315828526,9763,-3859,7656,12993.166896488323
1735575731834,35,-104,964,970.2252315828526,9767,-3856,5879,12034.353576324738
1735575731864,42,-109,961,968.0733443288271,9775,-3850,4092,11274.643630731749
1735575731894,42,-109,961,968.0733443288271,9788,-3837,2290,10759.721790083608
1735575731924,42,-109,961,968.0733443288271,9795,-3822,490,10525.673802659856
1735575731954,42,-109,961,968.0733443288271,9797,-3806,-1309,10591.521420457026
1735575731984,51,-88,954,959.4065874278746,9773,-3799,-3085,10929.828681182518
1735575732014,51,-88,954,959.4065874278746,9746,-3799,-4858,11533.303126164681
1735575732044,51,-88,954,959.4065874278746,9724,-3805,-6632,12370.029304734891
1735575732075,56,-104,979,986.0998935199212,9712,-3815,-8407,13399.806640395973
1735575732103,56,-104,979,986.0998935199212,9713,-3826,-10180,14581.256633088933
1735575732134,56,-104,979,986.0998935199212,9716,-3837,-11954,15875.180030475245
1735575732164,295,-78,1117,1157.9283224794185,9720,-3864,-13743,17270.754036810322
1735575732194,295,-78,1117,1157.9283224794185,9558,-3977,-15300,18473.27510215771
1735575732224,295,-78,1117,1157.9283224794185,9448,-4119,-16860,19760.831586752618
1735575732254,295,-78,1117,1157.9283224794185,9386,-4278,17574,20377.530664926013
1735575732284,-16,-193,985,1003.857559616901,9592,-4332,15824,19004.516936770586
1735575732314,-16,-193,985,1003.857559616901,9873,-4310,13955,17629.357730785316
1735575732344,-16,-193,985,1003.857559616901,10091,-4228,12098,16311.52564906177
1735575732405,-45,-111,933,940.656685512839,10247,-4114,10221,15046.423030075952
1735575732406,-45,-111,933,940.656685512839,10318,-3976,8327,13842.276871960046
1735575732434,-45,-111,933,940.656685512839,10333,-3824,6448,12765.992675855647
1735575732464,92,-78,934,941.7558069903259,10291,-3673,4588,11850.964264565142
1735575732494,92,-78,934,941.7558069903259,10098,-3580,2887,11095.980037833522
1735575732524,92,-78,934,941.7558069903259,9920,-3530,1182,10595.490738988921
1735575732554,92,-78,934,941.7558069903259,9764,-3518,-526,10391.760967227836
1735575732584,75,-105,992,1000.3569362982395,9654,-3532,-2263,10525.963566343939
1735575732614,75,-105,992,1000.3569362982395,9577,-3566,-4009,10977.584707029138
1735575732644,75,-105,992,1000.3569362982395,9524,-3616,-5756,11701.007136140033
1735575732673,36,-94,958,963.2735852290356,9501,-3675,-7518,12660.764194944948
1735575732704,36,-94,958,963.2735852290356,9507,-3732,-9308,13818.456389915626
1735575732734,36,-94,958,963.2735852290356,9528,-3787,-11101,15111.464323486325
1735575732764,40,-105,984,990.3943658967371,9560,-3834,-12899,16506.888168276902
1735575732794,40,-105,984,990.3943658967371,9608,-3872,-14700,17983.21573023023
1735575732824,40,-105,984,990.3943658967371,9657,-3897,-16502,19513.079254694785
1735575732854,40,-105,984,990.3943658967371,9704,-3911,17694,20555.806308680767
1735575732884,60,-98,972,978.768614126955,9725,-3923,15914,19058.356434908022
1735575732914,60,-98,972,978.768614126955,9740,-3932,14142,17616.02645320448
1735575732944,60,-98,972,978.768614126955,9754,-3938,12369,16237.010839437165
1735575732974,62,-87,987,992.764826129532,9764,-3939,10596,14937.423907755981
1735575733004,62,-87,987,992.764826129532,9767,-3938,8825,13739.823797996829
1735575733034,62,-87,987,992.764826129532,9769,-3937,7053,12675.888095119804
1735575733064,56,-106,990,997.2321695573203,9771,-3935,5282,11783.725641748453
1735575733094,56,-106,990,997.2321695573203,9793,-3931,3503,11118.750784148371
1735575733124,56,-106,990,997.2321695573203,9810,-3921,1724,10704.32235127474
1735575733154,56,-106,990,997.2321695573203,9821,-3909,-52,10570.478986308994
1735575733184,47,-111,980,987.3854363924961,9833,-3891,-1835,10732.89313279509
1735575733214,47,-111,980,987.3854363924961,9842,-3871,-3620,11178.282739311973
1735575733244,47,-111,980,987.3854363924961,9843,-3849,-5404,11870.242878728304
1735575733274,51,-89,970,975.4086323177584,9827,-3828,-7182,12759.492035343726
1735575733304,51,-89,970,975.4086323177584,9794,-3815,-8955,13808.283238694085
1735575733334,51,-89,970,975.4086323177584,9764,-3809,-10728,14997.80520609599
1735575733364,55,-96,977,983.2446287674294,9740,-3809,-12502,16299.573153920319
1735575733394,55,-96,977,983.2446287674294,9726,-3816,-14275,17689.899858393772
1735575733423,55,-96,977,983.2446287674294,9717,-3825,-16048,19146.51451309089
1735575733454,55,-96,977,983.2446287674294,9712,-3836,-17822,20655.786695258063
1735575733484,53,-100,979,985.5201672213511,9715,-3846,16399,19444.79729902063
1735575733514,53,-100,979,985.5201672213511,9721,-3855,14621,17975.88682096102
1735575733544,53,-100,979,985.5201672213511,9728,-3863,12842,16567.24832312234
1735575733604,56,-91,988,993.7610376745508,9733,-3868,11063,15234.260139567
1735575733604,56,-91,988,993.7610376745508,9732,-3873,9285,13997.256088248154
1735575733634,56,-91,988,993.7610376745508,9733,-3878,7508,12889.539828868988
1735575733664,67,-102,956,963.7577496445878,9734,-3884,5730,11944.417608238587
1735575733694,67,-102,956,963.7577496445878,9736,-3891,3966,11209.760612965827
1735575733724,67,-102,956,963.7577496445878,9739,-3897,2202,10718.373663947343
1735575733754,67,-102,956,963.7577496445878,9744,-3903,437,10505.708638640232
1735575733784,37,-99,989,994.6310873886861,9770,-3903,-1353,10607.399209985453
1735575733814,37,-99,989,994.6310873886861,9796,-3895,-3154,11003.651984682176
1735575733844,37,-99,989,994.6310873886861,9815,-3882,-4954,11659.599692956872
1735575733874,55,-97,979,985.3298939948995,9814,-3866,-6745,12520.206747494229
1735575733904,55,-97,979,985.3298939948995,9797,-3855,-8521,13544.359527124197
1735575733934,55,-97,979,985.3298939948995,9780,-3848,-10296,14712.685682770498
1735575733964,63,-91,962,968.3460125389065,9764,-3845,-12071,15994.647917350354
1735575733994,63,-91,962,968.3460125389065,9741,-3849,-13837,17354.090324762055
1735575734024,63,-91,962,968.3460125389065,9723,-3858,-15603,18784.954138884663
1735575734054,63,-91,962,968.3460125389065,9711,-3870,-17370,20273.068859943232
1735575734084,43,-100,989,994.9723614251805,9728,-3878,16844,19834.14238125763
1735575734114,43,-100,989,994.9723614251805,9750,-3881,15051,18348.222311711834
1735575734144,43,-100,989,994.9723614251805,9767,-3878,13259,16918.458972376888
1735575734174,61,-97,975,981.7102423831586,9770,-3874,11477,15562.207587614297
1735575734204,61,-97,975,981.7102423831586,9759,-3873,9710,14301.129675658492
1735575734234,61,-97,975,981.7102423831586,9751,-3875,7942,13159.520887935092
1735575734264,64,-98,982,988.9509593503614,9748,-3879,6174,12173.266652792914
1735575734294,64,-98,982,988.9509593503614,9753,-3885,4410,11386.93698937515
1735575734324,64,-98,982,988.9509593503614,9758,-3889,2646,10832.552838551032
1735575734354,64,-98,982,988.9509593503614,9763,-3892,882,10547.120791950758
1735575734384,53,-106,979,986.1470478584824,9775,-3887,-894,10557.396932956533
1735575734414,53,-106,979,986.1470478584824,9788,-3879,-2675,10863.112353280712
1735575734444,53,-106,979,986.1470478584824,9796,-3867,-4454,11434.746214936298
1735575734474,57,-95,972,978.293412019114,9792,-3858,-6231,12230.813096438029
1735575734504,57,-95,972,978.293412019114,9777,-3854,-8004,13210.112073710805
1735575734534,57,-95,972,978.293412019114,9764,-3853,-9776,14344.039912102866
1735575734564,55,-91,964,969.8463795880252,9756,-3854,-11549,15601.674685750886
1735575734594,55,-91,964,969.8463795880252,9751,-3856,-13324,16955.22671626658
1735575734624,55,-91,964,969.8463795880252,9747,-3858,-15099,18381.18532630581
1735575734654,55,-91,964,969.8463795880252,9745,-3861,-16874,19864.647542808303
1735575734684,27,-95,937,942.1905327480212,9764,-3856,17326,20258.201006012354
1735575734714,27,-95,937,942.1905327480212,9783,-3843,15517,18741.74556971682
1735575734744,27,-95,937,942.1905327480212,9795,-3827,13710,17278.65891786744
1735575734774,66,-117,1006,1014.929061560462,9812,-3818,11921,15904.801444846773
1735575734804,66,-117,1006,1014.929061560462,9827,-3813,10162,14641.555313558734
1735575734834,66,-117,1006,1014.929061560462,9837,-3804,8403,13485.080422452067
1735575734864,69,-100,982,989.4872409485632,9828,-3788,6644,12453.162811109474
1735575734894,69,-100,982,989.4872409485632,9773,-3769,4886,11558.109101405818
1735575734924,69,-100,982,989.4872409485632,9723,-3762,3128,10884.565080884031
1735575734954,69,-100,982,989.4872409485632,9680,-3766,1369,10476.608086589858
1735575734984,76,-84,969,975.5987904871552,9630,-3784,-385,10353.925873792994
1735575735014,76,-84,969,975.5987904871552,9589,-3814,-2139,10539.01503936682
1735575735044,76,-84,969,975.5987904871552,9562,-3852,-3895,11020.01692376196
1735575735074,54,-101,969,975.7448436963426,9579,-3908,-5659,11792.11541666719
1735575735103,54,-101,969,975.7448436963426,9625,-3954,-7443,12793.474508514097
1735575735134,54,-101,969,975.7448436963426,9674,-3989,-9228,13951.859410128816
1735575735164,52,-105,964,971.0947430606346,9723,-4010,-11014,15229.084837901455
1735575735194,52,-105,964,971.0947430606346,9772,-4012,-12799,16595.256219775576
1735575735224,52,-105,964,971.0947430606346,9813,-4003,-14583,18027.281187134126
1735575735254,53,-94,987,992.8816646509291,9847,-3986,-16366,19511.47254822147
1735575735284,53,-94,987,992.8816646509291,9865,-3961,17850,20775.71288788907
1735575735314,53,-94,987,992.8816646509291,9873,-3933,16069,19265.44520637922
1735575735344,53,-94,987,992.8816646509291,9873,-3904,14289,17801.484938060647
1735575735404,63,-111,984,992.2429138068964,9867,-3883,12522,16408.408271371114
1735575735404,63,-111,984,992.2429138068964,9860,-3863,10760,15097.018546719746
1735575735434,63,-111,984,992.2429138068964,9848,-3845,8998,13882.763881878853
1735575735464,59,-92,961,967.1949131379879,9830,-3827,7237,12792.536808624003
1735575735494,59,-92,961,967.1949131379879,9790,-3810,5473,11845.418059317282
1735575735524,59,-92,961,967.1949131379879,9752,-3801,3709,11104.313846429233
1735575735554,60,-99,992,998.7316957021039,9727,-3805,1945,10624.291929347573
1735575735584,60,-99,992,998.7316957021039,9726,-3819,183,10450.517977593263
1735575735614,60,-99,992,998.7316957021039,9729,-3833,-1579,10575.375690726074
1735575735644,60,-99,992,998.7316957021039,9735,-3846,-3342,10987.76160098134
1735575735674,-92,-104,931,941.297508761178,9770,-3816,-5203,11708.371577636235
1735575735704,-92,-104,931,941.297508761178,9818,-3765,-7114,12695.563989047512
1735575735734,-92,-104,931,941.297508761178,9841,-3704,-9020,13853.710585976596
1735575735764,104,-109,1005,1016.2293048323297,9851,-3664,-10906,15146.21843893716
1735575735794,104,-109,1005,1016.2293048323297,9804,-3657,-12682,16441.56893365107
1735575735834,104,-109,1005,1016.2293048323297,9764,-3661,-14458,17826.17123781773
1735575735854,-12,-76,1008,1010.9322430311539,9724,-3670,-16217,19261.77990217934
1735575735883,-12,-76,1008,1010.9322430311539,9716,-3660,17938,20726.02470325653
1735575735915,-12,-76,1008,1010.9322430311539,9708,-3654,16095,19148.00263735098
1735575735945,-12,-76,1008,1010.9322430311539,9699,-3649,14252,17621.160744967965
1735575735974,63,-97,968,974.8856343182005,9644,-3666,12477,16190.17668217367
1735575736004,63,-97,968,974.8856343182005,9597,-3699,10727,14861.141914402137
1735575736034,63,-97,968,974.8856343182005,9566,-3742,8975,13640.43785954102
1735575736064,91,-97,990,998.8943888119504,9552,-3790,7227,12563.21348222659
1735575736094,91,-97,990,998.8943888119504,9545,-3844,5495,11665.264077593785
1735575736124,91,-97,990,998.8943888119504,9553,-3897,3761,10981.41789569999
1735575736154,36,-101,975,980.8781779609535,9577,-3947,2020,10553.584130521725
1735575736184,36,-101,975,980.8781779609535,9652,-3979,210,10442.10922179997
1735575736214,36,-101,975,980.8781779609535,9721,-3994,-1600,10630.610377584158
1735575736244,36,-101,975,980.8781779609535,9782,-3994,-3410,11102.596993496612
1735575736274,56,-111,977,984.8786727308091,9818,-3986,-5196,11801.683608706006
1735575736304,56,-111,977,984.8786727308091,9844,-3972,-6973,12700.545224516938
1735575736334,56,-111,977,984.8786727308091,9861,-3952,-8748,13761.726962848812
1735575736364,60,-97,971,977.6758153907664,9863,-3928,-10523,14947.959124910665
1735575736394,60,-97,971,977.6758153907664,9850,-3904,-12294,16229.792112038896
1735575736424,60,-97,971,977.6758153907664,9832,-3885,-14063,17593.44815549243
