Timestamp,Acc_X,Acc_Y,Acc_Z,Acc_Betrag,Ori_X,Ori_Y,Ori_Z,Ori_Betrag
1735564741985,-237,-34,989,1017.5686709013795,-10235,4134,16915,20198.079265118256
1735564741985,-277,0,973,1011.6610104180155,-10278,4124,-15871,19352.86286315283
1735564741994,-277,0,973,1011.6610104180155,-10313,4133,-12641,16829.57334575063
1735564742024,-277,0,973,1011.6610104180155,-10329,4152,-9401,14570.7290826506
1735564742054,-326,5,965,1018.5902021912443,-10337,4171,-6158,12734.668193557301
1735564742084,-326,5,965,1018.5902021912443,-10318,4191,-2865,11499.29693503042
1735564742114,-326,5,965,1018.5902021912443,-10290,4200,436,11122.688344100989
1735564742144,-240,28,953,983.1546165278379,-10255,4194,3757,11699.132873850096
1735564742174,-240,28,953,983.1546165278379,-10307,4174,6999,13139.3502883514
1735564742204,-240,28,953,983.1546165278379,-10357,4175,10236,15148.391663803784
1735564742234,-240,28,953,983.1546165278379,-10389,4194,13481,17528.78541143111
1735564742264,-244,31,914,946.5162439176626,-10434,4208,16689,20127.054950985752
1735564742294,-244,31,914,946.5162439176626,-10452,4235,-16085,19644.509512838442
1735564742324,-244,31,914,946.5162439176626,-10443,4263,-12839,17090.036249230136
1735564742354,-325,-47,1075,1124.0369211017937,-10352,4287,-9523,14704.754401213235
1735564742384,-325,-47,1075,1124.0369211017937,-10189,4257,-6134,12631.853624864405
1735564742414,-325,-47,1075,1124.0369211017937,-10108,4176,-2794,11287.917256961091
1735564742444,-308,4,872,924.8048442779698,-10129,4078,465,10928.99583676378
1735564742474,-308,4,872,924.8048442779698,-10291,4007,3617,11620.818344677797
1735564742504,-308,4,872,924.8048442779698,-10452,4005,6751,13071.355323760425
1735564742534,-308,4,872,924.8048442779698,-10562,4057,9906,15038.08262379217
1735564742564,-247,2,1004,1033.9385861839185,-10567,4147,13158,17377.918805196437
1735564742594,-247,2,1004,1033.9385861839185,-10515,4222,16446,19971.515340604477
1735564742626,-247,2,1004,1033.9385861839185,-10420,4265,-16223,19747.211296788213
1735564742654,-296,-13,1020,1062.1605340060419,-10333,4271,-12886,17060.51951143341
1735564742684,-296,-13,1020,1062.1605340060419,-10250,4245,-9534,14628.044332719259
1735564742715,-296,-13,1020,1062.1605340060419,-10217,4197,-6213,12672.934427353437
1735564742744,-227,27,961,987.8152661302619,-10230,4139,-2936,11419.470959724886
1735564742774,-227,27,961,987.8152661302619,-10364,4091,211,11144.204682255257
1735564742804,-227,27,961,987.8152661302619,-10490,4097,3349,11749.0982632711
1735564742834,-227,27,961,987.8152661302619,-10571,4144,6508,13087.125008954412
1735564742864,-265,84,998,1035.9946911060886,-10588,4218,9789,15024.04036868911
1735564742895,-265,84,998,1035.9946911060886,-10542,4289,13140,17383.5809026794
1735564742925,-265,84,998,1035.9946911060886,-10454,4329,16532,20033.306791441097
1735564742954,-217,56,967,992.6298403735402,-10354,4321,-16081,19608.031976718114
1735564742984,-217,56,967,992.6298403735402,-10303,4273,-12759,16947.047500966062
1735564743014,-217,56,967,992.6298403735402,-10309,4217,-9477,14624.366618763357
1735564743044,-247,101,894,932.9769557711487,-10354,4170,-6222,12779.182289958932
1735564743074,-247,101,894,932.9769557711487,-10430,4150,-2939,11603.66842856172
1735564743104,-247,101,894,932.9769557711487,-10496,4160,342,11295.511497935806
1735564743134,-247,101,894,932.9769557711487,-10531,4192,3642,11905.418472275554
1735564743165,-215,95,924,953.4285500235453,-10549,4211,6892,13285.841561602336
1735564743195,-215,95,924,953.4285500235453,-10553,4232,10144,15237.334707881166
1735564743225,-215,95,924,953.4285500235453,-10539,4251,13410,17577.5317379887
1735564743254,-271,58,865,908.3116205355957,-10506,4269,16703,20188.87332170867
1735564743284,-271,58,865,908.3116205355957,-10430,4269,-15957,19535.48335721438
1735564743314,-271,58,865,908.3116205355957,-10380,4243,-12629,16889.022766282247
1735564743344,-208,54,979,1002.3078369443192,-10366,4201,-9328,14564.132002972234
1735564743375,-208,54,979,1002.3078369443192,-10432,4154,-6136,12795.813221518982
1735564743405,-208,54,979,1002.3078369443192,-10513,4138,-2965,11680.643732260649
1735564743435,-208,54,979,1002.3078369443192,-10579,4152,208,11366.512613814319
1735564743464,-242,22,981,1010.6478120492816,-10550,4204,3482,11878.570621080637
1735564743494,-242,22,981,1010.6478120492816,-10475,4232,6799,13185.668356211603
1735564743524,-242,22,981,1010.6478120492816,-10403,4228,10122,15117.978601651743
1735564743554,-231,82,946,977.2415259289793,-10408,4192,13393,17472.028416872494
1735564743584,-231,82,946,977.2415259289793,-10484,4175,16621,20089.86117423413
1735564743614,-231,82,946,977.2415259289793,-10548,4187,-16151,19739.45475437455
1735564743644,-268,46,984,1020.8800125382022,-10569,4226,-12887,17194.115446861462
1735564743674,-268,46,984,1020.8800125382022,-10471,4267,-9512,14775.901799890253
1735564743704,-268,46,984,1020.8800125382022,-10374,4265,-6126,12780.374681518535
1735564743734,-268,46,984,1020.8800125382022,-10313,4229,-2756,11482.070632076777
1735564743764,-229,2,912,940.3132456793321,-10362,4185,474,11185.255696674976
1735564743795,-229,2,912,940.3132456793321,-10430,4162,3667,11813.298988851506
1735564743824,-229,2,912,940.3132456793321,-10493,4166,6856,13208.457177127086
1735564743854,-291,29,965,1008.3387327679127,-10490,4193,10126,15170.93355729963
1735564743884,-291,29,965,1008.3387327679127,-10432,4215,13488,17564.708736554672
1735564743914,-291,29,965,1008.3387327679127,-10377,4212,16854,20235.62178436828
1735564743944,-254,28,1019,1050.5527116713374,-10342,4187,-15795,19338.30287279626
1735564743975,-254,28,1019,1050.5527116713374,-10367,4147,-12524,16778.643389738038
1735564744004,-254,28,1019,1050.5527116713374,-10414,4123,-9275,14542.219569240453
1735564744034,-254,28,1019,1050.5527116713374,-10463,4120,-6033,12761.107240361238
1735564744064,-322,104,938,997.1679898592814,-10516,4127,-2755,11627.915118369243
1735564744094,-322,104,938,997.1679898592814,-10543,4158,565,11347.380226290119
1735564744124,-322,104,938,997.1679898592814,-10537,4192,3909,11995.062067367555
1735564744153,-256,104,988,1025.912276951592,-10528,4222,7237,13455.04503894357
1735564744184,-256,104,988,1025.912276951592,-10531,4249,10526,15483.94775243058
1735564744215,-256,104,988,1025.912276951592,-10512,4271,13834,17891.98538452343
1735564744244,-299,83,953,1002.2469755504379,-10484,4280,17149,20550.446637482117
1735564744275,-299,83,953,1002.2469755504379,-10418,4271,-15492,19151.455009998586
1735564744305,-299,83,953,1002.2469755504379,-10382,4241,-12151,16535.380431063568
1735564744335,-299,83,953,1002.2469755504379,-10382,4205,-8836,14266.844255125237
1735564744364,-263,28,986,1020.8569929231028,-10416,4184,-5560,12526.472448379072
1735564744394,-263,28,986,1020.8569929231028,-10453,4174,-2308,11489.749736177895
1735564744424,-263,28,986,1020.8569929231028,-10484,4179,942,11325.443081840109
1735564744454,-276,76,970,1011.3614586289118,-10523,4185,4214,12083.275632046138
1735564744484,-276,76,970,1011.3614586289118,-10566,4208,7512,13630.031694754052
1735564744514,-276,76,970,1011.3614586289118,-10575,4241,10831,15720.282026732217
1735564744544,-278,83,975,1017.2502150405278,-10547,4269,14177,18178.308474662874
1735564744574,-278,83,975,1017.2502150405278,-10495,4276,17547,20888.427657437504
1735564744605,-278,83,975,1017.2502150405278,-10456,4264,-15087,18844.818943147213
1735564744634,-278,83,975,1017.2502150405278,-10441,4241,-11736,16270.65634816248
1735564744664,-260,113,961,1001.9431121575716,-10468,4211,-8412,14073.851249746815
1735564744694,-260,113,961,1001.9431121575716,-10518,4201,-5108,12424.507595876788
1735564744754,-260,113,961,1001.9431121575716,-10560,4210,-1803,11510.365285254851
1735564744755,-270,87,950,991.4479310584092,-10545,4228,1528,11463.323819904941
1735564744784,-270,87,950,991.4479310584092,-10495,4226,4880,12321.465050877676
1735564744814,-270,87,950,991.4479310584092,-10464,4208,8222,13957.21476513133
1735564744844,-259,94,956,994.9135640848405,-10476,4185,11537,16135.772990470583
1735564744875,-259,94,956,994.9135640848405,-10542,4184,14809,18653.31340539798
1735564744904,-259,94,956,994.9135640848405,-10587,4205,-17909,21224.958774989413
1735564744934,-259,94,956,994.9135640848405,-10600,4238,-14608,18539.533651092737
1735564744964,-255,67,901,938.783787674244,-10551,4263,-11291,16030.70338444324
1735564744994,-255,67,901,938.783787674244,-10494,4264,-7968,13848.998375333864
1735564745024,-255,67,901,938.783787674244,-10457,4245,-4653,12207.345452636293
1735564745054,-260,33,912,948.9114816462071,-10425,4222,-1338,11326.789174342392
1735564745084,-260,33,912,948.9114816462071,-10399,4187,1967,11381.53148745809
1735564745114,-260,33,912,948.9114816462071,-10409,4150,5246,12372.96637835891
1735564745144,-283,24,1014,1053.0246910685428,-10441,4128,8509,14087.51028393591
1735564745174,-283,24,1014,1053.0246910685428,-10449,4125,11800,16292.244351224297
1735564745204,-283,24,1014,1053.0246910685428,-10456,4126,15092,18818.083749415084
1735564745234,-283,24,1014,1053.0246910685428,-10460,4129,-17614,20897.684967479054
1735564745264,-291,49,1013,1055.107103568164,-10475,4136,-14352,18243.1363805679
1735564745294,-291,49,1013,1055.107103568164,-10483,4149,-11079,15806.698927986197
1735564745324,-291,49,1013,1055.107103568164,-10478,4162,-7797,13707.805696025896
1735564745354,-324,73,945,1001.6636161905852,-10466,4186,-4480,12129.721843471927
1735564745382,-324,73,945,1001.6636161905852,-10433,4210,-1114,11305.422813853536
1735564745414,-324,73,945,1001.6636161905852,-10391,4218,2263,11440.523327190938
1735564745444,-267,58,906,946.3028056600065,-10370,4208,5614,12520.429705086004
1735564745474,-267,58,906,946.3028056600065,-10417,4190,8838,14289.164881125838
1735564745504,-267,58,906,946.3028056600065,-10462,4192,12058,16505.20136199495
1735564745534,-267,58,906,946.3028056600065,-10490,4211,15297,19020.274183092104
1735564745564,-284,44,959,1001.135854916804,-10470,4239,-17406,20749.912216681787
1735564745594,-284,44,959,1001.135854916804,-10428,4253,-14088,18036.156381003133
1735564745624,-284,44,959,1001.135854916804,-10390,4250,-10768,15555.205688128974
1735564745654,-303,55,969,1016.7570998030945,-10351,4233,-7439,13431.314567085383
1735564745684,-303,55,969,1016.7570998030945,-10329,4206,-4109,11885.392631293254
1735564745714,-303,55,969,1016.7570998030945,-10337,4176,-800,11177.32280110045
1735564745744,-260,23,966,1000.6422937293826,-10356,4159,2502,11436.958555490179
1735564745774,-260,23,966,1000.6422937293826,-10375,4151,5770,12576.33992861198
1735564745804,-260,23,966,1000.6422937293826,-10394,4151,9035,14383.923734503043
1735564745834,-289,21,969,1011.3965592189841,-10405,4157,12299,16637.61025508171
1735564745864,-289,21,969,1011.3965592189841,-10382,4163,15593,19190.053204720407
1735564745894,-289,21,969,1011.3965592189841,-10363,4160,-17112,20433.25507597847
1735564745924,-289,21,969,1011.3965592189841,-10352,4151,-13823,17761.476121088584
1735564745954,-255,73,885,923.8933921183764,-10432,4135,-10620,15450.21841269566
1735564745984,-255,73,885,923.8933921183764,-10516,4155,-7426,13527.592431767007
1735564746014,-255,73,885,923.8933921183764,-10557,4200,-4207,12115.655079276565
1735564746044,-300,50,929,977.5177747744539,-10541,4255,-941,11406.278402704364
1735564746074,-300,50,929,977.5177747744539,-10415,4292,2439,11525.71950031754
1735564746104,-300,50,929,977.5177747744539,-10304,4277,5826,12586.000993166972
1735564746134,-261,20,1013,1046.2743426080945,-10251,4223,9179,14393.428048939557
1735564746164,-261,20,1013,1046.2743426080945,-10286,4153,12427,16657.7169504107
1735564746194,-261,20,1013,1046.2743426080945,-10363,4108,15637,19203.72885665698
1735564746224,-261,20,1013,1046.2743426080945,-10448,4098,-17169,20511.67640637888
1735564746254,-274,42,954,993.4565919052528,-10516,4124,-13937,17939.721318905707
1735564746284,-274,42,954,993.4565919052528,-10543,4170,-10673,15571.020454677979
1735564746314,-274,42,954,993.4565919052528,-10524,4217,-7375,13525.098520898102
1735564746344,-209,49,929,953.4794177117826,-10492,4236,-4103,12035.795320625886
1735564746374,-209,49,929,953.4794177117826,-10494,4238,-891,11352.469378950114
1735564746404,-209,49,929,953.4794177117826,-10494,4239,2321,11553.363060165642
1735564746434,-185,74,1012,1031.42862089434,-10488,4243,5546,12599.972579335243
1735564746464,-185,74,1012,1031.42862089434,-10510,4252,8771,14334.226348150081
1735564746494,-185,74,1012,1031.42862089434,-10518,4267,12004,16520.642511718484
1735564746524,-185,74,1012,1031.42862089434,-10511,4281,15249,19008.947445874008
1735564746584,-204,37,998,1019.3080986630098,-10443,4284,-17477,20805.154024904503
1735564746585,-204,37,998,1019.3080986630098,-10384,4259,-14207,18105.39659880446
1735564746614,-204,37,998,1019.3080986630098,-10365,4219,-10963,15665.904219035683
1735564746645,-192,31,939,958.9296115982653,-10401,4179,-7768,13637.69284006646
1735564746675,-192,31,939,958.9296115982653,-10466,4159,-4609,12168.702395900724
1735564746704,-192,31,939,958.9296115982653,-10525,4164,-1453,11411.648872971864
1735564746735,-156,26,1015,1027.247292525028,-10556,4190,1715,11485.924473023493
1735564746764,-156,26,1015,1027.247292525028,-10573,4220,4867,12380.808455024251
1735564746794,-156,26,1015,1027.247292525028,-10562,4250,8040,13937.716599213803
1735564746824,-156,26,1015,1027.247292525028,-10531,4270,11231,15977.178161365042
1735564746854,-184,47,953,971.7376189074909,-10494,4300,14488,18398.809200597738
1735564746884,-184,47,953,971.7376189074909,-10443,4313,17771,21058.64808101413
1735564746914,-184,47,953,971.7376189074909,-10399,4306,-14944,18708.39311645979
1735564746944,-188,8,945,963.5522819235083,-10354,4289,-11665,16176.311755156055
1735564746974,-188,8,945,963.5522819235083,-10313,4254,-8401,13965.360217337755
1735564747004,-188,8,945,963.5522819235083,-10313,4212,-5167,12279.934934681047
1735564747034,-233,105,919,953.8736813645714,-10363,4178,-1966,11345.157953946697
1735564747064,-233,105,919,953.8736813645714,-10488,4193,1261,11365.276679430202
1735564747094,-233,105,919,953.8736813645714,-10559,4248,4518,12245.41991930044
1735564747124,-233,105,919,953.8736813645714,-10563,4317,7822,13834.635593321567
1735564747154,-192,-105,1003,1026.595343842938,-10397,4375,11158,15866.291249060065
1735564747184,-192,-105,1003,1026.595343842938,-10209,4344,14484,18245.006796381305
1735564747214,-192,-105,1003,1026.595343842938,-10112,4255,17758,20873.527085761045
1735564747244,-309,41,886,939.2326655307512,-10145,4122,-15031,18596.851077534604
1735564747274,-309,41,886,939.2326655307512,-10292,4032,-11822,16184.621466070808
1735564747304,-309,41,886,939.2326655307512,-10457,4009,-8646,14148.29480891602
1735564747334,-243,55,1099,1126.8873058118988,-10564,4060,-5439,12556.449219425052
1735564747364,-243,55,1099,1126.8873058118988,-10611,4160,-2210,11609.60899427711
1735564747394,-243,55,1099,1126.8873058118988,-10566,4256,1090,11442.988770421825
1735564747424,-243,55,1099,1126.8873058118988,-10458,4317,4448,12156.930410263933
1735564747454,-221,17,965,990.1287795029493,-10350,4316,7787,13652.388985082427
1735564747484,-221,17,965,990.1287795029493,-10278,4275,11098,15718.73127831887
1735564747514,-221,17,965,990.1287795029493,-10263,4218,14370,18155.373667319545
1735564747544,-201,82,947,971.5626588131103,-10349,4171,17577,20819.46135230208
1735564747574,-201,82,947,971.5626588131103,-10491,4178,-15252,18977.362013725724
1735564747604,-201,82,947,971.5626588131103,-10581,4232,-12058,16591.04424079449
1735564747634,-238,77,971,1002.7033459603094,-10601,4305,-8810,14440.579143510831
1735564747665,-238,77,971,1002.7033459603094,-10524,4369,-5458,12634.575616141605
1735564747694,-238,77,971,1002.7033459603094,-10421,4394,-2071,11497.543998611181
1735564747724,-238,77,971,1002.7033459603094,-10332,4378,1315,11298.067666641053
1735564747754,-280,13,898,940.7300356637924,-10199,4323,4728,12044.165143338081
1735564747784,-280,13,898,940.7300356637924,-10136,4225,8093,13641.325815330414
1735564747814,-280,13,898,940.7300356637924,-10173,4126,11383,15814.123244745502
1735564747844,-252,44,946,979.9775507632816,-10285,4061,14610,18322.801259632764
1735564747874,-252,44,946,979.9775507632816,-10434,4054,17797,21024.66363583494
1735564747904,-252,44,946,979.9775507632816,-10539,4099,-14999,18784.09760941419
1735564747934,-256,40,946,980.8424950011088,-10574,4171,-11756,16352.683357785658
1735564747964,-256,40,946,980.8424950011088,-10535,4239,-8462,14161.948665349695
1735564747994,-256,40,946,980.8424950011088,-10454,4279,-5129,12405.74858684473
1735564748024,-256,40,946,980.8424950011088,-10369,4284,-1781,11359.61170111021
1735564748054,-324,96,920,980.0979542882436,-10311,4249,1579,11263.390386557681
1735564748084,-324,96,920,980.0979542882436,-10295,4205,4935,12166.481619597344
1735564748114,-324,96,920,980.0979542882436,-10320,4165,8261,13859.788815129905
1735564748144,-303,54,997,1043.424170699529,-10368,4148,11551,16066.329045553623
1735564748174,-303,54,997,1043.424170699529,-10407,4148,14816,18574.85959570085
1735564748205,-303,54,997,1043.424170699529,-10433,4161,-17911,21141.554602251934
1735564748234,-246,31,898,931.6013095740044,-10437,4181,-14629,18450.457203007194
1735564748264,-246,31,898,931.6013095740044,-10445,4192,-11403,16021.83815921257
1735564748294,-246,31,898,931.6013095740044,-10442,4203,-8168,13907.436751608831
1735564748324,-246,31,898,931.6013095740044,-10431,4212,-4927,12280.962258715723
1735564748354,-283,31,970,1010.9154267296548,-10394,4221,-1614,11333.890461796425
1735564748383,-283,31,970,1010.9154267296548,-10353,4215,1713,11308.6340023895
1735564748414,-283,31,970,1010.9154267296548,-10331,4195,5031,12232.683556767091
1735564748444,-242,52,953,984.6202313582634,-10345,4174,8318,13915.11498335533
1735564748474,-242,52,953,984.6202313582634,-10397,4168,11564,16099.563006491822
1735564748504,-242,52,953,984.6202313582634,-10437,4181,14814,18597.48171124252
1735564748534,-259,40,972,1006.7099880303165,-10453,4204,-17922,21169.24441259064
1735564748565,-259,40,972,1006.7099880303165,-10424,4223,-14629,18452.673139683582
1735564748594,-259,40,972,1006.7099880303165,-10390,4228,-11327,15941.424434472598
1735564748624,-259,40,972,1006.7099880303165,-10364,4220,-8027,13771.478678776655
1735564748654,-294,39,980,1023.8930608222717,-10326,4207,-4695,12098.270537560316
1735564748684,-294,39,980,1023.8930608222717,-10303,4182,-1366,11202.985718102116
1735564748714,-294,39,980,1023.8930608222717,-10308,4155,1943,11282.470385513981
1735564748744,-207,63,937,961.6584632810133,-10378,4126,5182,12311.778263110491
1735564748774,-207,63,937,961.6584632810133,-10507,4130,8338,14034.820732734708
1735564748804,-207,63,937,961.6584632810133,-10591,4178,11514,16192.503234521831
1735564748834,-318,50,957,1009.6895562498406,-10604,4246,14734,18643.07077710107
1735564748864,-318,50,957,1009.6895562498406,-10451,4301,-17864,21138.69669587035
1735564748894,-318,50,957,1009.6895562498406,-10306,4292,-14449,18259.477018797665
1735564748924,-318,50,957,1009.6895562498406,-10220,4234,-11064,15645.678380945967
1735564748954,-252,41,963,996.2700437130487,-10257,4172,-7779,13532.34916782744
1735564748985,-252,41,963,996.2700437130487,-10342,4137,-4553,12033.351237290466
1735564749014,-252,41,963,996.2700437130487,-10426,4138,-1336,11296.433773541099
1735564749044,-255,65,889,927.1305193984286,-10502,4155,1856,11445.556561390975
1735564749075,-255,65,889,927.1305193984286,-10558,4194,5053,12433.575873416305
1735564749104,-255,65,889,927.1305193984286,-10566,4244,8283,14080.482271570105
1735564749134,-293,65,911,959.1636982288269,-10515,4292,11573,16214.833270804853
1735564749164,-293,65,911,959.1636982288269,-10380,4315,14988,18735.09458209379
1735564749194,-293,65,911,959.1636982288269,-10272,4287,-17602,20826.011548061717
1735564749224,-293,65,911,959.1636982288269,-10226,4227,-14231,18026.645999741606
1735564749254,-284,39,938,980.8266921327131,-10239,4164,-10935,15548.319587659626
1735564749284,-284,39,938,980.8266921327131,-10293,4116,-7682,13487.046711567362
1735564749314,-284,39,938,980.8266921327131,-10365,4095,-4451,12000.56877818714
1735564749344,-328,8,940,995.6143831825653,-10410,4105,-1211,11255.471824850347
1735564749374,-328,8,940,995.6143831825653,-10398,4123,2071,11375.701033342955
1735564749404,-328,8,940,995.6143831825653,-10375,4133,5364,12389.30224023936
1735564749434,-249,23,959,991.0655881423792,-10356,4136,8664,14121.548357032241
1735564749464,-249,23,959,991.0655881423792,-10411,4143,11883,16332.760299471734
1735564749494,-249,23,959,991.0655881423792,-10444,4167,15114,18838.100249228955
1735564749524,-299,39,1026,1069.391415712694,-10434,4200,-17629,20911.480028921913
1735564749554,-299,39,1026,1069.391415712694,-10353,4222,-14287,18141.89245916754
1735564749585,-299,39,1026,1069.391415712694,-10281,4213,-10943,15594.793329826465
1735564749614,-299,39,1026,1069.391415712694,-10242,4180,-7616,13430.354425702993
1735564749644,-323,-24,998,1049.2421074280235,-10179,4158,-4280,11799.127298236934
1735564749675,-323,-24,998,1049.2421074280235,-10137,4111,-962,10981.098943184148
1735564749705,-323,-24,998,1049.2421074280235,-10146,4060,2319,11171.511849342505
1735564749734,-292,-35,967,1010.7314183303099,-10194,4020,5564,12289.675829736112
1735564749764,-292,-35,967,1010.7314183303099,-10277,4000,8741,14072.022242733985
1735564749795,-292,-35,967,1010.7314183303099,-10348,4012,11917,16284.720967827481
1735564749825,-337,-44,979,1036.3136590820368,-10381,4046,15113,18775.99653813347
1735564749854,-337,-44,979,1036.3136590820368,-10330,4080,-17610,20819.87992280455
1735564749884,-337,-44,979,1036.3136590820368,-10269,4090,-14319,18089.06360207736
1735564749914,-337,-44,979,1036.3136590820368,-10222,4076,-11032,15582.300343659148
1735564749944,-253,-45,961,994.7637910579576,-10285,4059,-7847,13558.470230818815
1735564750004,-253,-45,961,994.7637910579576,-10359,4068,-4696,12079.31790292813
1735564750005,-253,-45,961,994.7637910579576,-10402,4101,-1529,11285.284489103498
1735564750035,-278,-24,961,1000.6902617693449,-10408,4139,1646,11321.090980996487
1735564750064,-278,-24,961,1000.6902617693449,-10384,4173,4853,12198.073372463374
1735564750094,-278,-24,961,1000.6902617693449,-10342,4192,8078,13776.208186580225
1735564750125,-301,73,956,1004.9208924089497,-10298,4199,11336,15880.343226769377
1735564750154,-301,73,956,1004.9208924089497,-10305,4225,14688,18433.149323976086
1735564750184,-301,73,956,1004.9208924089497,-10288,4249,-17941,21113.418150550613
1735564750214,-301,73,956,1004.9208924089497,-10259,4261,-14558,18312.251800365786
1735564750244,-273,-45,948,987.5515176435101,-10155,4257,-11187,15696.97560041424
1735564750274,-273,-45,948,987.5515176435101,-10075,4206,-7852,13448.046884213336
1735564750304,-273,-45,948,987.5515176435101,-10062,4139,-4563,11798.141124770462
1735564750334,-326,-17,966,1019.6671025388629,-10120,4076,-1339,10991.865037381054
1735564750364,-326,-17,966,1019.6671025388629,-10203,4046,1875,11134.942747944418
1735564750394,-326,-17,966,1019.6671025388629,-10281,4051,5083,12163.324011141034
1735564750425,-302,62,982,1029.2579851524106,-10336,4072,8280,13855.41338250144
1735564750454,-302,62,982,1029.2579851524106,-10451,4108,11415,16012.53540199053
1735564750484,-302,62,982,1029.2579851524106,-10501,4177,14589,18454.193317509165
1735564750514,-302,62,982,1029.2579851524106,-10483,4250,17813,21101.155371211313
1735564750544,-330,-72,902,963.1656140041546,-10257,4359,-14742,18480.624827099327
1735564750575,-330,-72,902,963.1656140041546,-9986,4350,-11250,15659.029216397803
1735564750605,-330,-72,902,963.1656140041546,-9821,4247,-7814,13249.439459841311
1735564750634,-323,-56,961,1015.3748076449406,-9823,4093,-4523,11562.936780939348
1735564750664,-323,-56,961,1015.3748076449406,-9961,3968,-1357,10807.774701574788
1735564750695,-323,-56,961,1015.3748076449406,-10143,3913,1757,11012.67755815996
1735564750724,-316,7,940,991.7182059436037,-10308,3934,4876,12062.611491712729
1735564750754,-316,7,940,991.7182059436037,-10457,4030,8047,13796.51977855285
1735564750784,-316,7,940,991.7182059436037,-10486,4159,11296,15964.118923385657
1735564750814,-316,7,940,991.7182059436037,-10404,4273,14635,18457.653426153607
1735564750844,-341,12,969,1027.319813884654,-10251,4335,-17991,21155.408457413436
1735564750874,-341,12,969,1027.319813884654,-10095,4330,-14589,18261.896013284055
1735564750904,-341,12,969,1027.319813884654,-9998,4272,-11217,15621.494070670706
1735564750934,-291,-70,980,1024.685805503326,-9957,4199,-7895,13382.992004779799
1735564750964,-291,-70,980,1024.685805503326,-9966,4119,-4655,11745.481769599746
1735564750994,-291,-70,980,1024.685805503326,-10031,4058,-1465,10919.457404102091
1735564751024,-331,-53,961,1017.7873058748571,-10129,4034,1698,11034.17423280963
1735564751054,-331,-53,961,1017.7873058748571,-10206,4061,4910,12031.718788269613
1735564751085,-331,-53,961,1017.7873058748571,-10238,4109,8151,13716.38895628146
1735564751114,-331,-53,961,1017.7873058748571,-10222,4159,11426,15885.214540571997
1735564751145,-321,-60,876,934.888763436592,-10192,4185,14676,18351.459478744462
1735564751174,-321,-60,876,934.888763436592,-10153,4195,17934,21031.162354943674
1735564751204,-321,-60,876,934.888763436592,-10119,4189,-14806,18416.284044290802
1735564751234,-327,-77,929,987.8760043649203,-10080,4178,-11525,15870.9706382439
1735564751264,-327,-77,929,987.8760043649203,-10046,4154,-8239,13640.342847597343
1735564751294,-327,-77,929,987.8760043649203,-10042,4123,-4973,11940.335924922716
1735564751324,-260,-61,976,1011.877957067946,-10074,4091,-1736,11010.697207715777
1735564751354,-260,-61,976,1011.877957067946,-10203,4078,1389,11075.225234729991
1735564751384,-260,-61,976,1011.877957067946,-10300,4110,4525,11977.383896327277
1735564751414,-260,-61,976,1011.877957067946,-10342,4169,7695,13548.082890209966
1735564751444,-202,-62,1008,1029.9087338206236,-10368,4200,10892,15613.17033789102
1735564751475,-202,-62,1008,1029.9087338206236,-10375,4236,14092,18004.687861776445
1735564751505,-202,-62,1008,1029.9087338206236,-10352,4267,17316,20620.743172834485
1735564751534,-229,20,875,904.6911075057608,-10344,4256,-15496,19111.197973962804
1735564751564,-229,20,875,904.6911075057608,-10385,4243,-12329,16668.998620193117
1735564751594,-229,20,875,904.6911075057608,-10422,4246,-9165,14513.57381901508
1735564751624,-162,60,913,929.2001937150035,-10441,4259,-5990,12768.463572411521
1735564751654,-162,60,913,929.2001937150035,-10521,4279,-2876,11716.341493828182
1735564751684,-162,60,913,929.2001937150035,-10561,4321,260,11413.735672425571
1735564751714,-162,60,913,929.2001937150035,-10555,4368,3431,11927.246538912492
1735564751744,-120,21,1009,1016.3277030564502,-10490,4402,6640,13172.217125450066
1735564751774,-120,21,1009,1016.3277030564502,-10422,4406,9846,14999.15450950486
1735564751804,-120,21,1009,1016.3277030564502,-10373,4386,13043,17232.410568460815
1735564751834,-203,19,956,977.4998721227538,-10316,4370,16289,19769.883080079155
1735564751864,-203,19,956,977.4998721227538,-10239,4338,-16399,19813.69642444337
1735564751894,-203,19,956,977.4998721227538,-10213,4288,-13123,17172.811126894747
1735564751924,-178,6,927,943.9539183667813,-10235,4237,-9889,14849.232808465224
1735564751954,-178,6,927,943.9539183667813,-10295,4199,-6725,12994.008273046466
1735564751984,-178,6,927,943.9539183667813,-10365,4188,-3576,11737.135297848448
1735564752014,-178,6,927,943.9539183667813,-10421,4202,-425,11244.317231384039
1735564752044,-181,-6,976,992.6595589626888,-10418,4230,2761,11578.028545482171
1735564752074,-181,-6,976,992.6595589626888,-10391,4249,5967,12713.456296381406
1735564752135,-181,-6,976,992.6595589626888,-10358,4256,9181,14480.761754824916
1735564752135,-185,-13,972,989.5342338696524,-10312,4258,12405,16683.8824318562
1735564752165,-185,-13,972,989.5342338696524,-10268,4245,15631,19177.59135032343
1735564752195,-185,-13,972,989.5342338696524,-10248,4219,-17158,20425.925413552257
1735564752224,-181,0,1010,1026.0901519847075,-10262,4195,-13978,17840.716157150193
1735564752254,-181,0,1010,1026.0901519847075,-10311,4191,-10834,15532.442113202933
1735564752284,-181,0,1010,1026.0901519847075,-10347,4203,-7685,13556.726854222592
1735564752314,-181,0,1010,1026.0901519847075,-10362,4226,-4523,12070.113876844742
1735564752344,-237,-20,972,1000.6762713285451,-10344,4263,-1326,11266.311774489466
1735564752374,-237,-20,972,1000.6762713285451,-10287,4283,1912,11305.848132714325
1735564752434,-237,-20,972,1000.6762713285451,-10232,4279,5156,12230.617359724733
1735564752435,-198,-38,972,992.6892766621386,-10199,4263,8386,13875.077152938646
1735564752465,-198,-38,972,992.6892766621386,-10198,4240,11577,16000.116655824731
1735564752495,-198,-38,972,992.6892766621386,-10214,4221,14753,18433.492506847422
1735564752525,-225,27,952,978.6000204373593,-10238,4213,17925,21068.26139006254
1735564752554,-225,27,952,978.6000204373593,-10284,4231,-14859,18559.41534639494
1735564752584,-225,27,952,978.6000204373593,-10300,4261,-11624,16104.766282066934
1735564752614,-225,27,952,978.6000204373593,-10287,4291,-8367,13937.063499891216
1735564752644,-222,-54,906,934.3639547842157,-10189,4314,-5083,12176.33795523104
1735564752674,-222,-54,906,934.3639547842157,-10091,4290,-1803,11112.299042052458
1735564752704,-222,-54,906,934.3639547842157,-10045,4238,1445,10997.758589821837
1735564752734,-248,-47,968,1000.3684321288832,-10057,4179,4655,11843.830250387751
1735564752764,-248,-47,968,1000.3684321288832,-10105,4134,7844,13443.560428695964
1735564752794,-248,-47,968,1000.3684321288832,-10171,4114,11013,15545.43038966757
1735564752824,-260,-83,985,1022.1125182679253,-10230,4117,14164,17950.52882229379
1735564752854,-260,-83,985,1022.1125182679253,-10238,4125,17307,20527.165366898567
1735564752884,-260,-83,985,1022.1125182679253,-10238,4134,-15543,19065.451712456226
1735564752914,-260,-83,985,1022.1125182679253,-10230,4141,-12389,16591.808279991666
1735564752944,-231,-30,984,1011.1958267318947,-10223,4148,-9198,14363.803013129915
1735564752974,-231,-30,984,1011.1958267318947,-10229,4159,-6012,12572.742978363949
1735564753004,-231,-30,984,1011.1958267318947,-10225,4170,-2818,11396.519161568589
1735564753034,-216,-25,984,1007.7385573649547,-10196,4183,389,11027.566640016283
1735564753064,-216,-25,984,1007.7385573649547,-10163,4186,3598,11565.239686232188
1735564753094,-216,-25,984,1007.7385573649547,-10139,4177,6803,12904.551871335943
1735564753124,-206,-46,915,939.029818482885,-10143,4163,9978,14824.692307093594
1735564753154,-206,-46,915,939.029818482885,-10171,4154,13089,17088.79393052652
1735564753184,-206,-46,915,939.029818482885,-10197,4156,16199,19587.2087342735
1735564753245,-196,-160,998,1029.5727269115087,-10205,4171,-16673,19988.201394822896
1735564753245,-196,-160,998,1029.5727269115087,-10104,4170,-13520,17385.91717454101
1735564753275,-196,-160,998,1029.5727269115087,-10038,4134,-10384,15022.61149068297
1735564753304,-196,-160,998,1029.5727269115087,-10020,4083,-7280,13041.076987733797
1735564753334,-200,-92,1020,1043.4864637358742,-10111,4029,-4250,11684.505209892288
1735564753365,-200,-92,1020,1043.4864637358742,-10225,4022,-1236,11056.889481223912
1735564753394,-200,-92,1020,1043.4864637358742,-10309,4053,1788,11220.482788186968
1735564753424,-195,-105,979,1003.7385117648919,-10338,4115,4853,12139.154748169249
1735564753454,-195,-105,979,1003.7385117648919,-10288,4187,7985,13679.698022982817
1735564753484,-195,-105,979,1003.7385117648919,-10199,4229,11156,15695.871367974445
1735564753514,-216,-131,962,994.6160063059513,-10096,4236,14353,18052.188814656245
1735564753544,-216,-131,962,994.6160063059513,-9968,4201,17585,20645.620600989452
1735564753605,-216,-131,962,994.6160063059513,-9910,4130,-15223,18628.062942775345
1735564753606,-216,-131,962,994.6160063059513,-9924,4054,-12086,16155.249549295115
1735564753635,-205,-113,982,1009.5137443343701,-10028,4010,-8996,14055.920460788046
1735564753664,-205,-113,982,1009.5137443343701,-10137,4011,-5921,12405.850676193068
1735564753694,-205,-113,982,1009.5137443343701,-10210,4049,-2831,11342.533314916911
1735564753724,-199,-48,979,1000.1729850380883,-10264,4097,276,11054.921121383002
1735564753754,-199,-48,979,1000.1729850380883,-10304,4164,3413,11625.828185553062
1735564753784,-199,-48,979,1000.1729850380883,-10281,4231,6598,12928.02869736914
1735564753814,-221,-89,941,970.6920211890072,-10212,4282,9812,14795.12798187295
1735564753844,-221,-89,941,970.6920211890072,-10078,4296,13051,17039.668453347324
1735564753874,-221,-89,941,970.6920211890072,-9977,4262,16278,19562.16902595415
1735564753904,-221,-89,941,970.6920211890072,-9937,4201,-16531,19739.967857116688
1735564753934,-188,-54,877,898.5482736058202,-10017,4134,-13435,17260.633534143526
1735564753964,-188,-54,877,898.5482736058202,-10134,4111,-10379,15077.198612474402
1735564753994,-188,-54,877,898.5482736058202,-10231,4130,-7321,13241.121629227639
1735564754024,-307,-77,933,985.2243399348191,-10224,4186,-4160,11805.01469715307
1735564754054,-307,-77,933,985.2243399348191,-10098,4221,-856,10978.122835895032
1735564754084,-307,-77,933,985.2243399348191,-9987,4204,2450,11109.288231025424
1735564754114,-278,-34,953,993.3020688592167,-9928,4152,5736,12194.506304069879
1735564754144,-278,-34,953,993.3020688592167,-9981,4099,8961,14025.750710746288
1735564754174,-278,-34,953,993.3020688592167,-10056,4075,12162,16298.558371831541
1735564754204,-278,-34,953,993.3020688592167,-10124,4081,15359,18842.73913209011
1735564754234,-281,-63,943,985.9913792726587,-10132,4110,-17414,20562.026164753315
1735564754264,-281,-63,943,985.9913792726587,-10108,4132,-14168,17887.909659879213
1735564754294,-281,-63,943,985.9913792726587,-10075,4142,-10911,15417.902256792264
1735564754337,-243,-90,995,1028.189671218302,-10060,4140,-7688,13320.981345231288
1735564754354,-243,-90,995,1028.189671218302,-10062,4134,-4507,11774.839659205556
1735564754384,-243,-90,995,1028.189671218302,-10068,4129,-1329,10962.641378791883
1735564754414,-283,-81,938,983.10426710497,-10090,4119,1836,11051.93001244579
1735564754444,-283,-81,938,983.10426710497,-10122,4109,5026,12024.950769129993
1735564754474,-283,-81,938,983.10426710497,-10150,4112,8214,13689.442647529519
1735564754504,-283,-81,938,983.10426710497,-10167,4124,11408,15827.751861840645
1735564754534,-279,-79,958,1000.9225744282122,-10147,4144,14601,18257.150544375756
1735564754564,-279,-79,958,1000.9225744282122,-10120,4154,17802,20894.528470391477
1735564754594,-279,-79,958,1000.9225744282122,-10095,4152,-14994,18546.3787570512
1735564754624,-274,-21,958,996.6348378418246,-10089,4142,-11770,16046.089398978182
1735564754654,-274,-21,958,996.6348378418246,-10117,4141,-8541,13872.643980150287
1735564754684,-274,-21,958,996.6348378418246,-10137,4150,-5309,12172.376514058378
1735564754714,-271,-64,909,950.6934311332965,-10144,4161,-2088,11161.290292793212
1735564754744,-271,-64,909,950.6934311332965,-10116,4156,1094,10991.024883967828
1735564754775,-271,-64,909,950.6934311332965,-10102,4143,4270,11723.811368322164
1735564754805,-271,-64,909,950.6934311332965,-10102,4127,7435,13204.611240017633
1735564754835,-268,-54,966,1003.9402372651472,-10127,4121,10606,15232.399876578871
1735564754864,-268,-54,966,1003.9402372651472,-10151,4126,13776,17602.410431528973
1735564754894,-268,-54,966,1003.9402372651472,-10164,4138,16952,20194.06457353249
1735564754924,-307,-124,922,979.6473855423695,-10136,4166,-15827,19250.661832778635
1735564754954,-307,-124,922,979.6473855423695,-10044,4173,-12555,16610.956926077437
1735564754984,-307,-124,922,979.6473855423695,-9977,4146,-9292,14250.302066973878
1735564755014,-280,-79,1020,1060.679499189081,-9960,4094,-6061,12357.109573035274
1735564755045,-280,-79,1020,1060.679499189081,-10056,4045,-2903,11221.077042779807
1735564755075,-280,-79,1020,1060.679499189081,-10156,4038,238,10931.899377509839
1735564755105,-280,-79,1020,1060.679499189081,-10229,4066,3389,11517.38329656524
1735564755135,-303,-33,936,984.3749285714259,-10285,4130,6570,12884.216118957334
1735564755164,-303,-33,936,984.3749285714259,-10278,4204,9810,14817.118478300697
1735564755194,-303,-33,936,984.3749285714259,-10215,4261,13097,17147.412487019727
1735564755224,-276,-45,852,896.7190195373354,-10138,4280,16375,19729.117288920963
1735564755255,-276,-45,852,896.7190195373354,-10084,4267,-16382,19704.422574640445
1735564755284,-276,-45,852,896.7190195373354,-10058,4238,-13158,17095.524911508273
1735564755314,-248,-61,903,938.42101425746,-10055,4206,-9947,14755.889332737624
1735564755344,-248,-61,903,938.42101425746,-10073,4172,-6777,12837.392336452134
1735564755374,-248,-61,903,938.42101425746,-10111,4151,-3625,11515.370033133977
1735564755404,-248,-61,903,938.42101425746,-10152,4147,-481,10976.88817470598
1735564755464,-297,-18,981,1025.1312111139725,-10152,4156,2747,11308.468021796763
1735564755465,-297,-18,981,1025.1312111139725,-10143,4166,6002,12500.40035358868
1735564755495,-297,-18,981,1025.1312111139725,-10129,4171,9263,14345.628288785403
1735564755525,-276,-51,938,979.0919262255204,-10113,4165,12504,16612.345108382502
1735564755554,-276,-51,938,979.0919262255204,-10105,4148,15714,19137.573644534983
1735564755584,-276,-51,938,979.0919262255204,-10111,4132,-17087,20279.82529510548
1735564755614,-245,-99,1027,1060.4503760195475,-10126,4126,-13893,17679.79640719881
1735564755644,-245,-99,1027,1060.4503760195475,-10121,4126,-10725,15312.875040305134
1735564755674,-245,-99,1027,1060.4503760195475,-10118,4124,-7557,13284.936921190105
1735564755704,-245,-99,1027,1060.4503760195475,-10118,4121,-4392,11774.813331853715
1735564755734,-268,-39,952,989.7721960127997,-10147,4119,-1204,11017.140554608532
1735564755764,-268,-39,952,989.7721960127997,-10174,4132,1997,11161.169696765657
1735564755794,-268,-39,952,989.7721960127997,-10182,4153,5211,12168.609370014308
1735564755824,-273,-58,942,982.4749360670734,-10164,4180,8456,13866.622948649034
1735564755854,-273,-58,942,982.4749360670734,-10118,4196,11727,16046.895930366098
1735564755884,-273,-58,942,982.4749360670734,-10075,4192,15002,18550.97013635675
1735564755914,-260,-20,924,960.0916622906377,-10058,4177,-17733,20810.333538893603
1735564755944,-260,-20,924,960.0916622906377,-10108,4176,-14496,18158.87265223257
1735564755974,-260,-20,924,960.0916622906377,-10142,4193,-11252,15717.78982554481
1735564756004,-260,-20,924,960.0916622906377,-10152,4217,-7992,13591.109483776518
1735564756034,-274,-58,938,978.9198128549651,-10098,4227,-4727,11923.995219723965
1735564756064,-274,-58,938,978.9198128549651,-10044,4211,-1460,10988.451073741013
1735564756094,-274,-58,938,978.9198128549651,-10021,4180,1788,11004.080379568299
1735564756124,-217,-55,953,978.9397325678431,-10080,4139,4933,11961.279613820589
1735564756154,-217,-55,953,978.9397325678431,-10196,4128,7988,13594.371776584603
1735564756184,-217,-55,953,978.9397325678431,-10284,4156,11052,15658.214968507746
1735564756214,-215,-21,919,944.0481979221188,-10308,4210,14164,18016.59956817601
1735564756244,-215,-21,919,944.0481979221188,-10282,4266,17351,20614.933446412095
1735564756274,-215,-21,919,944.0481979221188,-10220,4303,-15428,18999.668233945562
1735564756304,-215,-21,919,944.0481979221188,-10149,4312,-12192,16438.990510368938
1735564756334,-231,-47,985,1012.8153829795438,-10059,4297,-8929,14120.011720958308
1735564756364,-231,-47,985,1012.8153829795438,-10003,4251,-5686,12266.279223953774
1735564756394,-231,-47,985,1012.8153829795438,-10001,4195,-2482,11125.571895412837
1735564756424,-260,-35,968,1002.9202361105293,-10030,4153,723,10879.845495226484
1735564756454,-260,-35,968,1002.9202361105293,-10068,4130,3941,11573.80684995218
1735564756484,-260,-35,968,1002.9202361105293,-10111,4125,7152,13053.69870956121
1735564756514,-286,-31,1017,1056.9039691476232,-10147,4137,10361,15080.673028747755
1735564756544,-286,-31,1017,1056.9039691476232,-10149,4161,13607,17477.601980821055
1735564756574,-286,-31,1017,1056.9039691476232,-10132,4181,16869,20117.190310776503
1735564756604,-286,-31,1017,1056.9039691476232,-10105,4191,-15858,19265.297038976587
1735564756635,-252,-28,922,956.2280062830204,-10121,4201,-12625,16717.465926389683
1735564756665,-252,-28,922,956.2280062830204,-10132,4215,-9396,14446.74582734811
1735564756694,-252,-28,922,956.2280062830204,-10129,4231,-6156,12585.48123831584
1735564756724,-208,-32,944,967.1732006212744,-10139,4242,-2939,11376.801220026655
1735564756754,-208,-32,944,967.1732006212744,-10163,4256,243,11020.850874592215
1735564756784,-208,-32,944,967.1732006212744,-10168,4276,3440,11554.47965076749
1735564756814,-244,-36,917,949.5899114881119,-10157,4290,6641,12871.349191129888
1735564756844,-244,-36,917,949.5899114881119,-10113,4291,9871,14768.957004473945
1735564756874,-244,-36,917,949.5899114881119,-10084,4276,13095,17071.914274620758
1735564756904,-253,-16,903,937.9093772854603,-10069,4254,16308,19632.42575434834
1735564756934,-253,-16,903,937.9093772854603,-10073,4229,-16479,19771.373523354414
1735564756964,-253,-16,903,937.9093772854603,-10094,4211,-13282,17205.60609220146
1735564756994,-253,-16,903,937.9093772854603,-10122,4204,-10093,14899.5687521485
1735564757024,-230,-43,1008,1034.8009470424736,-10121,4200,-6908,12953.574989168048
1735564757054,-230,-43,1008,1034.8009470424736,-10114,4187,-3744,11568.988763068275
1735564757084,-230,-43,1008,1034.8009470424736,-10119,4174,-589,10961.904852716065
1735564757144,-269,-24,932,970.3406618296484,-10136,4164,2559,11252.81622528334
1735564757147,-269,-24,932,970.3406618296484,-10148,4163,5753,12385.858145481887
1735564757175,-269,-24,932,970.3406618296484,-10157,4167,8947,14162.533212670676
1735564757204,-262,0,970,1004.7606680200016,-10157,4171,12156,16380.788320468584
1735564757234,-262,0,970,1004.7606680200016,-10173,4175,15382,18908.370580248316
1735564757264,-262,0,970,1004.7606680200016,-10180,4184,-17387,20577.804183148404
1735564757294,-262,0,970,1004.7606680200016,-10177,4194,-14149,17926.381843528827
1735564757324,-311,-20,939,989.3644424578841,-10112,4194,-10847,15411.021672815856
1735564757354,-311,-20,939,989.3644424578841,-10053,4167,-7537,13237.562728840985
1735564757384,-311,-20,939,989.3644424578841,-10036,4126,-4253,11654.749289452777
1735564757414,-275,-2,931,970.7677374119929,-10063,4086,-1009,10907.67830475395
1735564757444,-275,-2,931,970.7677374119929,-10161,4068,2155,11155.203718444589
1735564757474,-275,-2,931,970.7677374119929,-10240,4087,5322,12242.74695483003
1735564757505,-274,-36,947,986.4993664468316,-10274,4133,8516,13969.932748585443
1735564757534,-274,-36,947,986.4993664468316,-10229,4178,11750,16129.18550330425
1735564757564,-274,-36,947,986.4993664468316,-10164,4199,15006,18604.26115168243
1735564757594,-274,-36,947,986.4993664468316,-10105,4193,-17733,20836.30396687474
1735564757624,-321,-10,937,990.5099696620928,-10068,4169,-14439,18089.497118493924
1735564757654,-321,-10,937,990.5099696620928,-10056,4138,-11148,15573.184773834799
1735564757684,-321,-10,937,990.5099696620928,-10072,4109,-7878,13431.006998732448
1735564757714,-252,-73,957,992.3114430459824,-10145,4101,-4694,11906.840974834593
1735564757744,-252,-73,957,992.3114430459824,-10219,4119,-1581,11130.753927744518
1735564757774,-252,-73,957,992.3114430459824,-10256,4159,1552,11175.487506144866
1735564757804,-271,-29,912,951.8539803982542,-10243,4203,4734,12041.387544631225
1735564757834,-271,-29,912,951.8539803982542,-10206,4239,7999,13642.417600997265
1735564757864,-271,-29,912,951.8539803982542,-10153,4256,11283,15763.979002777185
1735564757894,-271,-29,912,951.8539803982542,-10104,4251,14569,18232.322342477382
1735564757924,-278,-50,959,999.7324642123011,-10055,4218,17834,20903.25584687706
1735564757954,-278,-50,959,999.7324642123011,-10043,4172,-14927,18468.42608345389
1735564757984,-278,-50,959,999.7324642123011,-10069,4131,-11721,15994.741729706047
1735564758014,-251,20,916,949.9773681514733,-10127,4098,-8544,13869.01831421388
1735564758044,-251,20,916,949.9773681514733,-10229,4099,-5396,12269.924938645712
1735564758074,-251,20,916,949.9773681514733,-10298,4133,-2233,11318.868406338153
1735564758104,-318,-30,919,972.9259992414634,-10311,4190,968,11171.832660758932
1735564758134,-318,-30,919,972.9259992414634,-10169,4234,4306,11826.958738407773
1735564758164,-318,-30,919,972.9259992414634,-10041,4220,7653,13311.592316473638
1735564758194,-318,-30,919,972.9259992414634,-9969,4164,10968,15395.352577969756
1735564758224,-346,-16,1010,1067.7415417599898,-9967,4091,14251,17865.283960799505
1735564758254,-346,-16,1010,1067.7415417599898,-10017,4032,17499,20562.400492160443
1735564758284,-346,-16,1010,1067.7415417599898,-10095,4002,-15281,18746.572753439494
1735564758314,-290,-73,927,974.0420935462697,-10183,4008,-12110,16322.060317251618
1735564758344,-290,-73,927,974.0420935462697,-10245,4038,-8979,14208.726543923633
1735564758374,-290,-73,927,974.0420935462697,-10264,4084,-5822,12486.97064944096
1735564758404,-248,-17,961,992.6298403735402,-10241,4130,-2618,11348.519947552631
1735564758434,-248,-17,961,992.6298403735402,-10256,4176,598,11089.730204112271
1735564758464,-248,-17,961,992.6298403735402,-10231,4218,3846,11715.656234287519
1735564758495,-248,-17,961,992.6298403735402,-10181,4243,7118,13127.13731169138
1735564758525,-275,-32,963,1002.0069860035907,-10123,4244,10366,15097.702507335347
1735564758554,-275,-32,963,1002.0069860035907,-10075,4222,13616,17456.413291395227
1735564758584,-275,-32,963,1002.0069860035907,-10060,4188,16844,20061.4874822382
1735564758614,-243,-44,898,931.3372106815018,-10096,4157,-15977,19351.340883773402
1735564758644,-243,-44,898,931.3372106815018,-10160,4146,-12843,16892.529857898728
1735564758674,-243,-44,898,931.3372106815018,-10211,4158,-9707,14689.429328602251
1735564758704,-268,-27,985,1021.1650209442155,-10227,4185,-6548,12844.534168275624
1735564758734,-268,-27,985,1021.1650209442155,-10194,4208,-3324,11518.414647858446
1735564758764,-268,-27,985,1021.1650209442155,-10153,4216,-89,10993.906766932309
1735564758794,-268,-27,985,1021.1650209442155,-10120,4209,3144,11402.404000911387
1735564758824,-243,-14,928,959.3899103075871,-10116,4189,6347,12655.654309438134
1735564758854,-243,-14,928,959.3899103075871,-10137,4174,9527,14523.93796461552
1735564758884,-243,-14,928,959.3899103075871,-10163,4169,12700,16791.579139556827
1735564758914,-271,-35,954,992.3618291732104,-10153,4174,15899,19320.55604789883
1735564758944,-271,-35,954,992.3618291732104,-10111,4168,-16872,20106.43998822268
1735564758974,-271,-35,954,992.3618291732104,-10088,4149,-13654,17476.088263681893
1735564759004,-236,-55,929,960.0843712924401,-10080,4123,-10446,15090.54157411191
1735564759034,-236,-55,929,960.0843712924401,-10095,4091,-7284,13103.509529893126
1735564759064,-236,-55,929,960.0843712924401,-10129,4069,-4140,11674.459387911716
1735564759094,-236,-55,929,960.0843712924401,-10168,4063,-1005,10995.736355515259
1735564759124,-258,-56,958,993.7122319867055,-10183,4086,2190,11188.609609777257
1735564759154,-258,-56,958,993.7122319867055,-10172,4108,5411,12232.095854758496
1735564759184,-258,-56,958,993.7122319867055,-10146,4122,8644,13951.735949336196
1735564759214,-240,-30,984,1013.289692042705,-10160,4120,11837,16134.266918580466
1735564759245,-240,-30,984,1013.289692042705,-10204,4128,14999,18604.623108249198
1735564759274,-240,-30,984,1013.289692042705,-10228,4150,-17827,20967.50850721182
1735564759305,-225,-44,909,937.4657327070681,-10236,4177,-14644,18348.562913754307
1735564759334,-225,-44,909,937.4657327070681,-10236,4205,-11475,15941.560337683384
1735564759364,-225,-44,909,937.4657327070681,-10215,4227,-8288,13816.826625531638
1735564759394,-225,-44,909,937.4657327070681,-10184,4238,-5090,12148.357913726448
1735564759424,-244,-35,934,965.9798134536767,-10123,4233,-1834,11124.611184216732
1735564759454,-244,-35,934,965.9798134536767,-10084,4209,1417,11018.649009747067
1735564759484,-244,-35,934,965.9798134536767,-10076,4177,4648,11856.517574735002
1735564759514,-266,-10,922,959.6561884341704,-10106,4147,7846,13449.48181157921
1735564759543,-266,-10,922,959.6561884341704,-10155,4136,11038,15558.533510585115
1735564759575,-266,-10,922,959.6561884341704,-10196,4143,14230,17989.323639314513
1735564759603,-215,-31,888,914.1826950888974,-10256,4167,17389,20613.75138105629
1735564759633,-215,-31,888,914.1826950888974,-10368,4221,-15568,19174.850429664373
1735564759663,-215,-31,888,914.1826950888974,-10404,4302,-12477,16805.53328520104
1735564759693,-215,-31,888,914.1826950888974,-10366,4380,-9329,14617.407328250794
1735564759723,-251,-15,954,986.5809647464317,-10207,4428,-5998,12639.859057758516
1735564759753,-251,-15,954,986.5809647464317,-10055,4413,-2644,11294.615088616345
1735564759783,-251,-15,954,986.5809647464317,-9969,4350,674,10897.602350976109
1735564759813,-270,3,990,1026.1622678699505,-9900,4267,4039,11512.202656312127
1735564759843,-270,3,990,1026.1622678699505,-9895,4173,7397,13039.960237669438
1735564759873,-270,3,990,1026.1622678699505,-9964,4098,10694,15180.136231272762
1735564759903,-337,24,1018,1072.5991795633634,-10037,4055,13972,17674.874200400976
1735564759933,-337,24,1018,1072.5991795633634,-10039,4023,17337,20433.73727441948
1735564759963,-337,24,1018,1072.5991795633634,-10064,3999,-15315,18757.007277281737
1735564759994,-337,24,1018,1072.5991795633634,-10099,3988,-11980,16168.312991774992
1735564760025,-285,1,1073,1110.204936036586,-10133,3974,-8736,13956.649347174987
1735564760055,-285,1,1073,1110.204936036586,-10173,3974,-5515,12235.106456422845
1735564760085,-285,1,1073,1110.204936036586,-10200,3987,-2289,11188.19422427051
1735564760115,-305,-25,880,931.6920091961721,-10267,4003,853,11052.73301043683
1735564760144,-305,-25,880,931.6920091961721,-10312,4036,3977,11766.187530377034
1735564760174,-305,-25,880,931.6920091961721,-10319,4078,7127,13187.341430326282
1735564760204,-249,-20,812,849.5557662684657,-10321,4118,10287,15142.765071148664
1735564760234,-249,-20,812,849.5557662684657,-10388,4170,13375,17441.045524853147
1735564760264,-249,-20,812,849.5557662684657,-10395,4234,16504,19959.0780598704
1735564760294,-249,-20,812,849.5557662684657,-10350,4289,-16323,19797.938023945826
1735564760324,-238,16,880,911.7565464530539,-10309,4338,-13059,17193.92933566961
1735564760355,-238,16,880,911.7565464530539,-10251,4369,-9770,14819.718688288249
1735564760385,-238,16,880,911.7565464530539,-10188,4373,-6469,12836.137814779024
1735564760414,-261,6,916,952.4772963173453,-10084,4347,-3125,11417.052596883314
1735564760444,-261,6,916,952.4772963173453,-10003,4278,217,10881.561560731989
1735564760474,-261,6,916,952.4772963173453,-10005,4196,3500,11399.843902440069
1735564760504,-295,30,973,1017.1794335317638,-10064,4128,6726,12789.196847339554
1735564760534,-295,30,973,1017.1794335317638,-10141,4085,9948,14781.400813184115
1735564760564,-295,30,973,1017.1794335317638,-10224,4078,13155,17152.675738787813
1735564760594,-295,30,973,1017.1794335317638,-10285,4100,16370,19762.79648733954
1735564760624,-319,-1,964,1015.4102619138729,-10317,4148,-16420,19830.854570592765
1735564760654,-319,-1,964,1015.4102619138729,-10289,4193,-13169,17229.83839158104
1735564760684,-319,-1,964,1015.4102619138729,-10235,4220,-9892,14846.389763171383
1735564760714,-321,33,956,1008.9925668705395,-10174,4219,-6583,12831.450658440768
1735564760744,-321,33,956,1008.9925668705395,-10143,4201,-3270,11455.206239959192
1735564760805,-321,33,956,1008.9925668705395,-10138,4176,25,10964.426341583037
1735564760805,-262,-45,910,948.0342820805586,-10162,4158,3304,11466.107622031113
1735564760835,-262,-45,910,948.0342820805586,-10189,4150,6510,12783.51755191035
1735564760865,-262,-45,910,948.0342820805586,-10214,4152,9714,14694.444392354548
1735564760894,-254,20,984,1016.4506874413535,-10219,4158,12926,16994.069583239914
1735564760924,-254,20,984,1016.4506874413535,-10259,4167,16141,19574.035123091
1735564760954,-254,20,984,1016.4506874413535,-10278,4189,-16631,19994.378359929073
1735564760984,-254,20,984,1016.4506874413535,-10274,4213,-13387,17392.993244407357
1735564761014,-308,-18,895,946.6852697702653,-10175,4214,-10093,14938.442689919188
1735564761044,-308,-18,895,946.6852697702653,-10089,4174,-6796,12860.630350025616
1735564761074,-308,-18,895,946.6852697702653,-10064,4112,-3538,11432.85108798326
1735564761104,-306,4,1052,1095.607593986095,-10077,4051,-309,10865.174227779322
1735564761134,-306,4,1052,1095.607593986095,-10123,3998,2905,11264.908255285527
1735564761164,-306,4,1052,1095.607593986095,-10192,3972,6095,12522.087405860095
1735564761194,-337,-1,925,984.4770185230328,-10287,3977,9250,14394.491932680361
1735564761224,-337,-1,925,984.4770185230328,-10369,4026,12398,16656.387393429584
1735564761254,-337,-1,925,984.4770185230328,-10389,4095,15588,19175.142502729934
1735564761284,-337,-1,925,984.4770185230328,-10350,4157,-17176,20479.700315190163
1735564761314,-267,2,907,945.4850606963603,-10345,4218,-13942,17865.886851763054
1735564761344,-267,2,907,945.4850606963603,-10311,4268,-10696,15457.58587231525
1735564761374,-267,2,907,945.4850606963603,-10249,4297,-7422,13363.842785666106
1735564761404,-274,13,906,946.6155502631467,-10170,4296,-4113,11781.395715279239
1735564761434,-274,13,906,946.6155502631467,-10114,4267,-802,11006.520294807075
1735564761464,-274,13,906,946.6155502631467,-10100,4225,2480,11225.463242111658
1735564761494,-391,5,1052,1122.3234827802544,-10083,4186,5775,12350.712934887604
1735564761524,-391,5,1052,1122.3234827802544,-9941,4125,9256,14195.51485505193
1735564761554,-391,5,1052,1122.3234827802544,-9898,4027,12673,16576.853199567162
1735564761584,-391,5,1052,1122.3234827802544,-9946,3936,16022,19264.461996121252
1735564761614,-365,-12,1026,1089.0569314778727,-10039,3885,-16722,19887.18255560601
1735564761644,-365,-12,1026,1089.0569314778727,-10140,3877,-13493,17317.961138656017
1735564761705,-365,-12,1026,1089.0569314778727,-10213,3906,-10255,14990.904909310846
1735564761705,-306,-32,909,959.6567094539588,-10289,3948,-7087,13102.510980724268
1735564761735,-306,-32,909,959.6567094539588,-10347,4006,-3969,11783.94696186299
1735564761765,-306,-32,909,959.6567094539588,-10343,4074,-807,11145.68858348375
1735564761794,-303,-9,868,919.4095931629167,-10309,4129,2380,11357.311389585126
1735564761824,-303,-9,868,919.4095931629167,-10295,4174,5571,12427.604032958243
1735564761854,-303,-9,868,919.4095931629167,-10250,4207,8790,14143.035353134064
1735564761884,-303,-9,868,919.4095931629167,-10195,4218,12023,16318.151794857162
1735564761914,-352,-31,985,1046.465479602648,-10079,4210,15347,18837.217151161156
1735564761944,-352,-31,985,1046.465479602648,-9993,4159,-17334,20435.87252847306
1735564761974,-352,-31,985,1046.465479602648,-9975,4090,-14062,17719.158247501487
1735564762004,-295,-49,948,994.0472825776448,-10027,4039,-10850,15315.898602432702
1735564762034,-295,-49,948,994.0472825776448,-10115,4021,-7698,13331.949219825285
1735564762064,-295,-49,948,994.0472825776448,-10188,4037,-4545,11863.799475716032
1735564762094,-370,-25,972,1040.340809542719,-10217,4081,-1361,11085.755319327593
1735564762124,-370,-25,972,1040.340809542719,-10145,4135,1968,11130.690634457504
1735564762154,-370,-25,972,1040.340809542719,-10054,4154,5324,12111.300838473133
1735564762184,-370,-25,972,1040.340809542719,-9980,4136,8677,13856.30632600189
1735564762214,-324,-49,969,1022.9066428565219,-9990,4109,11932,16095.235475133628
1735564762244,-324,-49,969,1022.9066428565219,-10024,4090,15153,18623.15990910243
1735564762274,-324,-49,969,1022.9066428565219,-10060,4087,-17632,20707.356011813772
1735564762304,-312,-68,914,968.1756039066466,-10089,4097,-14430,18077.561505911133
1735564762334,-312,-68,914,968.1756039066466,-10099,4113,-11232,15654.532698231526
1735564762364,-312,-68,914,968.1756039066466,-10094,4130,-8023,13539.359844542134
1735564762393,-322,-21,940,993.8435490558863,-10070,4140,-4789,11894.495407540415
1735564762424,-322,-21,940,993.8435490558863,-10058,4144,-1511,10982.678225278203
1735564762454,-322,-21,940,993.8435490558863,-10047,4143,1767,11010.401763786824
1735564762484,-322,-21,940,993.8435490558863,-10041,4139,5044,11974.762544618578
1735564762514,-280,-74,891,936.8868661690161,-10054,4139,8237,13640.469420074956
1735564762544,-280,-74,891,936.8868661690161,-10061,4140,11414,15768.408829048034
1735564762574,-280,-74,891,936.8868661690161,-10066,4143,14592,18204.81444563498
1735564762604,-243,-123,865,906.864377952955,-10078,4144,17736,20815.967813195715
1735564762634,-243,-123,865,906.864377952955,-10088,4143,-15160,18675.058045425187
1735564762664,-243,-123,865,906.864377952955,-10096,4145,-12056,16262.145522654751
1735564762694,-305,-68,964,1013.3829483467738,-10090,4142,-8943,14104.66281057438
1735564762724,-305,-68,964,1013.3829483467738,-10071,4128,-5752,12310.602300456303
1735564762754,-305,-68,964,1013.3829483467738,-10068,4110,-2572,11174.609970822248
1735564762784,-305,-68,964,1013.3829483467738,-10080,4095,596,10896.359070808929
1735564762814,-289,-22,995,1036.354186559788,-10130,4115,3796,11574.09784821262
1735564762844,-289,-22,995,1036.354186559788,-10162,4154,7011,13025.977161042469
1735564762874,-289,-22,995,1036.354186559788,-10153,4196,10256,15029.150375187548
1735564762904,-246,-67,976,1008.7521995019391,-10121,4236,13516,17408.635586972345
1735564762934,-246,-67,976,1008.7521995019391,-10070,4257,16766,20015.63651248693
1735564762964,-246,-67,976,1008.7521995019391,-10020,4257,-15976,19332.74489047016
1735564762994,-296,-72,893,943.5300737125447,-9988,4239,-12730,16726.690198601755
1735564763024,-296,-72,893,943.5300737125447,-9942,4209,-9450,14347.87597520971
1735564763054,-296,-72,893,943.5300737125447,-9934,4170,-6197,12428.840050463277
1735564763084,-296,-72,893,943.5300737125447,-9959,4136,-2970,11185.216895527776
1735564763114,-265,-32,877,916.72133170337,-10034,4101,189,10841.359601083252
1735564763145,-265,-32,877,916.72133170337,-10125,4104,3328,11420.771646434403
1735564763175,-265,-32,877,916.72133170337,-10185,4136,6481,12761.037653733336
1735564763235,-329,-19,948,1003.6463520583334,-10176,4188,9709,14674.978739337239
1735564763235,-329,-19,948,1003.6463520583334,-10099,4227,13032,17020.292418169553
1735564763265,-329,-19,948,1003.6463520583334,-10017,4231,16369,19651.610900890544
1735564763294,-322,-60,1001,1053.225996640797,-9941,4201,-16300,19548.961148869268
1735564763325,-322,-60,1001,1053.225996640797,-9861,4127,-13013,16840.713138106712
1735564763355,-322,-60,1001,1053.225996640797,-9866,4040,-9785,14470.859718758938
1735564763384,-322,-60,1001,1053.225996640797,-9932,3973,-6608,12573.584095237125
1735564763414,-315,-62,986,1036.9498541395335,-10043,3961,-3421,11324.955231699594
1735564763444,-315,-62,986,1036.9498541395335,-10126,3990,-227,10886.115239147526
1735564763474,-315,-62,986,1036.9498541395335,-10160,4043,2995,11337.613240889812
1735564763504,-346,-45,1036,1093.177478728866,-10133,4083,6247,12584.65680898768
1735564763534,-346,-45,1036,1093.177478728866,-10077,4100,9533,14464.923712208094
1735564763564,-346,-45,1036,1093.177478728866,-10027,4094,12821,16783.313320080753
1735564763594,-292,-53,894,941.9708063416828,-10003,4071,16086,19375.046993491396
1735564763624,-292,-53,894,941.9708063416828,-10045,4043,-16753,19947.703702431514
1735564763654,-292,-53,894,941.9708063416828,-10093,4035,-13604,17413.175758603025
1735564763684,-292,-53,894,941.9708063416828,-10132,4045,-10454,15109.783750934359
1735564763714,-279,-64,938,980.7043387280389,-10183,4076,-7303,13177.293880004347
1735564763744,-279,-64,938,980.7043387280389,-10193,4118,-4131,11743.948824820382
1735564763774,-279,-64,938,980.7043387280389,-10169,4156,-931,11024.865441355736
1735564763804,-274,-36,988,1025.9220243273853,-10138,4170,2293,11199.36574096944
1735564763834,-274,-36,988,1025.9220243273853,-10124,4173,5524,12264.741375177871
1735564763865,-274,-36,988,1025.9220243273853,-10112,4171,8754,14010.078550814767
1735564763895,-287,-43,945,988.556017633801,-10116,4163,11972,16217.053030683472
1735564763924,-287,-43,945,988.556017633801,-10130,4153,15179,18715.40408326788
1735564763954,-287,-43,945,988.556017633801,-10146,4151,-17617,20749.23627510179
1735564763984,-287,-43,945,988.556017633801,-10159,4154,-14413,18116.16863467549
1735564764014,-273,-30,835,879.0073947356757,-10180,4163,-11198,15695.801126415943
1735564764044,-273,-30,835,879.0073947356757,-10194,4179,-7979,13603.165734489894
1735564764074,-273,-30,835,879.0073947356757,-10190,4197,-4748,11999.767206075292
1735564764104,-262,-24,930,966.4988360055071,-10167,4208,-1512,11106.813089270927
1735564764135,-262,-24,930,966.4988360055071,-10145,4210,1718,11117.402979113422
1735564764164,-262,-24,930,966.4988360055071,-10129,4203,4946,12030.160680556182
1735564764194,-256,0,914,949.1743780781275,-10123,4189,8167,13664.652904483159
1735564764224,-256,0,914,949.1743780781275,-10153,4172,11370,15803.9834535474
1735564764254,-256,0,914,949.1743780781275,-10186,4169,14568,18258.19763832126
1735564764284,-256,0,914,949.1743780781275,-10210,4178,17768,20914.148512430525
1735564764314,-248,-1,995,1025.441368387291,-10187,4186,-14982,18594.566114862697
1735564764344,-248,-1,995,1025.441368387291,-10167,4185,-11734,16080.07680329917
1735564764374,-248,-1,995,1025.441368387291,-10154,4177,-8489,13878.550572736332
1735564764404,-284,-7,977,1017.4644956950586,-10145,4166,-5249,12158.477783012147
1735564764434,-284,-7,977,1017.4644956950586,-10131,4150,-1997,11128.686804830118
1735564764464,-284,-7,977,1017.4644956950586,-10134,4132,1242,11014.260937530034
1735564764494,-217,0,981,1004.7138896223144,-10154,4116,4454,11827.226555706118
1735564764524,-217,0,981,1004.7138896223144,-10246,4107,7547,13371.805188530081
1735564764554,-217,0,981,1004.7138896223144,-10316,4130,10647,15389.456293189827
1735564764584,-217,0,981,1004.7138896223144,-10346,4172,13770,17721.687278586087
1735564764615,-241,-55,951,982.6021575388485,-10308,4224,16960,20291.34396731769
1735564764645,-241,-55,951,982.6021575388485,-10226,4246,-15814,19304.97832166615
1735564764674,-241,-55,951,982.6021575388485,-10153,4236,-12586,16716.2944757503
1735564764705,-227,-10,978,1004.0483056108407,-10131,4209,-9332,14402.745085573097
1735564764734,-227,-10,978,1004.0483056108407,-10148,4186,-6102,12559.414954527141
1735564764764,-227,-10,978,1004.0483056108407,-10178,4173,-2885,11372.283763607027
1735564764794,-168,3,969,983.4602178024285,-10204,4170,322,11027.882843048343
1735564764824,-168,3,969,983.4602178024285,-10274,4174,3449,11613.481519337773
1735564764854,-168,3,969,983.4602178024285,-10319,4200,6588,12943.087151062531
1735564764884,-200,-15,945,966.0486530190909,-10319,4234,9756,14818.50373688248
1735564764914,-200,-15,945,966.0486530190909,-10240,4248,12990,17077.564346240946
1735564764944,-200,-15,945,966.0486530190909,-10177,4232,16221,19611.27211580116
1735564764974,-200,-15,945,966.0486530190909,-10146,4199,-16566,19874.739570620794
1735564765005,-235,-35,903,933.733902137006,-10124,4147,-13387,17288.862137225806
1735564765034,-235,-35,903,933.733902137006,-10137,4094,-10233,14974.441358528204
1735564765064,-235,-35,903,933.733902137006,-10185,4055,-7109,13065.800052044267
1735564765094,-240,-5,939,969.1986380510448,-10245,4034,-4012,11718.759533329456
1735564765124,-240,-5,939,969.1986380510448,-10319,4040,-919,11119.708719206632
1735564765154,-240,-5,939,969.1986380510448,-10365,4070,2186,11347.98312476715
1735564765184,-247,-85,886,923.7044982027531,-10372,4113,5326,12363.714207308418
1735564765214,-247,-85,886,923.7044982027531,-10272,4140,8519,13972.36361536587
1735564765245,-247,-85,886,923.7044982027531,-10186,4128,11715,16063.505377096246
1735564765274,-247,-85,886,923.7044982027531,-10137,4088,14890,18471.129175012557
1735564765304,-266,-8,967,1002.9501483124673,-10194,4069,-17907,21003.21513483114
1735564765334,-266,-8,967,1002.9501483124673,-10257,4082,-14698,18382.055842587357
1735564765364,-266,-8,967,1002.9501483124673,-10290,4114,-11471,15949.700216618492
1735564765393,-259,-10,1012,1044.6650180799586,-10280,4149,-8237,13810.893164455367
1735564765424,-259,-10,1012,1044.6650180799586,-10246,4172,-4995,12138.209299563096
1735564765454,-259,-10,1012,1044.6650180799586,-10206,4178,-1744,11165.108866464312
1735564765484,-256,-59,1006,1039.736985972895,-10177,4172,1496,11100.222024806531
1735564765515,-256,-59,1006,1039.736985972895,-10132,4155,4710,11920.803202804751
1735564765545,-256,-59,1006,1039.736985972895,-10115,4125,7905,13483.985872137362
1735564765574,-256,-59,1006,1039.736985972895,-10126,4096,11079,15558.191829386858
1735564765604,-206,-59,914,938.7827224656406,-10233,4070,14136,17919.422005187556
1735564765634,-206,-59,914,938.7827224656406,-10335,4086,17173,20455.306157571926
1735564765664,-206,-59,914,938.7827224656406,-10395,4133,-15766,19331.437349560947
1735564765694,-208,3,956,978.3705841857675,-10404,4201,-12639,16900.767379027497
1735564765724,-208,3,956,978.3705841857675,-10378,4273,-9446,14669.29885850036
1735564765754,-208,3,956,978.3705841857675,-10304,4322,-6209,12782.948838198485
1735564765784,-228,-84,956,986.3954582214985,-10222,4340,-2960,11492.888409794989
1735564765814,-228,-84,956,986.3954582214985,-10083,4318,290,10972.516256538425
1735564765844,-228,-84,956,986.3954582214985,-10009,4253,3504,11425.677485383525
1735564765874,-228,-84,956,986.3954582214985,-10010,4176,6664,12729.806440005284
1735564765904,-185,-31,942,960.4946642225557,-10124,4112,9745,14641.343688336805
1735564765935,-185,-31,942,960.4946642225557,-10269,4104,12789,16907.208462664676
1735564765965,-185,-31,942,960.4946642225557,-10374,4144,15847,19388.657018989223
1735564765994,-187,-67,986,1005.8101212455559,-10387,4216,-17044,20400.057867564985
1735564766024,-187,-67,986,1005.8101212455559,-10316,4272,-13884,17816.71395067003
1735564766054,-187,-67,986,1005.8101212455559,-10224,4293,-10697,15407.330528031129
1735564766084,-198,-77,954,977.3684054643878,-10136,4279,-7497,13313.652616768999
1735564766114,-198,-77,954,977.3684054643878,-10058,4228,-4286,11722.164646514739
1735564766144,-198,-77,954,977.3684054643878,-10045,4162,-1120,10930.629853764147
1735564766174,-198,-77,954,977.3684054643878,-10086,4104,2002,11071.50468545265
1735564766204,-223,-54,932,959.8275886845512,-10134,4069,5130,12065.30633676576
1735564766234,-223,-54,932,959.8275886845512,-10191,4059,8254,13728.090835946563
1735564766264,-223,-54,932,959.8275886845512,-10237,4070,11380,15838.733187979396
1735564766294,-190,-26,921,940.7534214660077,-10291,4092,14482,18231.2223671371
1735564766324,-190,-26,921,940.7534214660077,-10346,4136,17571,20805.918701177317
1735564766354,-190,-26,921,940.7534214660077,-10351,4189,-15306,18946.360019803276
1735564766384,-203,11,865,888.5690744112131,-10313,4232,-12150,16489.09618505514
1735564766414,-203,11,865,888.5690744112131,-10273,4257,-8958,14279.437734028606
1735564766444,-203,11,865,888.5690744112131,-10227,4264,-5756,12486.182803403128
1735564766474,-203,11,865,888.5690744112131,-10191,4254,-2556,11335.172385102927
1735564766504,-229,-62,877,908.5229771447721,-10083,4230,698,10956.595867330327
1735564766565,-229,-62,877,908.5229771447721,-10010,4165,3927,11531.203493131148
1735564766565,-229,-62,877,908.5229771447721,-10011,4089,7103,12938.031187162906
1735564766595,-256,-55,1114,1144.3587724136169,-10050,4009,10226,14887.768704544009
1735564766625,-256,-55,1114,1144.3587724136169,-10123,3947,13316,17186.32578534458
1735564766655,-256,-55,1114,1144.3587724136169,-10217,3921,16381,19700.215506435456
1735564766685,-226,-43,915,943.4776096972307,-10337,3950,-16545,19904.599820142077
1735564766714,-226,-43,915,943.4776096972307,-10476,4069,-13437,17517.314463124763
1735564766744,-226,-43,915,943.4776096972307,-10483,4214,-10237,15246.22097439231
1735564766774,-226,-43,915,943.4776096972307,-10373,4333,-6941,13211.793935722733
1735564766804,-282,52,1057,1095.2063732466133,-10183,4391,-3460,11616.62472493624
1735564766834,-282,52,1057,1095.2063732466133,-10016,4378,56,10931.160780081866
1735564766864,-282,52,1057,1095.2063732466133,-9921,4310,3534,11379.433070236848
1735564766894,-249,-41,907,941.4515388483892,-9948,4220,6829,12783.049127653387
1735564766924,-249,-41,907,941.4515388483892,-10032,4144,9988,14750.386571205516
1735564766954,-249,-41,907,941.4515388483892,-10145,4111,13113,17081.33820870016
1735564766984,-251,-30,925,958.9191832474727,-10250,4120,16216,19621.303626415855
1735564767014,-251,-30,925,958.9191832474727,-10333,4161,-16694,20069.241291090206
1735564767044,-251,-30,925,958.9191832474727,-10358,4222,-13569,17584.971111719235
1735564767074,-251,-30,925,958.9191832474727,-10329,4280,-10400,15269.795054289367
1735564767104,-224,-33,932,959.1084401672211,-10229,4309,-7185,13222.108266082229
1735564767134,-224,-33,932,959.1084401672211,-10147,4299,-3977,11715.781621385746
1735564767164,-224,-33,932,959.1084401672211,-10099,4264,-788,10990.561450626625
1735564767194,-248,-15,893,926.9185508986213,-10098,4218,2384,11200.204640987593
1735564767224,-248,-15,893,926.9185508986213,-10130,4182,5548,12283.579608566877
1735564767254,-248,-15,893,926.9185508986213,-10179,4164,8695,14019.770397549311
1735564767284,-250,-25,938,971.0659091946334,-10212,4168,11859,16195.463840223903
1735564767314,-250,-25,938,971.0659091946334,-10196,4181,15075,18673.371468484205
1735564767345,-250,-25,938,971.0659091946334,-10176,4186,-17701,20842.240114728553
1735564767375,-250,-25,938,971.0659091946334,-10159,4183,-14478,18174.57713400782
1735564767404,-208,-77,960,985.288282686849,-10149,4159,-11342,15777.846684513068
1735564767435,-208,-77,960,985.288282686849,-10160,4131,-8241,13718.776986306031
1735564767464,-208,-77,960,985.288282686849,-10187,4113,-5155,12135.310585230194
1735564767494,-237,-103,1026,1058.0425322263752,-10176,4109,-2021,11158.821532760527
1735564767524,-237,-103,1026,1058.0425322263752,-10133,4096,1150,10989.877387851058
1735564767554,-237,-103,1026,1058.0425322263752,-10114,4071,4309,11723.204254810202
1735564767584,-236,-30,1003,1030.827337627403,-10119,4036,7445,13195.130995939373
1735564767615,-236,-30,1003,1030.827337627403,-10206,4011,10551,15217.560842658064
1735564767674,-236,-30,1003,1030.827337627403,-10283,4019,13655,17559.93949306204
1735564767677,-236,-30,1003,1030.827337627403,-10330,4052,16774,20112.053102555194
1735564767705,-224,-86,871,903.4450730398611,-10331,4120,-16084,19555.025364340494
1735564767734,-224,-86,871,903.4450730398611,-10272,4170,-12906,17013.750909191072
1735564767764,-224,-86,871,903.4450730398611,-10195,4190,-9704,14685.426142948661
1735564767794,-246,-58,1018,1048.9060968456613,-10123,4179,-6482,12726.173580460074
1735564767824,-246,-58,1018,1048.9060968456613,-10084,4147,-3255,11378.91427158145
1735564767854,-246,-58,1018,1048.9060968456613,-10082,4109,-54,10887.310090192159
1735564767884,-276,-51,969,1008.8300154138952,-10111,4074,3120,11338.615303466293
1735564767914,-276,-51,969,1008.8300154138952,-10148,4050,6307,12615.96817529277
1735564767944,-276,-51,969,1008.8300154138952,-10189,4043,9484,14495.096619201957
1735564767974,-276,-51,969,1008.8300154138952,-10222,4052,12663,16770.794763516726
1735564768004,-225,-86,887,919.1245835032377,-10270,4078,15767,19253.604156105423
1735564768034,-225,-86,887,919.1245835032377,-10287,4113,-17127,20397.874080403577
1735564768064,-225,-86,887,919.1245835032377,-10273,4147,-13998,17851.50251379418
1735564768094,-222,-58,926,954.0041928629036,-10238,4164,-10832,15475.392208276984
1735564768124,-222,-58,926,954.0041928629036,-10214,4168,-7651,13425.193518158314
1735564768154,-222,-58,926,954.0041928629036,-10195,4163,-4472,11885.595399474105
1735564768184,-208,-69,886,912.6998411306972,-10191,4151,-1311,11081.786994884895
1735564768214,-208,-69,886,912.6998411306972,-10210,4137,1801,11162.547648274563
1735564768244,-208,-69,886,912.6998411306972,-10233,4131,4909,12077.98538664458
1735564768274,-208,-69,886,912.6998411306972,-10253,4135,8016,13655.712723984787
1735564768304,-245,-17,932,963.8142974660627,-10250,4136,11173,15716.390329843554
1735564768334,-245,-17,932,963.8142974660627,-10248,4141,14346,18110.13807236157
1735564768364,-245,-17,932,963.8142974660627,-10244,4145,17522,20715.719755779668
1735564768394,-231,-87,940,971.8693327809043,-10208,4142,-15301,18854.17802504262
1735564768424,-231,-87,940,971.8693327809043,-10156,4114,-12143,16356.093084841503
1735564768454,-231,-87,940,971.8693327809043,-10142,4073,-9011,14165.013731020525
1735564768484,-220,-50,912,939.4913517430589,-10158,4033,-5894,12417.297975002451
1735564768514,-220,-50,912,939.4913517430589,-10227,4011,-2790,11334.185017018206
1735564768544,-220,-50,912,939.4913517430589,-10290,4016,309,11050.24149057386
1735564768574,-223,-65,1018,1044.1637802567182,-10320,4044,3435,11604.118277577147
1735564768604,-223,-65,1018,1044.1637802567182,-10286,4076,6616,12891.354777524355
1735564768634,-223,-65,1018,1044.1637802567182,-10239,4090,9813,14760.087736866608
1735564768664,-223,-65,1018,1044.1637802567182,-10197,4086,13012,17028.98555404872
1735564768694,-268,-126,1050,1090.9628774619237,-10137,4083,16233,19568.85144815607
1735564768725,-268,-126,1050,1090.9628774619237,-10077,4051,-16543,19789.577534651922
1735564768755,-268,-126,1050,1090.9628774619237,-10061,4005,-13347,17187.383599605844
1735564768784,-270,-37,948,986.3939375320592,-10141,3958,-10200,14917.963835590968
1735564768814,-270,-37,948,986.3939375320592,-10283,3962,-7073,13094.459209910121
1735564768844,-270,-37,948,986.3939375320592,-10376,4015,-3925,11797.763601632303
1735564768874,-222,-125,922,956.5526645198371,-10407,4095,-750,11208.798954392929
1735564768904,-222,-125,922,956.5526645198371,-10347,4164,2390,11406.638637214734
1735564768934,-222,-125,922,956.5526645198371,-10254,4199,5565,12399.408937526014
1735564768964,-222,-125,922,956.5526645198371,-10164,4196,8751,14053.231407758147
1735564768994,-230,-72,954,983.9715443040006,-10167,4142,11889,16182.4711957105
1735564769025,-230,-72,954,983.9715443040006,-10218,4104,14999,18606.99709786617
1735564769055,-230,-72,954,983.9715443040006,-10280,4090,-17906,21048.30957583055
1735564769084,-236,-56,966,995.9859436759135,-10325,4103,-14767,18479.84098957564
1735564769114,-236,-56,966,995.9859436759135,-10344,4133,-11587,16072.914919204917
1735564769145,-236,-56,966,995.9859436759135,-10334,4164,-8385,13944.12697159632
1735564769175,-207,-41,950,973.1546639666277,-10304,4180,-5161,12258.90439639693
1735564769204,-207,-41,950,973.1546639666277,-10307,4179,-1960,11293.35601139006
1735564769234,-207,-41,950,973.1546639666277,-10310,4179,1240,11193.647350171435
1735564769264,-207,-41,950,973.1546639666277,-10312,4180,4442,11980.864242616222
1735564769295,-246,-56,956,988.7304991755842,-10278,4168,7663,13480.766929221794
1735564769325,-246,-56,956,988.7304991755842,-10253,4143,10885,15516.819358360784
1735564769354,-246,-56,956,988.7304991755842,-10255,4115,14088,17904.468548381992
1735564769384,-203,49,931,954.1336384385576,-10329,4095,17276,20540.629055605867
1735564769414,-203,49,931,954.1336384385576,-10466,4126,-15555,19196.85018434014
1735564769444,-203,49,931,954.1336384385576,-10534,4198,-12348,16764.887831417185
1735564769474,-253,-26,974,1006.6583332988408,-10528,4277,-9102,14559.461425478623
1735564769504,-253,-26,974,1006.6583332988408,-10375,4322,-5783,12639.75466534062
1735564769534,-253,-26,974,1006.6583332988408,-10239,4304,-2459,11375.773292396434
1735564769564,-253,-26,974,1006.6583332988408,-10163,4244,831,11044.847939197714
1735564769594,-279,-8,900,942.2871112352116,-10180,4166,4090,11735.248442193288
1735564769624,-279,-8,900,942.2871112352116,-10247,4111,7313,13243.160461158808
1735564769654,-279,-8,900,942.2871112352116,-10333,4089,10512,15296.828233329941
1735564769684,-232,35,942,970.7795836336898,-10431,4090,13685,17686.522722118105
1735564769714,-232,35,942,970.7795836336898,-10540,4127,16833,20284.812496052313
1735564769744,-232,35,942,970.7795836336898,-10586,4193,-15979,19620.731026136615
1735564769775,-293,23,1002,1044.2135796856887,-10552,4266,-12732,17077.683800796876
1735564769805,-293,23,1002,1044.2135796856887,-10390,4310,-9348,14625.775329875678
1735564769835,-293,23,1002,1044.2135796856887,-10248,4289,-5960,12607.086300965819
1735564769865,-293,23,1002,1044.2135796856887,-10173,4223,-2609,11319.47609211663
1735564769894,-271,25,975,1012.2702208402656,-10196,4154,694,11031.580485134486
1735564769924,-271,25,975,1012.2702208402656,-10269,4109,3949,11744.396238206544
1735564769954,-271,25,975,1012.2702208402656,-10352,4097,7188,13252.043502796088
1735564769983,-201,20,1032,1051.5821413470276,-10438,4118,10411,15306.818382668554
1735564770015,-201,20,1032,1051.5821413470276,-10513,4167,13610,17695.173296693083
1735564770045,-201,20,1032,1051.5821413470276,-10525,4233,16852,20314.620793901126
1735564770074,-212,19,962,985.265953943401,-10491,4286,-15869,19500.154819898227
1735564770104,-212,19,962,985.265953943401,-10436,4313,-12566,16894.271839887035
1735564770134,-212,19,962,985.265953943401,-10378,4316,-9253,14558.459705614465
1735564770164,-212,19,962,985.265953943401,-10338,4299,-5947,12677.635978367576
1735564770194,-206,76,916,941.9490432077523,-10395,4257,-2731,11560.12262045693
1735564770224,-206,76,916,941.9490432077523,-10479,4247,464,11316.43698343255
1735564770254,-206,76,916,941.9490432077523,-10542,4267,3666,11949.08402347226
1735564770284,-211,45,915,940.0909530465656,-10529,4303,6911,13309.3039262014
1735564770314,-211,45,915,940.0909530465656,-10463,4317,10189,15229.135858609969
1735564770344,-211,45,915,940.0909530465656,-10408,4306,13465,17554.894616601945
1735564770373,-228,31,930,958.0422746413647,-10374,4277,16729,20143.78430186344
1735564770404,-228,31,930,958.0422746413647,-10343,4233,-16008,19523.11455685286
1735564770434,-228,31,930,958.0422746413647,-10357,4188,-12780,16974.545443103918
1735564770464,-228,31,930,958.0422746413647,-10401,4155,-9580,14738.426849565729
1735564770494,-263,83,952,991.1417658438171,-10448,4152,-6325,12899.822983281592
1735564770524,-263,83,952,991.1417658438171,-10484,4169,-3050,11687.485486622005
1735564770554,-263,83,952,991.1417658438171,-10493,4196,241,11303.430718149248
1735564770584,-205,22,967,988.7355561524022,-10488,4218,3516,11838.577786203881
1735564770614,-205,22,967,988.7355561524022,-10474,4226,6749,13157.231965728963
1735564770644,-205,22,967,988.7355561524022,-10459,4228,9986,15066.083133980112
1735564770674,-232,61,959,988.5474191964693,-10451,4224,13229,17380.219158572196
1735564770704,-232,61,959,988.5474191964693,-10462,4229,16518,20004.55470636625
1735564770734,-232,61,959,988.5474191964693,-10465,4237,-16186,19734.61400686621
1735564770764,-232,61,959,988.5474191964693,-10461,4244,-12886,17131.638946697425
1735564770794,-193,5,1026,1044.006704959312,-10452,4240,-9643,14839.452584243127
1735564770824,-193,5,1026,1044.006704959312,-10449,4228,-6422,12973.036229040601
1735564770854,-193,5,1026,1044.006704959312,-10455,4217,-3209,11721.253985815682
1735564770884,-249,103,931,969.2115352181896,-10471,4209,30,11285.318870107305
1735564770914,-249,103,931,969.2115352181896,-10502,4220,3320,11795.033022420921
1735564770944,-249,103,931,969.2115352181896,-10513,4240,6622,13128.276848086347
1735564770975,-283,106,1003,1047.5371115144321,-10503,4259,9939,15074.342804911928
1735564771005,-283,106,1003,1047.5371115144321,-10454,4271,13309,17454.42746124891
1735564771034,-283,106,1003,1047.5371115144321,-10412,4264,16681,20120.81511768348
1735564771064,-283,106,1003,1047.5371115144321,-10390,4244,-15958,19509.52075269918
1735564771095,-219,90,924,953.8537623766025,-10438,4226,-12670,16951.100849207403
1735564771124,-219,90,924,953.8537623766025,-10495,4228,-9413,14718.205665093827
1735564771154,-219,90,924,953.8537623766025,-10532,4249,-6145,12912.708856006937
1735564771184,-250,41,930,963.8884790264899,-10508,4274,-2859,11698.676036201703
1735564771214,-250,41,930,963.8884790264899,-10432,4273,453,11282.303045034732
1735564771244,-250,41,930,963.8884790264899,-10383,4246,3754,11829.104826655312
1735564771274,-215,87,963,990.5367231960661,-10380,4206,7028,13222.23959849465
1735564771305,-215,87,963,990.5367231960661,-10486,4182,10235,15238.128001824896
1735564771335,-215,87,963,990.5367231960661,-10575,4198,13442,17610.826016970357
1735564771365,-215,87,963,990.5367231960661,-10622,4241,16672,20218.025348683288
1735564771395,-239,85,988,1020.0441166929987,-10596,4290,-16043,19699.166606737454
1735564771424,-239,85,988,1020.0441166929987,-10532,4319,-12721,17070.460626474025
1735564771454,-239,85,988,1020.0441166929987,-10467,4321,-9388,14709.30569401561
1735564771484,-208,50,963,986.475037697356,-10434,4301,-6075,12816.886595425583
1735564771514,-208,50,963,986.475037697356,-10434,4271,-2804,11617.754214993533
1735564771544,-208,50,963,986.475037697356,-10457,4247,446,11295.343022679745
1735564771574,-233,81,1000,1029.9757278693512,-10483,4236,3700,11896.511463450115
1735564771604,-233,81,1000,1029.9757278693512,-10494,4244,7014,13316.59746331622
1735564771635,-233,81,1000,1029.9757278693512,-10495,4255,10335,15331.740768745081
1735564771664,-233,81,1000,1029.9757278693512,-10487,4264,13663,17743.63080093812
1735564771694,-272,118,1006,1048.7821508778645,-10482,4255,16982,20405.040382219293
1735564771724,-272,118,1006,1048.7821508778645,-10483,4250,-15687,19340.055791026043
1735564771754,-272,118,1006,1048.7821508778645,-10488,4245,-12361,16757.460726494333
1735564771784,-279,62,997,1037.1566901871674,-10476,4245,-9031,14468.087710544196
1735564771814,-279,62,997,1037.1566901871674,-10439,4232,-5700,12624.283940089434
1735564771844,-279,62,997,1037.1566901871674,-10426,4209,-2383,11493.295697927553
1735564771874,-256,46,909,945.4803012226114,-10433,4185,917,11278.413141927369
1735564771904,-256,46,909,945.4803012226114,-10459,4164,4179,12008.064706687752
1735564771934,-256,46,909,945.4803012226114,-10492,4156,7432,13512.550610451011
1735564771964,-256,46,909,945.4803012226114,-10520,4161,10684,15560.5969358505
1735564771994,-251,97,985,1021.0950004774287,-10565,4182,13965,18003.598917994146
1735564772024,-251,97,985,1021.0950004774287,-10589,4221,17267,20690.40963828411
1735564772055,-251,97,985,1021.0950004774287,-10574,4260,-15400,19160.29947573889
1735564772084,-282,49,981,1021.9031265242318,-10543,4282,-12098,16608.792159576205
1735564772115,-282,49,981,1021.9031265242318,-10483,4280,-8797,14338.720235781155
1735564772144,-282,49,981,1021.9031265242318,-10446,4258,-5508,12553.387749926313
1735564772174,-249,93,936,973.0087358292319,-10441,4227,-2232,11483.197899540006
1735564772204,-249,93,936,973.0087358292319,-10521,4212,1002,11377.011426556624
1735564772234,-249,93,936,973.0087358292319,-10586,4227,4239,12161.416282653925
1735564772264,-258,63,1114,1145.220066188154,-10593,4266,7511,13668.41344121548
1735564772294,-258,63,1114,1145.220066188154,-10492,4293,10852,15693.241124764509
1735564772324,-258,63,1114,1145.220066188154,-10404,4280,14196,18113.200490250198
1735564772354,-258,63,1114,1145.220066188154,-10358,4240,17516,20786.438367358656
1735564772384,-220,12,961,985.9335677417622,-10392,4141,-15275,18933.22925440877
1735564772414,-220,12,961,985.9335677417622,-10489,4067,-12140,16551.109026285823
1735564772444,-220,12,961,985.9335677417622,-10607,4039,-9035,14507.005032052619
1735564772505,-255,87,1039,1073.3662003249403,-10676,4060,-5900,12855.760420916376
1735564772505,-255,87,1039,1073.3662003249403,-10675,4113,-2639,11740.388196307651
1735564772535,-255,87,1039,1073.3662003249403,-10633,4156,656,11435.180846842783
1735564772565,-312,12,1045,1090.647972537427,-10559,4181,3977,12032.862128354998
1735564772594,-312,12,1045,1090.647972537427,-10367,4163,7375,13386.406650031216
1735564772624,-312,12,1045,1090.647972537427,-10258,4081,10729,15394.56287135169
1735564772654,-312,12,1045,1090.647972537427,-10249,3977,14014,17811.533510621706
1735564772684,-329,46,1039,1090.8152914219713,-10426,3920,17209,20499.208692044675
1735564772714,-329,46,1039,1090.8152914219713,-10588,3939,-15593,19255.21004819215
1735564772744,-329,46,1039,1090.8152914219713,-10682,4012,-12364,16824.67723315963
1735564772774,-312,-56,966,1016.67890703014,-10662,4131,-9043,14578.040128906217
1735564772804,-312,-56,966,1016.67890703014,-10508,4215,-5639,12648.423221888173
1735564772834,-312,-56,966,1016.67890703014,-10340,4226,-2202,11385.230783782998
1735564772864,-308,55,891,944.3357453787291,-10262,4170,1182,11139.77863334815
1735564772894,-308,55,891,944.3357453787291,-10409,4126,4458,12051.76007892623
1735564772924,-308,55,891,944.3357453787291,-10538,4142,7730,13709.79605975231
1735564772953,-308,55,891,944.3357453787291,-10612,4200,11032,15873.23432700469
1735564772984,-246,76,871,908.2582231942632,-10640,4263,14301,18327.612228547394
1735564773015,-246,76,871,908.2582231942632,-10628,4327,17593,21004.546222187233
1735564773044,-246,76,871,908.2582231942632,-10569,4374,-15073,18921.70621270714
1735564773074,-263,62,888,928.2009480710522,-10435,4384,-11691,16272.312742815631
1735564773104,-263,62,888,928.2009480710522,-10308,4334,-8306,13929.395392478455
1735564773134,-263,62,888,928.2009480710522,-10267,4251,-4977,12175.911423790829
1735564773164,-271,64,948,988.0490878493841,-10287,4170,-1701,11229.633564814125
1735564773194,-271,64,948,988.0490878493841,-10330,4102,1551,11222.33955109183
1735564773224,-271,64,948,988.0490878493841,-10409,4062,4768,12148.28996196584
1735564773254,-271,64,948,988.0490878493841,-10492,4057,7972,13787.461586528538
1735564773284,-265,33,1028,1062.1195789552135,-10541,4100,11198,15915.96321307636
1735564773314,-265,33,1028,1062.1195789552135,-10535,4149,14454,18360.788163910613
1735564773344,-265,33,1028,1062.1195789552135,-10494,4186,17741,21033.062378075145
1735564773375,-296,112,958,1008.9221971985748,-10477,4221,-14938,18727.73915879864
1735564773404,-296,112,958,1008.9221971985748,-10463,4267,-11562,16166.678756009225
1735564773434,-296,112,958,1008.9221971985748,-10417,4298,-8158,13911.85311164548
1735564773464,-318,58,1046,1094.8077456795781,-10359,4308,-4738,12178.521626207345
1735564773494,-318,58,1046,1094.8077456795781,-10252,4285,-1298,11187.025207802117
1735564773524,-318,58,1046,1094.8077456795781,-10203,4230,2108,11244.455211347502
1735564773554,-318,58,1046,1094.8077456795781,-10216,4170,5470,12315.69957412083
1735564773584,-319,-2,936,988.8685453587852,-10263,4118,8748,14100.163013242081
1735564773614,-319,-2,936,988.8685453587852,-10321,4086,11999,16346.083261748057
1735564773644,-319,-2,936,988.8685453587852,-10384,4080,15238,18885.722120162627
1735564773674,-313,35,873,928.0748892196146,-10444,4094,-17529,20811.146364388485
1735564773705,-313,35,873,928.0748892196146,-10494,4132,-14290,18204.437920463242
1735564773734,-313,35,873,928.0748892196146,-10499,4179,-11019,15783.263382456747
1735564773765,-324,65,958,1013.392816236626,-10454,4218,-7703,13653.345707188404
1735564773795,-324,65,958,1013.392816236626,-10388,4236,-4328,12024.384558055352
1735564773824,-324,65,958,1013.392816236626,-10331,4227,-950,11202.659951993544
1735564773854,-324,65,958,1013.392816236626,-10301,4201,2411,11382.966353284191
1735564773884,-326,79,1014,1068.0416658539123,-10292,4163,5752,12503.65294623935
1735564773914,-326,79,1014,1068.0416658539123,-10319,4131,9068,14344.878737723788
1735564773944,-326,79,1014,1068.0416658539123,-10360,4115,12368,16650.232701076584
1735564773975,-304,60,948,997.3565059696558,-10413,4116,15637,19232.467184425404
1735564774004,-304,60,948,997.3565059696558,-10455,4134,-17111,20473.966445220136
1735564774034,-304,60,948,997.3565059696558,-10470,4162,-13843,17848.57957933908
1735564774064,-306,-20,988,1034.4950459040392,-10452,4195,-10536,15422.374168719938
1735564774094,-306,-20,988,1034.4950459040392,-10341,4204,-7175,13269.910399094637
1735564774124,-306,-20,988,1034.4950459040392,-10261,4173,-3826,11719.228899547956
1735564774154,-306,-20,988,1034.4950459040392,-10234,4120,-510,11043.96921400997
1735564774184,-339,19,969,1026.7633612473714,-10292,4060,2757,11402.188956511814
1735564774214,-339,19,969,1026.7633612473714,-10376,4035,6012,12652.539073245338
1735564774244,-339,19,969,1026.7633612473714,-10450,4044,9264,14538.849060362378
1735564774305,-295,62,1020,1063.6113011810282,-10528,4072,12505,16846.21598460616
1735564774305,-295,62,1020,1063.6113011810282,-10607,4128,15738,19422.499247007323
1735564774335,-295,62,1020,1063.6113011810282,-10616,4201,-16982,20463.044274985088
1735564774365,-308,34,971,1019.2453090399779,-10558,4266,-13643,17770.80665023397
1735564774394,-308,34,971,1019.2453090399779,-10423,4298,-10234,15226.506132399514
1735564774424,-308,34,971,1019.2453090399779,-10310,4276,-6825,13082.847587585817
1735564774454,-308,34,971,1019.2453090399779,-10255,4219,-3450,11613.246143951312
1735564774484,-254,69,893,930.9812028177583,-10322,4160,-149,11129.756735886009
1735564774515,-254,69,893,930.9812028177583,-10431,4142,3105,11644.867968336954
1735564774544,-254,69,893,930.9812028177583,-10517,4165,6366,12980.002696455806
1735564774574,-241,108,946,982.1715736061597,-10557,4207,9653,14910.71785662917
1735564774604,-241,108,946,982.1715736061597,-10570,4258,12968,17263.385762937698
1735564774634,-241,108,946,982.1715736061597,-10537,4304,16318,19895.47458594542
1735564774664,-293,84,1000,1045.4209678402285,-10493,4325,-16331,19887.439126242472
1735564774694,-293,84,1000,1045.4209678402285,-10416,4317,-12970,17185.76285766797
1735564774724,-293,84,1000,1045.4209678402285,-10373,4284,-9626,14785.522006341203
1735564774754,-293,84,1000,1045.4209678402285,-10370,4244,-6312,12860.395794842396
1735564774785,-269,81,933,974.3772370083365,-10377,4206,-3001,11592.176931016884
1735564774814,-269,81,933,974.3772370083365,-10417,4180,276,11227.75422780531
1735564774844,-269,81,933,974.3772370083365,-10464,4172,3544,11809.35290352524
1735564774875,-329,88,985,1042.2139895434143,-10500,4199,6863,13228.090187173657
1735564774905,-329,88,985,1042.2139895434143,-10476,4242,10270,15271.347026375899
1735564774934,-329,88,985,1042.2139895434143,-10426,4267,13703,17739.249533167967
1735564774964,-295,141,997,1049.2449666307673,-10388,4272,17143,20494.95003653339
1735564774994,-295,141,997,1049.2449666307673,-10443,4287,-15452,19136.32467324904
1735564775025,-295,141,997,1049.2449666307673,-10467,4318,-12028,16518.958714156288
1735564775054,-295,141,997,1049.2449666307673,-10456,4351,-8579,14207.687285409966
1735564775084,-269,86,917,959.5029963475882,-10393,4356,-5178,12401.647834058182
1735564775114,-269,86,917,959.5029963475882,-10344,4332,-1797,11357.542383808215
1735564775144,-269,86,917,959.5029963475882,-10332,4297,1557,11297.729063842875
1735564775174,-271,115,897,944.073620010643,-10356,4254,4877,12211.813174135936
1735564775205,-271,115,897,944.073620010643,-10417,4228,8168,13896.261979395755
1735564775235,-271,115,897,944.073620010643,-10478,4228,11452,16087.658996883294
1735564775264,-243,106,868,907.5841558775693,-10490,4245,14744,18586.16854007302
1735564775294,-243,106,868,907.5841558775693,-10454,4244,-17987,21232.75349548428
1735564775337,-243,106,868,907.5841558775693,-10432,4230,-14726,18535.765427950366
1735564775354,-243,106,868,907.5841558775693,-10428,4211,-11478,16069.23112659719
1735564775384,-239,3,992,1020.3891414553567,-10374,4200,-8245,13901.07553392902
1735564775415,-239,3,992,1020.3891414553567,-10328,4162,-5034,12220.105727856859
1735564775445,-239,3,992,1020.3891414553567,-10326,4115,-1854,11269.286445911293
1735564775475,-149,-11,894,906.3983671653431,-10424,4088,1240,11265.3948000059
1735564775504,-149,-11,894,906.3983671653431,-10565,4107,4256,12107.85736618994
1735564775534,-149,-11,894,906.3983671653431,-10648,4170,7301,13567.365440644695
1735564775564,-216,-79,1166,1188.466659187375,-10645,4258,10429,15498.729947966704
1735564775594,-216,-79,1166,1188.466659187375,-10441,4330,13760,17807.329417967198
1735564775624,-216,-79,1166,1188.466659187375,-10248,4317,17109,20405.2903434379
1735564775654,-216,-79,1166,1188.466659187375,-10133,4241,-15581,19063.87502581781
1735564775684,-227,29,956,983.0086469609512,-10206,4136,-12394,16579.510487345517
1735564775714,-227,29,956,983.0086469609512,-10351,4087,-9252,14472.258773253054
1735564775744,-227,29,956,983.0086469609512,-10486,4096,-6119,12813.101615143774
1735564775774,-230,7,1017,1042.7070537787686,-10516,4159,-2919,11679.216497693671
1735564775804,-230,7,1017,1042.7070537787686,-10453,4216,348,11276.567252493109
1735564775834,-230,7,1017,1042.7070537787686,-10366,4241,3646,11778.512342397065
1735564775864,-215,22,919,944.0709719083624,-10300,4232,6940,13121.106050939456
1735564775894,-215,22,919,944.0709719083624,-10304,4215,10192,15093.558394228976
1735564775925,-215,22,919,944.0709719083624,-10320,4203,13434,17453.938380778134
1735564775954,-215,22,919,944.0709719083624,-10340,4198,16670,20060.600788610496
1735564775984,-199,-9,937,957.9410211490058,-10337,4199,-16122,19606.224878849065
1735564776015,-199,-9,937,957.9410211490058,-10332,4196,-12922,17068.530223777325
1735564776044,-199,-9,937,957.9410211490058,-10330,4192,-9725,14793.82942310746
1735564776074,-201,-32,896,918.8258812201581,-10344,4189,-6551,12940.697740075688
1735564776104,-201,-32,896,918.8258812201581,-10353,4190,-3386,11670.719986359025
1735564776134,-201,-32,896,918.8258812201581,-10358,4193,-219,11176.64412961243
1735564776164,-242,-8,998,1026.9527739871976,-10357,4195,2946,11556.140791804157
1735564776194,-242,-8,998,1026.9527739871976,-10340,4194,6152,12741.75576598453
1735564776224,-242,-8,998,1026.9527739871976,-10330,4188,9356,14552.765372945445
1735564776254,-124,-32,791,801.2995694495287,-10321,4186,12568,16792.863394906777
1735564776284,-124,-32,791,801.2995694495287,-10370,4192,15675,19256.567425166926
1735564776314,-124,-32,791,801.2995694495287,-10400,4212,-17208,20543.033076933894
1735564776345,-124,-32,791,801.2995694495287,-10405,4238,-14074,18008.39096088265
1735564776375,-270,-3,1027,1061.9030087536244,-10307,4266,-10776,15509.841424076521
1735564776405,-270,-3,1027,1061.9030087536244,-10191,4252,-7418,13302.733140223478
1735564776465,-270,-3,1027,1061.9030087536244,-10126,4201,-4088,11700.257304863
1735564776465,-266,-12,958,994.3158451920597,-10133,4137,-831,10976.475709443355
1735564776495,-266,-12,958,994.3158451920597,-10202,4084,2319,11231.100613920258
1735564776525,-266,-12,958,994.3158451920597,-10288,4063,5447,12329.668365369767
1735564776554,-217,-45,940,965.7711944347895,-10359,4082,8581,14057.210462961704
1735564776585,-217,-45,940,965.7711944347895,-10398,4127,11693,16182.607391888367
1735564776615,-217,-45,940,965.7711944347895,-10391,4177,14837,18589.157565634865
1735564776645,-217,-45,940,965.7711944347895,-10348,4214,-17987,21174.774355350284
1735564776675,-224,-63,933,961.5789099184736,-10277,4261,-14711,18444.14191552429
1735564776705,-224,-63,933,961.5789099184736,-10186,4273,-11411,15881.563084281093
1735564776734,-224,-63,933,961.5789099184736,-10117,4251,-8119,13650.745437520985
1735564776764,-244,-52,963,994.7909328095025,-10134,4220,-4866,12007.677210851398
1735564776794,-244,-52,963,994.7909328095025,-10181,4212,-1622,11136.632749624097
1735564776824,-244,-52,963,994.7909328095025,-10219,4221,1622,11174.779013474943
1735564776854,-253,54,929,964.3474477593644,-10235,4240,4871,12102.043876965576
1735564776884,-253,54,929,964.3474477593644,-10300,4277,8132,13802.613991559714
1735564776915,-253,54,929,964.3474477593644,-10313,4330,11428,15990.81151786863
1735564776944,-253,54,929,964.3474477593644,-10278,4375,14763,18512.808484938207
1735564776974,-288,-74,871,920.3591690204428,-10126,4394,-17897,21027.26137660347
1735564777004,-288,-74,871,920.3591690204428,-9978,4341,-14562,18178.465529301422
1735564777034,-288,-74,871,920.3591690204428,-9924,4249,-11288,15619.177987333393
1735564777064,-266,-96,1025,1063.2953493738228,-9929,4138,-8082,13454.620358820981
1735564777094,-266,-96,1025,1063.2953493738228,-10006,4035,-4961,11874.880294133494
1735564777124,-266,-96,1025,1063.2953493738228,-10133,3977,-1890,11048.362684126549
1735564777154,-304,-64,977,1025.2029067457818,-10261,3977,1169,11066.671179717956
1735564777214,-304,-64,977,1025.2029067457818,-10344,4035,4300,11906.702356236172
1735564777215,-304,-64,977,1025.2029067457818,-10356,4111,7479,13419.48203173282
1735564777245,-304,-64,977,1025.2029067457818,-10307,4177,10707,15437.662614528146
1735564777275,-340,-52,966,1025.4072361749745,-10206,4216,14023,17848.85489324175
1735564777304,-340,-52,966,1025.4072361749745,-10102,4211,17364,20525.384795418573
1735564777334,-340,-52,966,1025.4072361749745,-10038,4172,-15314,18779.92609144136
1735564777364,-288,-118,966,1014.9009803916833,-10022,4118,-12076,16224.308429020943
1735564777394,-288,-118,966,1014.9009803916833,-10046,4060,-8930,14041.033295309857
1735564777424,-288,-118,966,1014.9009803916833,-10105,4021,-5816,12333.098637406578
1735564777454,-265,-41,861,901.7909957412527,-10180,4001,-2725,11272.356718982948
1735564777484,-265,-41,861,901.7909957412527,-10338,4012,318,11093.760047882774
1735564777515,-265,-41,861,901.7909957412527,-10439,4074,3388,11706.781837892086
1735564777544,-265,-41,861,901.7909957412527,-10462,4159,6510,13005.030757364628
1735564777575,-282,-70,984,1026.001949315887,-10322,4244,9782,14840.577616791066
1735564777605,-282,-70,984,1026.001949315887,-10151,4259,13098,17109.631381184106
1735564777634,-282,-70,984,1026.001949315887,-10026,4213,16397,19675.661462832704
1735564777665,-236,0,951,979.8453959681599,-10018,4134,-16366,19628.964211083578
1735564777695,-236,0,951,979.8453959681599,-10128,4083,-13210,17139.17655548247
1735564777725,-236,0,951,979.8453959681599,-10239,4078,-10068,14927.5526795252
1735564777754,-356,-71,1101,1159.3006512548848,-10305,4119,-6905,13070.509209667387
1735564777784,-356,-71,1101,1159.3006512548848,-10152,4163,-3548,11531.781172047968
1735564777814,-356,-71,1101,1159.3006512548848,-10017,4144,-186,10841.938064755766
1735564777844,-356,-71,1101,1159.3006512548848,-9943,4081,3141,11197.485923188295
1735564777875,-211,-100,946,974.3905787721883,-10071,4041,6299,12547.19582217477
1735564777905,-211,-100,946,974.3905787721883,-10212,4054,9395,14456.344109075433
1735564777935,-211,-100,946,974.3905787721883,-10298,4113,12518,16723.21431423995
1735564777964,-278,-4,926,966.8381457100253,-10319,4168,15713,19254.93064126693
1735564777994,-278,-4,926,966.8381457100253,-10303,4223,-17000,20322.045615537823
1735564778025,-278,-4,926,966.8381457100253,-10250,4261,-13681,17617.842716973042
1735564778055,-248,13,860,895.1385367640028,-10189,4270,-10378,15157.556036511955
1735564778084,-248,13,860,895.1385367640028,-10191,4256,-7181,13173.33587213201
1735564778114,-248,13,860,895.1385367640028,-10203,4245,-3994,11750.458288934948
1735564778145,-248,13,860,895.1385367640028,-10219,4240,-812,11093.46226387416
1735564778174,-291,-140,986,1037.5340958252891,-10053,4239,2464,11184.955341886707
1735564778204,-291,-140,986,1037.5340958252891,-9904,4163,5725,12173.553712864621
1735564778234,-291,-140,986,1037.5340958252891,-9863,4053,8913,13897.738916816648
1735564778264,-253,-135,972,1013.4189656800389,-9959,3932,11998,16080.867793747948
1735564778294,-253,-135,972,1013.4189656800389,-10143,3863,14989,18506.035204764958
1735564778324,-253,-135,972,1013.4189656800389,-10317,3866,17966,21075.189228094725
1735564778355,-324,-39,945,999.760971432672,-10435,3937,-15015,18703.99473374605
1735564778385,-324,-39,945,999.760971432672,-10476,4077,-11815,16308.36380511546
1735564778415,-324,-39,945,999.760971432672,-10395,4205,-8520,14082.91340596824
1735564778444,-324,-39,945,999.760971432672,-10239,4278,-5151,12234.018391354493
1735564778475,-267,-92,1005,1043.9243267593681,-10081,4294,-1837,11110.335998519577
1735564778504,-267,-92,1005,1043.9243267593681,-9967,4249,1435,10929.515771524373
1735564778534,-267,-92,1005,1043.9243267593681,-9928,4175,4662,11735.844792770566
1735564778564,-256,-127,908,951.9080837980104,-9978,4100,7810,13317.904639994988
1735564778594,-256,-127,908,951.9080837980104,-10067,4053,10901,15381.90817161512
1735564778624,-256,-127,908,951.9080837980104,-10162,4045,13977,17747.81107629896
1735564778654,-321,-64,924,980.261699751653,-10222,4073,17077,20315.08163901883
1735564778684,-321,-64,924,980.261699751653,-10217,4130,-15684,19168.5118097363
1735564778714,-321,-64,924,980.261699751653,-10168,4175,-12408,16576.408326293124
1735564778745,-321,-64,924,980.261699751653,-10101,4194,-9111,14234.822022069682
1735564778775,-281,-74,984,1026.0082845669424,-10066,4187,-5848,12371.51684313609
1735564778804,-281,-74,984,1026.0082845669424,-10056,4170,-2611,11195.059490686059
1735564778834,-281,-74,984,1026.0082845669424,-10062,4153,613,10902.615374303543
1735564778865,-300,-93,919,971.1899917111996,-10077,4146,3808,11542.794678932827
1735564778894,-300,-93,919,971.1899917111996,-10078,4142,7001,12951.302984642125
1735564778925,-300,-93,919,971.1899917111996,-10082,4139,10191,14920.94253055081
1735564778954,-309,-68,845,902.2915271684645,-10079,4131,13376,17250.18197005469
1735564778984,-309,-68,845,902.2915271684645,-10091,4112,16552,19816.799161317653
1735564779015,-309,-68,845,902.2915271684645,-10113,4101,-16282,19600.879929227667
1735564779044,-309,-68,845,902.2915271684645,-10136,4099,-13120,17078.48637906767
1735564779075,-248,-50,853,889.7263624283592,-10192,4104,-9973,14838.47731406427
1735564779104,-248,-50,853,889.7263624283592,-10243,4132,-6837,12989.882293539076
1735564779134,-248,-50,853,889.7263624283592,-10257,4172,-3677,11667.56024197004
1735564779164,-295,3,981,1024.3998242873727,-10216,4222,-423,11062.136728498703
1735564779194,-295,3,981,1024.3998242873727,-10137,4259,2924,11377.505262578436
1735564779225,-295,3,981,1024.3998242873727,-10055,4261,6285,12600.014722213622
1735564779255,-292,-48,1037,1078.395567498309,-10000,4226,9618,14503.96497513697
1735564779285,-292,-48,1037,1078.395567498309,-9962,4153,12877,16801.963635242162
1735564779315,-292,-48,1037,1078.395567498309,-9993,4082,16084,19370.5402351096
1735564779344,-292,-48,1037,1078.395567498309,-10066,4035,-16748,19952.470649019884
1735564779375,-313,-29,977,1026.3230485573245,-10156,4029,-13568,17420.3272357324
1735564779404,-313,-29,977,1026.3230485573245,-10220,4056,-10370,15114.113801344754
1735564779434,-313,-29,977,1026.3230485573245,-10242,4099,-7147,13144.57964333588
1735564779464,-287,-101,1029,1073.0382099440822,-10204,4142,-3900,11682.798466121034
1735564779495,-287,-101,1029,1073.0382099440822,-10125,4151,-654,10962.3967269936
1735564779525,-287,-101,1029,1073.0382099440822,-10065,4131,2585,11182.647763387704
1735564779555,-240,-73,916,949.7289086892112,-10049,4095,5818,12312.61751212958
1735564779584,-240,-73,916,949.7289086892112,-10130,4076,9006,14154.105835410444
1735564779615,-240,-73,916,949.7289086892112,-10199,4089,12194,16414.419209950745
1735564779645,-240,-73,916,949.7289086892112,-10236,4122,15400,18945.357742729484
1735564779675,-344,-67,980,1040.7809567819734,-10177,4165,-17334,20527.691297367077
1735564779704,-344,-67,980,1040.7809567819734,-10082,4175,-14011,17759.095416152253
1735564779735,-344,-67,980,1040.7809567819734,-10013,4149,-10696,15227.566647366873
1735564779764,-233,74,855,889.2637404055109,-10065,4093,-7492,13197.989922711715
1735564779795,-233,74,855,889.2637404055109,-10264,4089,-4415,11897.976382561868
1735564779825,-233,74,855,889.2637404055109,-10402,4152,-1313,11276.731663030738
1735564779855,-344,-48,946,1007.747984369108,-10439,4258,1866,11427.389946965142
1735564779885,-344,-48,946,1007.747984369108,-10178,4340,5296,12266.82110410028
1735564779915,-344,-48,946,1007.747984369108,-9941,4311,8741,13921.683913952364
1735564779945,-250,-29,945,977.9396709409021,-9821,4201,12114,16150.833972275239
1735564780004,-250,-29,945,977.9396709409021,-9927,4079,15267,18661.855722301574
1735564780005,-250,-29,945,977.9396709409021,-10088,4015,-17635,20709.446974750437
1735564780035,-250,-29,945,977.9396709409021,-10242,4017,-14553,18243.48272671641
1735564780064,-411,-41,938,1024.9126792073557,-10239,4088,-11244,15747.26646119891
1735564780094,-411,-41,938,1024.9126792073557,-10141,4136,-7828,13461.944918918663
1735564780125,-411,-41,938,1024.9126792073557,-10039,4138,-4395,11714.119258399242
1735564780184,-270,-82,957,997.7339324689724,-9968,4107,-993,10826.565568082982
1735564780185,-270,-82,957,997.7339324689724,-10009,4062,2184,11020.425626989187
1735564780215,-270,-82,957,997.7339324689724,-10070,4039,5341,12093.16757512274
1735564780245,-269,-66,940,979.9576521462548,-10143,4037,8472,13818.560055230068
1735564780275,-269,-66,940,979.9576521462548,-10235,4060,11572,15973.415696087046
1735564780305,-269,-66,940,979.9576521462548,-10281,4109,14697,18400.669851937455
1735564780334,-269,-66,940,979.9576521462548,-10274,4165,17860,21020.987155697516
1735564780365,-257,-17,948,982.3655124239654,-10263,4217,-14942,18611.169280837785
1735564780395,-257,-17,948,982.3655124239654,-10227,4260,-11716,16124.632864037556
1735564780424,-257,-17,948,982.3655124239654,-10170,4282,-8467,13908.79265069402
1735564780454,-297,-29,937,983.371242207133,-10082,4284,-5187,12120.410430344346
1735564780484,-297,-29,937,983.371242207133,-9989,4250,-1884,11017.80726823627
1735564780515,-297,-29,937,983.371242207133,-9954,4192,1381,10888.624385109442
1735564780544,-268,-65,902,943.2141856439607,-9969,4138,4612,11737.740370275704
1735564780575,-268,-65,902,943.2141856439607,-10001,4097,7791,13323.103654929657
1735564780605,-268,-65,902,943.2141856439607,-10052,4074,10950,15412.419667268343
1735564780634,-268,-65,902,943.2141856439607,-10104,4074,14103,17820.85578753164
1735564780664,-256,-105,992,1029.866496202299,-10092,4085,17272,20417.092667664514
1735564780694,-256,-105,992,1029.866496202299,-10071,4086,-15560,18979.832375445258
1735564780725,-256,-105,992,1029.866496202299,-10056,4079,-12395,16474.143437520506
1735564780755,-255,-74,950,986.4081305423227,-10108,4081,-9243,14291.930380462956
1735564780785,-255,-74,950,986.4081305423227,-10174,4117,-6082,12547.93564695006
1735564780815,-255,-74,950,986.4081305423227,-10192,4167,-2891,11384.139581013578
1735564780845,-267,-91,916,958.4497900255391,-10182,4214,319,11024.18618311574
1735564780876,-267,-91,916,958.4497900255391,-10148,4248,3539,11556.466977411392
1735564780905,-267,-91,916,958.4497900255391,-10099,4264,6777,12887.948867061818
1735564780935,-267,-91,916,958.4497900255391,-10054,4260,10017,14817.921750367019
1735564780964,-274,-64,982,1021.5165196902104,-10006,4223,13292,17164.81951550904
1735564780994,-274,-64,982,1021.5165196902104,-10007,4181,16539,19777.748380440076
1735564781025,-274,-64,982,1021.5165196902104,-10040,4148,-16240,19538.298390596865
1735564781054,-250,6,934,966.8981332074233,-10090,4127,-13033,16991.154110301042
1735564781084,-250,6,934,966.8981332074233,-10172,4137,-9840,14744.828008491655
1735564781115,-250,6,934,966.8981332074233,-10220,4172,-6630,12876.757511112803
1735564781145,-299,-30,958,1004.0244020938933,-10206,4214,-3386,11549.252270168836
1735564781175,-299,-30,958,1004.0244020938933,-10071,4220,-57,10919.555393879367
1735564781204,-299,-30,958,1004.0244020938933,-9978,4178,3255,11296.512426408426
1735564781234,-299,-30,958,1004.0244020938933,-9949,4113,6525,12588.68519743027
1735564781264,-271,-58,986,1024.2074985079928,-10013,4042,9662,14489.726601975623
1735564781295,-271,-58,986,1024.2074985079928,-10109,4003,12754,16759.48704465623
1735564781325,-271,-58,986,1024.2074985079928,-10203,4003,15836,19258.87104687084
1735564781354,-275,-2,893,934.3864296959797,-10294,4043,-17057,20328.638272151926
1735564781384,-275,-2,893,934.3864296959797,-10355,4121,-13902,17817.80766536669
1735564781415,-275,-2,893,934.3864296959797,-10337,4205,-10690,15453.533382369224
1735564781445,-293,-111,928,979.4661811415441,-10268,4271,-7432,13375.645367607502
1735564781476,-293,-111,928,979.4661811415441,-10087,4287,-4135,11714.271765671137
1735564781505,-293,-111,928,979.4661811415441,-9956,4237,-856,10853.885986134183
1735564781535,-293,-111,928,979.4661811415441,-9908,4154,2368,11001.436451663938
1735564781564,-244,-10,938,969.2677648617022,-10034,4070,5519,12153.411743210218
1735564781595,-244,-10,938,969.2677648617022,-10211,4059,8625,13968.916457621186
1735564781625,-244,-10,938,969.2677648617022,-10339,4108,11747,16179.078898379845
1735564781654,-252,-17,905,939.5839504802112,-10376,4198,14914,18647.036654653737
1735564781685,-252,-17,905,939.5839504802112,-10318,4283,-17850,21057.72335747623
1735564781715,-252,-17,905,939.5839504802112,-10212,4331,-14567,18309.560180408484
1735564781745,-278,-11,953,992.780942605165,-10107,4331,-11273,15747.683607438905
1735564781775,-278,-11,953,992.780942605165,-10032,4290,-7982,13518.781306020155
1735564781805,-278,-11,953,992.780942605165,-10015,4232,-4730,11856.768067226414
1735564781835,-278,-11,953,992.780942605165,-10048,4180,-1518,10988.131233289854
1735564781865,-262,-46,936,973.0652598875371,-10108,4167,1682,11061.856851360897
1735564781895,-262,-46,936,973.0652598875371,-10155,4174,4876,12013.395731432474
1735564781925,-262,-46,936,973.0652598875371,-10180,4195,8081,13657.70793361756
1735564781954,-256,2,946,980.0285710120904,-10194,4200,11292,15781.85350331196
1735564781984,-256,2,946,980.0285710120904,-10228,4207,14499,18235.455409723116
1735564782015,-256,2,946,980.0285710120904,-10245,4224,17715,20895.536030453968
1735564782045,-292,0,899,945.2327755637762,-10228,4247,-15039,18676.73724182037
1735564782076,-292,0,899,945.2327755637762,-10139,4259,-11708,16062.866058085649
1735564782105,-292,0,899,945.2327755637762,-10071,4238,-8383,13771.723712012234
1735564782135,-292,0,899,945.2327755637762,-10043,4198,-5082,12012.983684330884
1735564782165,-269,3,1028,1062.6165818393763,-10057,4145,-1830,11030.556377626652
1735564782195,-269,3,1028,1062.6165818393763,-10113,4108,1380,11002.40123791166
1735564782225,-269,3,1028,1062.6165818393763,-10179,4098,4577,11889.262971269498
1735564782254,-285,12,956,997.649738134582,-10237,4125,7792,13510.2575104992
1735564782285,-285,12,956,997.649738134582,-10253,4176,11053,15643.905970057478
1735564782315,-285,12,956,997.649738134582,-10224,4221,14350,18118.2095417842
1735564782345,-285,5,881,925.9649021426244,-10168,4243,17658,20813.366786755094
1735564782405,-285,5,881,925.9649021426244,-10113,4228,-15060,18626.657053803294
1735564782405,-285,5,881,925.9649021426244,-10088,4198,-11797,16079.805875693897
1735564782435,-285,5,881,925.9649021426244,-10095,4166,-8557,13873.962303538236
1735564782465,-251,22,832,869.3152477668846,-10113,4105,-5408,12180.733064967806
1735564782495,-251,22,832,869.3152477668846,-10182,4064,-2306,11202.984245280362
1735564782525,-251,22,832,869.3152477668846,-10259,4053,781,11058.20288292813
1735564782555,-226,31,966,992.5688892968589,-10287,4070,3901,11730.518743857836
1735564782584,-226,31,966,992.5688892968589,-10292,4091,7036,13121.236260352909
1735564782615,-226,31,966,992.5688892968589,-10279,4110,10184,15042.067577298008
1735564782645,-368,-59,1015,1081.2631502090505,-10251,4125,13351,17330.54606756521
1735564782675,-368,-59,1015,1081.2631502090505,-10038,4106,16703,19915.091990749126
1735564782705,-368,-59,1015,1081.2631502090505,-9913,4017,-15989,19236.73514398948
1735564782735,-368,-59,1015,1081.2631502090505,-9898,3903,-12757,16611.588184156262
1735564782764,-446,14,906,1009.9247496719743,-10095,3880,-9503,14396.889733550091
1735564782795,-446,14,906,1009.9247496719743,-10238,3938,-6201,12600.670180589603
1735564782825,-446,14,906,1009.9247496719743,-10289,4035,-2844,11411.970995406535
1735564782854,-316,-78,1110,1156.7367894209988,-10327,4159,506,11144.516409427553
1735564782884,-316,-78,1110,1156.7367894209988,-10302,4282,3829,11795.251968482911
1735564782915,-316,-78,1110,1156.7367894209988,-10185,4371,7234,13235.203889627088
1735564782945,-251,0,910,943.9814616823786,-10051,4391,10656,15292.279686168442
1735564782975,-251,0,910,943.9814616823786,-10088,4372,13938,17752.463829001314
1735564783005,-251,0,910,943.9814616823786,-10128,4369,17213,20443.87228486815
1735564783035,-251,0,910,943.9814616823786,-10156,4380,-15507,19047.198875425227
1735564783065,-281,5,814,861.1515546058081,-10112,4368,-12241,16467.36314653928
1735564783095,-281,5,814,861.1515546058081,-10087,4341,-8979,14185.002326400938
1735564783125,-281,5,814,861.1515546058081,-10092,4312,-5738,12384.120961941546
1735564783154,-211,23,860,885.8047188856018,-10070,4283,-2489,11222.482345720131
1735564783184,-211,23,860,885.8047188856018,-10092,4249,708,10972.863299977815
1735564783215,-211,23,860,885.8047188856018,-10132,4229,3887,11646.915213909648
1735564783245,-274,-21,956,994.7125212844161,-10160,4226,7067,13077.73546910932
1735564783276,-274,-21,956,994.7125212844161,-10078,4212,10331,15034.513261160137
1735564783305,-274,-21,956,994.7125212844161,-10034,4174,13574,17388.413038572555
1735564783335,-274,-21,956,994.7125212844161,-10034,4128,16785,19986.43952783987
1735564783366,-233,-22,941,969.6669531339098,-10083,4089,-16052,19392.0992674852
1735564783395,-233,-22,941,969.6669531339098,-10154,4075,-12921,16931.083308518686
1735564783425,-233,-22,941,969.6669531339098,-10211,4087,-9788,14723.214119206445
1735564783455,-258,-31,1068,1099.1583143478467,-10220,4113,-6625,12855.185490688184
1735564783485,-258,-31,1068,1099.1583143478467,-10185,4131,-3423,11511.57308972149
1735564783515,-258,-31,1068,1099.1583143478467,-10149,4133,-215,10960.388451145333
1735564783545,-290,-22,980,1022.2445891272793,-10135,4124,2977,11339.670630137367
1735564783575,-290,-22,980,1022.2445891272793,-10138,4118,6180,12566.995185803167
1735564783605,-290,-22,980,1022.2445891272793,-10143,4115,9380,14415.202877517888
1735564783635,-279,-60,989,1029.3502805167927,-10156,4122,12594,16695.62984735826
1735564783665,-279,-60,989,1029.3502805167927,-10142,4144,15838,19258.118911254027
1735564783695,-279,-60,989,1029.3502805167927,-10115,4157,-16906,20134.71405309745
1735564783726,-279,-60,989,1029.3502805167927,-10088,4157,-13646,17471.74029683363
1735564783755,-244,-8,938,969.2491939640703,-10105,4149,-10393,15077.787470315398
1735564783785,-244,-8,938,969.2491939640703,-10142,4155,-7153,13087.765202661607
1735564783815,-244,-8,938,969.2491939640703,-10161,4172,-3905,11657.638268534498
1735564783844,-289,-1,989,1030.3606164833748,-10172,4191,-667,11021.749135232574
1735564783874,-289,-1,989,1030.3606164833748,-10158,4211,2587,11296.462012506394
1735564783904,-289,-1,989,1030.3606164833748,-10134,4222,5853,12441.095168834616
1735564783934,-240,-51,925,956.9879832056408,-10110,4220,9113,14250.167332350873
1735564783964,-240,-51,925,956.9879832056408,-10100,4200,12289,16452.03698634306
1735564783995,-240,-51,925,956.9879832056408,-10110,4179,15450,18930.891183459906
1735564784025,-240,-51,925,956.9879832056408,-10132,4166,-17400,20561.444015438214
1735564784055,-233,-77,932,963.7644940544344,-10121,4159,-14235,17954.58568165804
1735564784085,-233,-77,932,963.7644940544344,-10115,4147,-11081,15565.96913140971
1735564784115,-233,-77,932,963.7644940544344,-10120,4135,-7934,13507.811850925375
1735564784145,-289,-4,979,1020.7732363262666,-10135,4124,-4757,11931.24679151345
1735564784173,-289,-4,979,1020.7732363262666,-10159,4126,-1533,11071.55120116418
1735564784205,-289,-4,979,1020.7732363262666,-10173,4137,1695,11112.053050629303
1735564784235,-235,-43,1029,1056.3687803035452,-10174,4153,4929,12043.783707788843
1735564784265,-235,-43,1029,1056.3687803035452,-10172,4166,8105,13657.092113623603
1735564784295,-235,-43,1029,1056.3687803035452,-10160,4176,11288,15750.667287451666
1735564784325,-235,-43,1029,1056.3687803035452,-10146,4179,14475,18164.00236731982
1735564784355,-309,-46,924,975.3835143162919,-10113,4182,17717,20824.360302299803
1735564784385,-309,-46,924,975.3835143162919,-10072,4170,-15015,18554.89986499523
1735564784414,-309,-46,924,975.3835143162919,-10054,4146,-11762,16019.265775933678
1735564784445,-302,28,897,946.8880609660257,-10076,4125,-8508,13817.650487691459
1735564784476,-302,28,897,946.8880609660257,-10140,4131,-5254,12144.516334543752
1735564784505,-302,28,897,946.8880609660257,-10178,4158,-1986,11172.503927052341
1735564784535,-288,-11,928,971.7247552676632,-10187,4191,1293,11091.0458929715
1735564784565,-288,-11,928,971.7247552676632,-10157,4214,4556,11902.923212387786
1735564784595,-288,-11,928,971.7247552676632,-10120,4221,7828,13472.521107795676
1735564784625,-288,-11,928,971.7247552676632,-10090,4214,11101,15581.979880618508
1735564784655,-280,-19,970,1009.7826498806562,-10080,4199,14352,18033.7989619492
1735564784685,-280,-19,970,1009.7826498806562,-10086,4182,17587,20700.7026209257
1735564784715,-280,-19,970,1009.7826498806562,-10103,4171,-15186,18710.49026615818
1735564784745,-275,-30,906,947.291401840004,-10125,4158,-11988,16233.198483355029
1735564784775,-275,-30,906,947.291401840004,-10151,4148,-8814,14068.94811277659
1735564784805,-275,-30,906,947.291401840004,-10176,4148,-5642,12352.693795282064
1735564784835,-297,-50,1003,1047.2430472435708,-10190,4162,-2451,11276.779017077528
1735564784895,-297,-50,1003,1047.2430472435708,-10151,4181,808,11008.01644257493
1735564784896,-297,-50,1003,1047.2430472435708,-10110,4183,4074,11675.061670072668
1735564784925,-297,-50,1003,1047.2430472435708,-10081,4170,7336,13146.57206270897
1735564784955,-288,-41,1041,1080.8820472188443,-10061,4147,10614,15201.260671404856
1735564784985,-288,-41,1041,1080.8820472188443,-10070,4124,13872,17630.787276806444
1735564785015,-288,-41,1041,1080.8820472188443,-10093,4108,17117,20291.278964126435
1735564785046,-275,-29,943,982.7079932513014,-10146,4107,-15663,19108.593197825947
1735564785075,-275,-29,943,982.7079932513014,-10201,4130,-12453,16619.100757862925
1735564785106,-275,-29,943,982.7079932513014,-10220,4168,-9221,14382.192635339023
1735564785136,-245,-17,951,982.199063326778,-10201,4201,-5965,12541.5320834418
1735564785165,-245,-17,951,982.199063326778,-10193,4217,-2735,11364.88288545025
1735564785195,-245,-17,951,982.199063326778,-10175,4227,502,11029.513044554596
1735564785226,-245,-17,951,982.199063326778,-10155,4228,3745,11620.02728051875
1735564785255,-292,10,884,931.0316858195537,-10174,4231,6977,13041.862060304118
1735564785285,-292,10,884,931.0316858195537,-10179,4240,10233,15043.401543533962
1735564785315,-292,10,884,931.0316858195537,-10175,4249,13495,17426.98054741555
1735564785345,-240,17,977,1006.1898429222987,-10189,4253,16738,20051.542933151053
1735564785375,-240,17,977,1006.1898429222987,-10227,4265,-16057,19509.203033440397
1735564785404,-240,17,977,1006.1898429222987,-10243,4288,-12839,16974.861236546236
1735564785435,-272,-14,954,992.1169285925929,-10225,4311,-9598,14671.637604575708
1735564785464,-272,-14,954,992.1169285925929,-10129,4308,-6300,12682.488123392823
1735564785495,-272,-14,954,992.1169285925929,-10067,4274,-3019,11345.744841128766
1735564785525,-272,-14,954,992.1169285925929,-10054,4227,229,10908.84439342683
1735564785554,-214,14,933,957.3301415917082,-10100,4161,3415,11444.917911457469
1735564785585,-214,14,933,957.3301415917082,-10198,4128,6546,12801.941415269795
1735564785615,-214,14,933,957.3301415917082,-10289,4135,9672,14714.256012452684
1735564785645,-170,-5,985,999.5749096490968,-10351,4176,12800,16982.996702584616
1735564785675,-170,-5,985,999.5749096490968,-10371,4232,15932,19475.52538444085
1735564785705,-170,-5,985,999.5749096490968,-10342,4284,-16896,20267.817741434326
1735564785735,-168,-35,936,951.6012820504184,-10284,4314,-13706,17669.90911125465
1735564785764,-168,-35,936,951.6012820504184,-10208,4310,-10530,15285.949888704987
1735564785795,-168,-35,936,951.6012820504184,-10161,4282,-7369,13262.11167197743
1735564785825,-168,-35,936,951.6012820504184,-10151,4243,-4233,11788.305179286801
1735564785854,-171,7,938,953.4851860411886,-10192,4225,-1054,11083.248846795781
1735564785884,-171,7,938,953.4851860411886,-10241,4230,2123,11281.76005772149
1735564785915,-171,7,938,953.4851860411886,-10270,4250,5310,12317.93408003144
1735564785945,-169,8,963,977.7494566605496,-10272,4271,8492,13995.338116672994
1735564785975,-169,8,963,977.7494566605496,-10259,4287,11676,16123.102244915524
1735564786005,-169,8,963,977.7494566605496,-10237,4296,14868,18555.570834657716
1735564786035,-208,-5,954,976.4246002636353,-10210,4293,-17937,21081.03218535563
