Timestamp,Acc_X,Acc_Y,Acc_Z,Acc_Betrag,Ori_X,Ori_Y,Ori_Z,Ori_Betrag
1735578391567,173,-127,977,1000.2934569415117,9067,-4021,6131,11660.535622345998
1735578391567,173,-127,977,1000.2934569415117,9200,-4039,4432,10981.627611606578
1735578391583,173,-127,977,1000.2934569415117,9312,-4030,2735,10508.780566745125
1735578391613,-7,-114,938,944.9280395882006,9450,-4001,978,10308.587924638368
1735578391643,-7,-114,938,944.9280395882006,9626,-3925,-902,10434.51508216841
1735578391673,-7,-114,938,944.9280395882006,9744,-3812,-2770,10823.575194915957
1735578391703,161,-87,977,993.9914486553695,9798,-3687,-4618,11442.058250157617
1735578391733,161,-87,977,993.9914486553695,9682,-3616,-6268,12087.365469778764
1735578391763,161,-87,977,993.9914486553695,9571,-3571,-7921,12926.651654624255
1735578391793,161,-87,977,993.9914486553695,9471,-3549,-9574,13926.834457262712
1735578391823,291,-118,1002,1050.0519034790614,9320,-3573,-11133,14952.33821179818
1735578391853,291,-118,1002,1050.0519034790614,9185,-3632,-12647,16046.876892404951
1735578391883,291,-118,1002,1050.0519034790614,9084,-3715,-14161,17229.457391339984
1735578391913,129,-96,942,955.6259728575819,9063,-3814,-15745,18563.12446761051
1735578391943,129,-96,942,955.6259728575819,9131,-3903,-17458,20084.57950767205
1735578391973,129,-96,942,955.6259728575819,9209,-3974,16825,19587.725289068152
1735578392003,108,-92,942,952.6237452425801,9294,-4031,15106,18188.420299740163
1735578392033,108,-92,942,952.6237452425801,9398,-4071,13362,16835.63152958629
1735578392063,108,-92,942,952.6237452425801,9494,-4089,11617,15550.261927054476
1735578392093,108,-92,942,952.6237452425801,9576,-4087,9873,14348.500757918926
1735578392123,282,-69,996,1037.449275868464,9529,-4088,8280,13269.211920833883
1735578392154,282,-69,996,1037.449275868464,9448,-4113,6751,12318.98835132171
1735578392185,282,-69,996,1037.449275868464,9386,-4151,5221,11514.627132478065
1735578392215,296,-107,1000,1048.3630096488525,9357,-4190,3682,10893.423382940737
1735578392245,296,-107,1000,1048.3630096488525,9356,-4228,2147,10489.057583977696
1735578392275,296,-107,1000,1048.3630096488525,9364,-4265,610,10307.609858740288
1735578392305,37,-125,951,959.8932232285006,9390,-4303,-935,10371.216611372072
1735578392334,37,-125,951,959.8932232285006,9646,-4292,-2802,10923.268009162826
1735578392364,37,-125,951,959.8932232285006,9848,-4227,-4658,11685.358231564833
1735578392395,37,-125,951,959.8932232285006,9991,-4121,-6500,12611.610602932522
1735578392424,95,-79,949,957.009404342507,10011,-4025,-8270,13594.618273419817
1735578392454,95,-79,949,957.009404342507,9980,-3935,-10014,14675.313318631395
1735578392484,95,-79,949,957.009404342507,9932,-3853,-11753,15862.636666077931
1735578392514,255,-83,1003,1038.2307065387731,9814,-3793,-13421,17053.58279072172
1735578392544,255,-83,1003,1038.2307065387731,9635,-3784,-14970,18200.351122986613
1735578392574,255,-83,1003,1038.2307065387731,9486,-3808,-16521,19427.519167407867
1735578392605,198,-132,979,1007.5063275235545,9381,-3862,17916,20588.862547503686
1735578392664,198,-132,979,1007.5063275235545,9405,-3920,16272,19198.916870490375
1735578392694,198,-132,979,1007.5063275235545,9438,-3972,14625,17853.382116562676
1735578392694,198,-132,979,1007.5063275235545,9478,-4016,12976,16563.131225707293
1735578392723,41,-116,942,950.0005263156437,9613,-4050,11204,15308.229322818495
1735578392753,41,-116,942,950.0005263156437,9758,-4042,9375,14122.568923535124
1735578392782,41,-116,942,950.0005263156437,9874,-4003,7551,13059.000191438852
1735578392813,94,-94,957,966.1889049249116,9921,-3951,5755,12130.814770657411
1735578392843,94,-94,957,966.1889049249116,9906,-3907,4002,11375.829156593378
1735578392873,94,-94,957,966.1889049249116,9883,-3867,2252,10848.911558308511
1735578392903,236,-97,1009,1040.762220682515,9845,-3834,504,10577.220665184215
1735578392933,236,-97,1009,1040.762220682515,9706,-3847,-1086,10496.915785124695
1735578392964,236,-97,1009,1040.762220682515,9595,-3887,-2680,10693.69879882541
1735578392995,236,-97,1009,1040.762220682515,9512,-3947,-4275,11150.451919092786
1735578393023,183,-135,985,1010.9099861016311,9518,-4008,-5939,11913.358426573088
1735578393054,183,-135,985,1010.9099861016311,9558,-4060,-7626,12883.898478333334
1735578393085,183,-135,985,1010.9099861016311,9604,-4103,-9315,13994.307771376189
1735578393115,-24,-113,948,955.0125653623621,9709,-4122,-11081,15298.500776219871
1735578393144,-24,-113,948,955.0125653623621,9881,-4084,-12997,16829.59375623785
1735578393174,-24,-113,948,955.0125653623621,10007,-4009,-14903,18393.247103216985
1735578393204,82,-79,961,967.7220675379889,10085,-3915,-16789,19972.605513552808
1735578393234,82,-79,961,967.7220675379889,10031,-3853,17460,20501.662615505113
1735578393265,82,-79,961,967.7220675379889,9972,-3803,15712,18993.960540129592
1735578393294,82,-79,961,967.7220675379889,9912,-3766,13965,17534.3013832887
1735578393324,264,-98,1013,1051.412858966448,9771,-3787,12356,16201.374818206015
1735578393354,264,-98,1013,1051.412858966448,9631,-3849,10810,14980.889893460935
1735578393384,264,-98,1013,1051.412858966448,9528,-3937,9262,13858.838226922198
1735578393415,285,-96,979,1024.1494031634252,9445,-4040,7720,12850.214978746464
1735578393444,285,-96,979,1024.1494031634252,9384,-4158,6191,11986.529981608523
1735578393474,285,-96,979,1024.1494031634252,9357,-4284,4658,11296.152840679875
1735578393504,74,-122,954,964.6118390316386,9368,-4414,3104,10810.996068818082
1735578393534,74,-122,954,964.6118390316386,9608,-4497,1257,10682.542862071745
1735578393564,74,-122,954,964.6118390316386,9828,-4530,-596,10838.159437838143
1735578393595,74,-122,954,964.6118390316386,10015,-4517,-2447,11255.724010475737
1735578393624,111,-108,963,975.3737745090341,10124,-4496,-4265,11870.114447636974
1735578393654,111,-108,963,975.3737745090341,10194,-4460,-6062,12671.112026969062
1735578393684,111,-108,963,975.3737745090341,10240,-4410,-7853,13637.276450963367
1735578393714,195,-89,994,1016.8490546782251,10226,-4342,-9627,14700.44791834589
1735578393744,195,-89,994,1016.8490546782251,10144,-4290,-11344,15811.109132505537
1735578393774,195,-89,994,1016.8490546782251,10064,-4254,-13060,17027.748295062385
1735578393804,161,-80,989,1005.2074412776698,10009,-4230,-14780,18344.519099720223
1735578393835,161,-80,989,1005.2074412776698,10006,-4198,-16544,19785.02403334401
1735578393865,161,-80,989,1005.2074412776698,9995,-4167,17693,20743.82228520096
1735578393895,10,-65,940,942.2977236521375,10002,-4139,15942,19269.631262688967
1735578393924,10,-65,940,942.2977236521375,10129,-4067,14047,17789.19163424803
1735578393954,10,-65,940,942.2977236521375,10209,-3969,12164,16368.858787343728
1735578393984,10,-65,940,942.2977236521375,10245,-3854,10293,15025.285022254986
1735578394014,112,-91,964,974.7415041948301,10275,-3776,8552,13891.382400610819
1735578394044,112,-91,964,974.7415041948301,10269,-3702,6851,12887.721520889563
1735578394074,112,-91,964,974.7415041948301,10246,-3630,5153,12029.581247907177
1735578394104,293,-160,1008,1061.8441505230417,10181,-3568,3466,11331.219748994368
1735578394134,293,-160,1008,1061.8441505230417,10019,-3575,1988,10821.881998987052
1735578394164,293,-160,1008,1061.8441505230417,9887,-3613,509,10538.767432674467
1735578394195,189,-135,984,1011.040058553567,9753,-3669,-977,10465.997276896263
1735578394225,189,-135,984,1011.040058553567,9635,-3728,-2590,10650.789125693927
1735578394254,189,-135,984,1011.040058553567,9551,-3810,-4205,11109.443100353861
1735578394284,189,-135,984,1011.040058553567,9500,-3906,-5823,11807.37756658946
1735578394314,66,-92,944,950.7660069649104,9445,-4004,-7544,12733.890882208783
1735578394344,66,-92,944,950.7660069649104,9438,-4104,-9318,13883.219511338139
1735578394374,66,-92,944,950.7660069649104,9460,-4202,-11099,15176.83119099636
1735578394404,104,-42,971,977.4563928892173,9488,-4292,-12880,16563.14607796478
1735578394434,104,-42,971,977.4563928892173,9496,-4382,-14644,17995.073659199064
1735578394465,104,-42,971,977.4563928892173,9526,-4467,-16416,19498.303028725346
1735578394495,204,-75,1000,1023.3479369207719,9601,-4548,17803,20731.867113214863
1735578394524,204,-75,1000,1023.3479369207719,9681,-4631,16137,19379.646307402
1735578394554,204,-75,1000,1023.3479369207719,9768,-4697,14463,18073.57192145482
1735578394584,204,-75,1000,1023.3479369207719,9857,-4748,12784,16826.60420286874
1735578394614,39,-131,977,986.5145716105769,10128,-4716,10930,15629.521425814675
1735578394644,39,-131,977,986.5145716105769,10387,-4609,9029,14513.975713084268
1735578394674,39,-131,977,986.5145716105769,10559,-4451,7157,13510.238006785818
1735578394704,-73,-96,967,974.4916623553021,10680,-4242,5271,12642.800520454319
1735578394734,-73,-96,967,974.4916623553021,10744,-3979,3337,11933.211889512395
1735578394765,-73,-96,967,974.4916623553021,10714,-3704,1430,11426.036583172661
1735578394795,121,-115,1001,1014.8236299968581,10597,-3451,-454,11154.009413659287
1735578394824,121,-115,1001,1014.8236299968581,10338,-3312,-2136,11063.728304690061
1735578394854,121,-115,1001,1014.8236299968581,10097,-3230,-3826,11270.340944266061
1735578394884,121,-115,1001,1014.8236299968581,9882,-3202,-5522,11764.319444829778
1735578394914,239,-110,1005,1038.8676527835487,9624,-3230,-7127,12403.564205501578
1735578394944,239,-110,1005,1038.8676527835487,9398,-3319,-8693,13225.218863973481
1735578394974,239,-110,1005,1038.8676527835487,9230,-3452,-10259,14225.198944127284
1735578395004,221,-90,967,996.0070280876536,9110,-3599,-11836,15363.45654467119
1735578395034,221,-90,967,996.0070280876536,9034,-3760,-13431,16617.536429928474
1735578395064,221,-90,967,996.0070280876536,9006,-3929,-15030,17956.78080837431
1735578395095,86,-107,942,951.9501037344342,9035,-4103,-16638,19372.37409302226
1735578395124,86,-107,942,951.9501037344342,9238,-4250,17577,20306.503219412247
1735578395155,86,-107,942,951.9501037344342,9447,-4350,15779,18898.284313661916
1735578395184,86,-107,942,951.9501037344342,9646,-4405,13974,17542.007211262913
1735578395213,93,-97,979,988.1796395392894,9831,-4422,12159,16249.428482257461
1735578395244,93,-97,979,988.1796395392894,9981,-4402,10349,15036.614180060616
1735578395274,93,-97,979,988.1796395392894,10097,-4352,8546,13925.639267193445
1735578395304,172,-109,1012,1032.2833913223635,10141,-4284,6792,12935.370153188505
1735578395334,172,-109,1012,1032.2833913223635,10121,-4221,5109,12097.659401718995
1735578395365,172,-109,1012,1032.2833913223635,10090,-4164,3429,11441.37391225372
1735578395394,82,-115,972,982.2082263960123,10048,-4111,1752,10996.914521810197
1735578395424,82,-115,972,982.2082263960123,10059,-4043,-22,10841.116824386683
1735578395454,82,-115,972,982.2082263960123,10050,-3973,-1791,10954.218821988175
1735578395484,82,-115,972,982.2082263960123,10025,-3905,-3557,11331.456172972652
1735578395514,-1,-102,947,952.4778212640964,10024,-3841,-5375,12005.185629551923
1735578395544,-1,-102,947,952.4778212640964,10017,-3770,-7217,12908.844952202346
1735578395574,-1,-102,947,952.4778212640964,9992,-3703,-9056,13984.398771488175
1735578395604,130,-83,988,999.9664994388562,9912,-3652,-10835,15132.15361407622
1735578395634,130,-83,988,999.9664994388562,9775,-3645,-12518,16295.305274832994
1735578395665,130,-83,988,999.9664994388562,9661,-3667,-14203,17564.36787931749
1735578395695,216,-110,998,1027.0150923915382,9573,-3712,-15891,18919.43852232407
1735578395724,216,-110,998,1027.0150923915382,9478,-3786,-17491,20250.959508131953
1735578395754,216,-110,998,1027.0150923915382,9416,-3877,16906,19735.881561257913
1735578395784,216,-110,998,1027.0150923915382,9385,-3977,15301,18385.193907054665
1735578395814,162,-122,945,966.5159077842434,9424,-4072,13633,17066.096478105355
1735578395844,162,-122,945,966.5159077842434,9493,-4152,11939,15808.095204672825
1735578395874,162,-122,945,966.5159077842434,9570,-4216,10240,14636.159195635992
1735578395904,53,-99,944,950.6555632825172,9680,-4259,8493,13563.647370821758
1735578395934,53,-99,944,950.6555632825172,9823,-4263,6661,12610.845292842188
1735578395964,53,-99,944,950.6555632825172,9940,-4236,4833,11836.603609143967
1735578395995,142,-84,986,999.7079573555469,10022,-4187,3016,11272.431370383232
1735578396025,142,-84,986,999.7079573555469,9996,-4150,1311,10902.35006776062
1735578396054,142,-84,986,999.7079573555469,9965,-4118,-391,10789.440671323051
1735578396084,142,-84,986,999.7079573555469,9932,-4093,-2093,10944.310028503396
1735578396114,228,-119,1009,1041.2617346277543,9871,-4090,-3721,11314.176152066928
1735578396144,228,-119,1009,1041.2617346277543,9812,-4105,-5317,11891.041081419238
1735578396174,228,-119,1009,1041.2617346277543,9766,-4131,-6915,12659.270990068899
1735578396204,196,-111,955,981.2043619960115,9741,-4157,-8536,13602.61099936332
1735578396234,196,-111,955,981.2043619960115,9737,-4180,-10186,14698.168763488871
1735578396264,196,-111,955,981.2043619960115,9739,-4203,-11838,15895.017269572249
1735578396295,118,-108,944,957.4570486450032,9751,-4227,-13492,17175.086433552526
1735578396324,118,-108,944,957.4570486450032,9827,-4231,-15237,18618.202356833488
1735578396354,118,-108,944,957.4570486450032,9890,-4220,-16981,20099.12587651513
1735578396384,118,-108,944,957.4570486450032,9939,-4197,17277,20368.928764174125
1735578396414,188,-78,981,1001.8927088266488,9920,-4180,15594,18948.65789442619
1735578396444,188,-78,981,1001.8927088266488,9878,-4174,13938,17585.931991225258
1735578396474,188,-78,981,1001.8927088266488,9843,-4177,12281,16283.578814253333
1735578396504,268,-95,981,1021.3765221503772,9791,-4193,10661,15069.89883841295
1735578396534,268,-95,981,1021.3765221503772,9721,-4230,9104,13974.031522792555
1735578396564,268,-95,981,1021.3765221503772,9671,-4280,7545,12991.291929596533
1735578396595,100,-118,959,971.3933291926603,9647,-4334,5973,12145.982628013264
1735578396624,100,-118,959,971.3933291926603,9795,-4342,4184,11502.210439737224
1735578396654,100,-118,959,971.3933291926603,9918,-4320,2397,11080.376031525284
1735578396684,100,-118,959,971.3933291926603,10010,-4274,616,10901.680237467985
1735578396714,117,-93,968,979.470264990214,10053,-4225,-1134,10963.548239507136
1735578396744,117,-93,968,979.470264990214,10065,-4171,-2875,11267.967474216457
1735578396774,117,-93,968,979.470264990214,10061,-4116,-4611,11807.899813260612
1735578396804,230,-105,992,1023.7133387819073,10000,-4073,-6288,12495.129971312823
1735578396833,230,-105,992,1023.7133387819073,9889,-4062,-7873,13276.908299751114
1735578396863,230,-105,992,1023.7133387819073,9797,-4073,-9460,14214.85624267794
1735578396894,116,-110,964,977.1652879630958,9732,-4097,-11060,15291.201162760237
1735578396924,116,-110,964,977.1652879630958,9779,-4098,-12810,16628.84677300263
1735578396954,116,-110,964,977.1652879630958,9818,-4090,-14560,18030.94074084877
1735578396984,116,-110,964,977.1652879630958,9848,-4075,-16308,19481.775920074637
1735578397014,69,-104,946,954.1975686407925,9889,-4056,17925,20869.81269681163
1735578397044,69,-104,946,954.1975686407925,9925,-4026,16145,19374.605183074054
1735578397074,69,-104,946,954.1975686407925,9946,-3988,14368,17923.908167584435
1735578397104,185,-97,990,1011.7974105521322,9913,-3957,12643,16546.022694291216
1735578397134,185,-97,990,1011.7974105521322,9823,-3955,11005,15272.30758595439
1735578397164,185,-97,990,1011.7974105521322,9749,-3970,9365,14089.255693612775
1735578397195,250,-110,993,1029.8781481320982,9693,-3999,7722,13022.117108980397
1735578397224,250,-110,993,1029.8781481320982,9620,-4047,6145,12111.301911850765
1735578397254,250,-110,993,1029.8781481320982,9570,-4108,4566,11371.40800428865
1735578397284,250,-110,993,1029.8781481320982,9543,-4178,2984,10836.456478019003
1735578397314,81,-112,940,950.1078886105514,9637,-4223,1249,10595.541467994923
1735578397344,81,-112,940,950.1078886105514,9762,-4234,-552,10654.956780766406
1735578397374,81,-112,940,950.1078886105514,9867,-4219,-2351,10985.66570581865
1735578397404,70,-89,958,964.6683367873126,9942,-4189,-4140,11555.547801813638
1735578397434,70,-89,958,964.6683367873126,9987,-4148,-5927,12331.885581694309
1735578397464,70,-89,958,964.6683367873126,10012,-4098,-7709,13283.916177091754
1735578397495,179,-101,1009,1029.7198648176116,10015,-4043,-9487,14375.299753396448
1735578397524,179,-101,1009,1029.7198648176116,9935,-4015,-11143,15459.330483562346
1735578397555,179,-101,1009,1029.7198648176116,9864,-4003,-12800,16648.198250861864
1735578397585,188,-125,989,1014.4407326206889,9803,-4003,-14460,17922.455691115545
1735578397614,188,-125,989,1014.4407326206889,9766,-4011,-16117,19267.085041593604
1735578397644,188,-125,989,1014.4407326206889,9737,-4027,-17775,20663.41024613314
1735578397674,188,-125,989,1014.4407326206889,9718,-4047,16565,19626.944693456495
1735578397704,8,-122,971,978.6669504995048,9763,-4059,14828,18211.568685865586
1735578397734,8,-122,971,978.6669504995048,9880,-4028,12955,16783.0631590303
1735578397764,8,-122,971,978.6669504995048,9966,-3973,11089,15429.575690860718
1735578397795,39,-81,982,986.1064851221697,10018,-3903,9236,14173.829016888838
1735578397824,39,-81,982,986.1064851221697,9991,-3844,7430,13030.78343769092
1735578397854,39,-81,982,986.1064851221697,9953,-3792,5627,12045.937157398756
1735578397884,227,-95,1003,1032.7453703599933,9899,-3753,3834,11259.430092149425
1735578397914,227,-95,1003,1032.7453703599933,9732,-3777,2257,10680.430796554978
1735578397944,227,-95,1003,1032.7453703599933,9599,-3832,677,10357.767809716532
1735578397974,227,-95,1003,1032.7453703599933,9501,-3912,-903,10314.463340377919
1735578398004,239,-114,981,1016.1092460951234,9449,-3998,-2488,10557.355208573783
1735578398034,239,-114,981,1016.1092460951234,9428,-4092,-4071,11054.62296959964
1735578398064,239,-114,981,1016.1092460951234,9431,-4188,-5658,11768.435282568367
1735578398095,62,-128,956,966.5215983101464,9464,-4279,-7262,12673.349241617228
1735578398124,62,-128,956,966.5215983101464,9671,-4322,-9098,13963.57866021458
1735578398154,62,-128,956,966.5215983101464,9851,-4321,-10935,15339.08299084401
1735578398184,109,-78,958,967.3308637689588,9993,-4285,-12761,16764.97524603004
1735578398214,109,-78,958,967.3308637689588,10021,-4244,-14519,18144.78817732519
1735578398244,109,-78,958,967.3308637689588,10033,-4199,-16273,19573.022735387603
1735578398274,109,-78,958,967.3308637689588,10030,-4152,17975,20998.586357181284
1735578398304,176,-105,998,1018.825303965307,9992,-4114,16286,19544.791019604174
1735578398334,176,-105,998,1018.825303965307,9945,-4090,14623,18151.122665003397
1735578398365,176,-105,998,1018.825303965307,9901,-4076,12959,16810.093931920786
1735578398394,204,-113,974,1001.5293305739978,9859,-4071,11304,15541.986295194061
1735578398424,204,-113,974,1001.5293305739978,9817,-4077,9667,14368.239523337576
1735578398454,204,-113,974,1001.5293305739978,9784,-4092,8030,13302.331374612497
1735578398484,105,-111,953,965.1709693106191,9763,-4112,6387,12370.063944863017
1735578398514,105,-111,953,965.1709693106191,9820,-4112,4627,11608.189910576068
1735578398544,105,-111,953,965.1709693106191,9867,-4101,2867,11063.253544956837
1735578398574,105,-111,953,965.1709693106191,9901,-4080,1110,10766.071753429846
1735578398604,144,-93,990,1004.7313073653075,9891,-4061,-609,10709.551017666427
1735578398633,144,-93,990,1004.7313073653075,9865,-4048,-2314,10911.42176803738
1735578398664,144,-93,990,1004.7313073653075,9842,-4041,-4019,11373.082519704145
1735578398694,174,-100,982,1002.2973610660661,9812,-4042,-5708,12049.66273386936
1735578398724,174,-100,982,1002.2973610660661,9776,-4055,-7372,12898.045782210575
1735578398754,174,-100,982,1002.2973610660661,9750,-4074,-9038,13904.870369766128
1735578398784,109,-115,950,963.1230450986001,9736,-4098,-10707,15040.716372566832
1735578398814,109,-115,950,963.1230450986001,9790,-4105,-12455,16365.272683337727
1735578398844,109,-115,950,963.1230450986001,9836,-4101,-14202,17755.616041129073
1735578398874,109,-115,950,963.1230450986001,9872,-4088,-15947,19195.70100308921
1735578398904,121,-83,968,979.0577102500138,9875,-4073,-17682,20658.123777342415
1735578398934,121,-83,968,979.0577102500138,9864,-4061,16587,19721.023959216724
1735578398964,121,-83,968,979.0577102500138,9851,-4052,14857,18280.90134539323
1735578398994,154,-108,998,1015.5707754755451,9837,-4047,13142,16907.304397803928
1735578399024,154,-108,998,1015.5707754755451,9823,-4050,11452,15621.847938064178
1735578399054,154,-108,998,1015.5707754755451,9812,-4055,9762,14422.725574592341
1735578399084,162,-99,997,1014.9157600510498,9804,-4061,8070,13331.730457821295
1735578399114,162,-99,997,1014.9157600510498,9784,-4068,6387,12372.107702408672
1735578399144,162,-99,997,1014.9157600510498,9770,-4080,4703,11585.22805127288
1735578399174,162,-99,997,1014.9157600510498,9762,-4094,3018,11007.53396542568
1735578399204,164,-107,964,983.6874503621565,9762,-4110,1330,10675.094566325864
1735578399234,164,-107,964,983.6874503621565,9768,-4125,-357,10609.283576189298
1735578399264,164,-107,964,983.6874503621565,9776,-4139,-2045,10811.268288225947
1735578399295,145,-115,964,981.6037897237358,9795,-4151,-3740,11276.543175991479
1735578399324,145,-115,964,981.6037897237358,9827,-4156,-5449,11980.56200685093
1735578399354,145,-115,964,981.6037897237358,9854,-4154,-7158,12868.333069982296
1735578399384,140,-94,980,994.402333062428,9874,-4147,-8864,13901.941626981463
1735578399414,140,-94,980,994.402333062428,9873,-4138,-10571,15044.773644026685
1735578399444,140,-94,980,994.402333062428,9870,-4130,-12278,16285.67112525609
1735578399474,140,-94,980,994.402333062428,9866,-4122,-13985,17604.234291783327
1735578399504,147,-111,957,974.5660572788281,9870,-4113,-15692,18988.747536370058
1735578399534,147,-111,957,974.5660572788281,9874,-4104,-17396,20419.586381707148
1735578399564,147,-111,957,974.5660572788281,9875,-4094,16899,19996.316210742418
1735578399595,144,-110,985,1001.5293305739978,9873,-4084,15198,18577.7928990502
1735578399624,144,-110,985,1001.5293305739978,9869,-4074,13496,17208.62147297104
1735578399654,144,-110,985,1001.5293305739978,9863,-4065,11795,15903.616538385224
1735578399684,154,-105,981,998.5499486755783,9855,-4057,10094,14678.86610062235
1735578399714,154,-105,981,998.5499486755783,9835,-4055,8403,13556.572538809358
1735578399744,154,-105,981,998.5499486755783,9818,-4056,6711,12565.101710690606
1735578399774,154,-105,981,998.5499486755783,9805,-4061,5019,11739.680873005023
1735578399804,145,-104,981,997.0967856732866,9801,-4066,3318,11117.60230445396
1735578399834,145,-104,981,997.0967856732866,9801,-4071,1613,10734.72920012424
1735578399865,145,-104,981,997.0967856732866,9802,-4075,-91,10615.701107322117
1735578399895,154,-114,965,983.8378931511024,9802,-4080,-1789,10766.899507286209
1735578399924,154,-114,965,983.8378931511024,9803,-4086,-3480,11176.072879146772
1735578399954,154,-114,965,983.8378931511024,9805,-4091,-5170,11815.38006159768
1735578399984,155,-104,971,988.7780337365915,9811,-4097,-6863,12654.718448073036
1735578400014,155,-104,971,988.7780337365915,9813,-4102,-8559,13652.02746847515
1735578400044,155,-104,971,988.7780337365915,9815,-4107,-10256,14777.929827956283
1735578400074,155,-104,971,988.7780337365915,9819,-4111,-11953,16005.851773648286
1735578400104,147,-104,972,988.5388206843472,9825,-4113,-13655,17317.80641420847
1735578400134,147,-104,972,988.5388206843472,9831,-4114,-15361,18695.825148947024
1735578400164,147,-104,972,988.5388206843472,9836,-4113,-17066,20122.425822946894
1735578400194,136,-105,966,981.1610469234905,9843,-4110,17225,20260.241212779278
1735578400225,136,-105,966,981.1610469234905,9852,-4105,15511,18828.277935063525
1735578400255,136,-105,966,981.1610469234905,9859,-4098,13797,17445.649715616786
1735578400285,140,-104,968,983.5852784583551,9862,-4089,12084,16124.578165024968
1735578400314,140,-104,968,983.5852784583551,9859,-4082,10376,14883.681701783333
1735578400344,140,-104,968,983.5852784583551,9855,-4075,8668,13742.66618964457
1735578400374,140,-104,968,983.5852784583551,9850,-4070,6961,12729.608045811938
1735578400405,145,-110,968,984.9614205642778,9847,-4064,5254,11877.879482466557
1735578400434,145,-110,968,984.9614205642778,9843,-4058,3549,11222.629549263398
1735578400465,145,-110,968,984.9614205642778,9839,-4053,1845,10799.849767473619
1735578400494,149,-104,960,977.0450347860123,9830,-4049,142,10632.190037805005
1735578400524,149,-104,960,977.0450347860123,9816,-4048,-1557,10731.468166099176
1735578400554,149,-104,960,977.0450347860123,9805,-4049,-3257,11096.867801321236
1735578400584,154,-100,957,974.4562586386318,9799,-4054,-4960,11707.131031982173
1735578400614,154,-100,957,974.4562586386318,9796,-4065,-6662,12524.698998379163
1735578400644,154,-100,957,974.4562586386318,9796,-4076,-8366,13511.674507624879
1735578400674,154,-100,957,974.4562586386318,9798,-4087,-10070,14632.4732359229
1735578400704,166,-110,981,1001.0079919760881,9804,-4097,-11765,15853.045448745803
1735578400734,166,-110,981,1001.0079919760881,9810,-4106,-13457,17151.85660504425
1735578400764,166,-110,981,1001.0079919760881,9818,-4114,-15149,18515.13761763601
1735578400794,160,-98,979,996.8174356420537,9822,-4117,-16843,19927.56939518716
1735578400825,160,-98,979,996.8174356420537,9821,-4118,17457,20448.88295237664
1735578400855,160,-98,979,996.8174356420537,9820,-4119,15758,19018.757188628282
1735578400886,153,-105,982,999.3788070596654,9818,-4122,14061,17637.906026510063
1735578400915,153,-105,982,999.3788070596654,9825,-4127,12362,16321.20700193463
1735578400944,153,-105,982,999.3788070596654,9832,-4130,10663,15080.606519633087
1735578400974,153,-105,982,999.3788070596654,9838,-4132,8964,13936.031142330301
1735578401005,139,-110,960,976.2279446932463,9851,-4129,7255,12912.23710284163
1735578401035,139,-110,960,976.2279446932463,9864,-4121,5542,12041.382852480026
1735578401065,139,-110,960,976.2279446932463,9873,-4111,3830,11359.812938600706
1735578401094,149,-99,970,986.3579471976692,9873,-4100,2123,10899.231991291863
1735578401124,149,-99,970,986.3579471976692,9861,-4091,425,10684.39174684268
1735578401154,149,-99,970,986.3579471976692,9849,-4084,-1271,10737.657938302933
1735578401184,144,-99,976,991.5205494592636,9836,-4082,-2968,11055.254135477846
1735578401214,144,-99,976,991.5205494592636,9829,-4083,-4671,11623.182481575344
1735578401244,144,-99,976,991.5205494592636,9823,-4085,-6373,12401.35811111025
1735578401275,144,-99,976,991.5205494592636,9820,-4089,-8076,13355.676583385808
1735578401305,151,-105,974,991.2123889459816,9819,-4092,-9776,14447.401184988254
1735578401334,151,-105,974,991.2123889459816,9820,-4096,-11473,15647.343065198002
1735578401364,151,-105,974,991.2123889459816,9821,-4099,-13171,16933.076595822746
1735578401395,150,-98,982,998.212402247137,9821,-4100,-14870,18286.03130807776
1735578401425,150,-98,982,998.212402247137,9817,-4102,-16571,19692.58576215932
1735578401454,150,-98,982,998.212402247137,9815,-4104,17728,20675.082224745805
1735578401484,143,-106,971,987.180834497915,9813,-4107,16028,19236.92288283134
1735578401514,143,-106,971,987.180834497915,9823,-4111,14321,17846.083351817004
1735578401545,143,-106,971,987.180834497915,9832,-4112,12615,16514.08468550407
1735578401574,143,-106,971,987.180834497915,9839,-4112,10909,15255.187511138629
1735578401604,151,-106,971,988.3713876878468,9843,-4109,9207,14090.32927223491
1735578401634,151,-106,971,988.3713876878468,9844,-4107,7508,13043.84333699236
1735578401664,151,-106,971,988.3713876878468,9843,-4104,5809,12143.802781666047
1735578401694,145,-96,981,996.2941332759117,9840,-4101,4110,11425.230894822214
1735578401724,145,-96,981,996.2941332759117,9834,-4099,2406,10922.371216910731
1735578401755,145,-96,981,996.2941332759117,9828,-4099,702,10671.653526984466
1735578401783,156,-100,969,986.5581584478433,9824,-4099,-1001,10691.808920851514
1735578401814,156,-100,969,986.5581584478433,9815,-4104,-2692,10973.782620409427
1735578401844,156,-100,969,986.5581584478433,9810,-4110,-4383,11503.864089948212
1735578401874,151,-101,974,990.7966491667198,9808,-4117,-6076,12250.074652833753
1735578401904,151,-101,974,990.7966491667198,9813,-4121,-7777,13181.780570165776
1735578401934,151,-101,974,990.7966491667198,9818,-4124,-9478,14255.980639717494
1735578401964,151,-101,974,990.7966491667198,9823,-4126,-11179,15442.967525705673
1735578401994,148,-108,971,988.1341002110998,9831,-4129,-12879,16720.22257626973
1735578402024,148,-108,971,988.1341002110998,9841,-4128,-14581,18069.06821061894
1735578402054,148,-108,971,988.1341002110998,9849,-4126,-16282,19471.266034852484
1735578402084,148,-103,972,988.5833298210121,9855,-4123,-17983,20916.702488681145
1735578402114,148,-103,972,988.5833298210121,9854,-4118,16314,19498.867556860834
1735578402144,148,-103,972,988.5833298210121,9853,-4114,14613,18098.24229034411
1735578402174,152,-103,975,992.1380952266675,9851,-4110,12911,16751.96173586843
1735578402204,152,-103,975,992.1380952266675,9846,-4106,11213,15476.896361997131
1735578402234,152,-103,975,992.1380952266675,9841,-4103,9515,14290.385404179973
1735578402264,152,-103,975,992.1380952266675,9837,-4101,7818,13217.635718993015
1735578402294,146,-100,965,981.0917388297589,9833,-4101,6120,12286.597983168489
1735578402323,146,-100,965,981.0917388297589,9830,-4101,4419,11531.46400072428
1735578402354,146,-100,965,981.0917388297589,9828,-4102,2718,10991.065098524346
1735578402383,159,-106,964,982.7578542041778,9825,-4103,1020,10696.05693702123
1735578402414,159,-106,964,982.7578542041778,9821,-4106,-669,10665.778827633732
1735578402444,159,-106,964,982.7578542041778,9819,-4110,-2359,10902.740114301541
1735578402474,145,-106,969,985.5059614228622,9818,-4113,-4050,11389.13486617838
1735578402504,145,-106,969,985.5059614228622,9828,-4114,-5756,12109.752928941201
1735578402534,145,-106,969,985.5059614228622,9836,-4112,-7463,13013.524080740006
1735578402565,145,-106,969,985.5059614228622,9842,-4108,-9169,14064.536572528794
1735578402594,142,-107,971,987.1443663416208,9848,-4105,-10875,15234.820445282576
1735578402624,142,-107,971,987.1443663416208,9852,-4100,-12583,16498.599728461806
1735578402654,142,-107,971,987.1443663416208,9855,-4094,-14290,17834.96456402423
1735578402684,146,-101,977,992.9984894248329,9852,-4088,-15995,19225.339346809982
1735578402714,146,-101,977,992.9984894248329,9843,-4083,-17698,20658.52710141747
1735578402744,146,-101,977,992.9984894248329,9835,-4080,16599,19720.558460652173
1735578402774,153,-107,976,993.6971369587416,9828,-4080,14897,18307.282512705155
1735578402804,153,-107,976,993.6971369587416,9823,-4082,13203,16955.036478875532
1735578402834,153,-107,976,993.6971369587416,9820,-4085,11508,15670.152807168155
1735578402894,153,-107,976,993.6971369587416,9818,-4089,9813,14470.936873609808
1735578402894,146,-104,970,986.423843994051,9818,-4092,8114,13378.138286024703
1735578402924,146,-104,970,986.423843994051,9820,-4095,6413,12422.881871771944
1735578402954,146,-104,970,986.423843994051,9821,-4097,4711,11637.48129966274
1735578402984,147,-105,970,986.678265697588,9823,-4098,3008,11060.424811009747
1735578403015,147,-105,970,986.678265697588,9825,-4099,1304,10725.336451599083
1735578403045,147,-105,970,986.678265697588,9827,-4099,-398,10655.052041168077
1735578403074,152,-100,967,983.9679872841392,9828,-4099,-2100,10853.634644670881
1735578403105,152,-100,967,983.9679872841392,9822,-4102,-3794,11300.111680864044
1735578403134,152,-100,967,983.9679872841392,9818,-4105,-5489,11973.857774334887
1735578403164,152,-100,967,983.9679872841392,9815,-4110,-7184,12838.8543492011
1735578403194,153,-112,973,991.3031826842886,9822,-4113,-8881,13865.807369208618
1735578403224,153,-112,973,991.3031826842886,9831,-4115,-10578,15015.853955070288
1735578403254,153,-112,973,991.3031826842886,9839,-4115,-12275,16260.835495139849
1735578403284,148,-103,974,990.5498473070398,9843,-4113,-13972,17578.913561423527
1735578403314,148,-103,974,990.5498473070398,9842,-4110,-15672,18957.021073997887
1735578403344,148,-103,974,990.5498473070398,9840,-4108,-17371,20382.661872287437
1735578403374,157,-100,970,987.6988407404355,9839,-4105,16928,20005.35253375956
1735578403404,157,-100,970,987.6988407404355,9830,-4106,15237,18591.780576372992
1735578403434,157,-100,970,987.6988407404355,9823,-4107,13545,17228.633230758613
1735578403464,157,-100,970,987.6988407404355,9818,-4111,11854,15931.43938883113
1735578403495,148,-102,971,987.496329107101,9818,-4114,10155,14711.972845271297
1735578403524,148,-102,971,987.496329107101,9822,-4115,8453,13596.25382228502
1735578403554,148,-102,971,987.496329107101,9825,-4117,6751,12611.753050230567
1735578403584,142,-100,966,981.4886652427525,9829,-4117,5047,11791.146636353904
1735578403614,142,-100,966,981.4886652427525,9833,-4117,3339,11170.787751989561
1735578403644,142,-100,966,981.4886652427525,9837,-4115,1631,10787.027162290822
1735578403674,147,-106,970,986.7851843233157,9840,-4113,-76,10665.277539754885
1735578403705,147,-106,970,986.7851843233157,9845,-4110,-1779,10815.773943643608
1735578403735,147,-106,970,986.7851843233157,9848,-4107,-3482,11223.853037170435
1735578403764,147,-106,970,986.7851843233157,9850,-4103,-5184,11863.00826097664
1735578403794,150,-112,977,994.7728383907554,9851,-4098,-6883,12696.908836405812
1735578403824,150,-112,977,994.7728383907554,9851,-4093,-8580,13689.822862257934
1735578403854,150,-112,977,994.7728383907554,9850,-4088,-10276,14809.808236435743
1735578403884,157,-97,974,991.3294104383265,9842,-4085,-11970,16026.012885306189
1735578403914,157,-97,974,991.3294104383265,9824,-4086,-13660,17314.790556053515
1735578403944,157,-97,974,991.3294104383265,9810,-4091,-15350,18670.695782428676
1735578403974,146,-106,977,993.5195015700497,9799,-4098,-17041,20080.081822542455
1735578404005,146,-106,977,993.5195015700497,9807,-4103,17254,20266.03991903697
1735578404034,146,-106,977,993.5195015700497,9815,-4107,15550,18841.554447550236
1735578404065,146,-106,977,993.5195015700497,9823,-4109,13847,17467.53042075496
1735578404094,148,-103,973,989.5665717878712,9827,-4110,12145,16154.350930941175
1735578404124,148,-103,973,989.5665717878712,9829,-4111,10444,14919.33973069854
1735578404154,148,-103,973,989.5665717878712,9831,-4111,8742,13783.01295073033
1735578404184,149,-101,973,989.5104850379303,9831,-4111,7042,12772.573977080736
1735578404214,149,-101,973,989.5104850379303,9829,-4112,5343,11919.120521246523
1735578404244,149,-101,973,989.5104850379303,9827,-4112,3645,11258.97410957144
1735578404274,153,-94,977,993.3649883099364,9827,-4113,1945,10829.11459907965
1735578404305,153,-94,977,993.3649883099364,9819,-4117,250,10650.115022853039
1735578404334,153,-94,977,993.3649883099364,9814,-4122,-1445,10742.13689169897
1735578404364,153,-94,977,993.3649883099364,9810,-4128,-3142,11097.236052278964
1735578404394,151,-100,970,986.7628894521723,9814,-4133,-4840,11697.088740366125
1735578404425,151,-100,970,986.7628894521723,9820,-4137,-6539,12502.227401547294
1735578404454,151,-100,970,986.7628894521723,9825,-4140,-8238,13473.487633126028
1735578404484,149,-105,970,986.9782165782586,9833,-4141,-9939,14581.477668604099
1735578404514,149,-105,970,986.9782165782586,9844,-4139,-11642,15797.842289376104
1735578404544,149,-105,970,986.9782165782586,9853,-4135,-13345,17095.872572056684
1735578404574,150,-103,972,988.8847253345559,9858,-4130,-15047,18456.68640357743
1735578404604,150,-103,972,988.8847253345559,9857,-4125,-16747,19865.49981752284
1735578404634,150,-103,972,988.8847253345559,9854,-4120,17552,20546.2507528746
1735578404664,150,-103,972,988.8847253345559,9851,-4115,15853,19112.640712366254
1735578404694,141,-104,977,992.5855126889572,9854,-4111,14147,17723.973764367853
1735578404724,141,-104,977,992.5855126889572,9857,-4105,12438,16392.538485542744
1735578404754,141,-104,977,992.5855126889572,9858,-4098,10729,15135.561073181265
1735578404784,144,-102,974,989.8565552644484,9856,-4092,9022,13974.322309149735
1735578404814,144,-102,974,989.8565552644484,9851,-4087,7318,12934.4073694932
1735578404844,144,-102,974,989.8565552644484,9845,-4083,5614,12046.240492369394
1735578404874,150,-109,978,995.4220210543867,9840,-4080,3910,11347.250768357946
1735578404905,150,-109,978,995.4220210543867,9837,-4078,2212,10876.102105074226
1735578404935,150,-109,978,995.4220210543867,9834,-4076,515,10657.699423421549
1735578404965,150,-109,978,995.4220210543867,9831,-4075,-1182,10707.535197233768
1735578404994,142,-101,976,991.433810196122,9826,-4075,-2884,11021.495225240538
1735578405024,142,-101,976,991.433810196122,9821,-4076,-4589,11581.22351049318
1735578405054,142,-101,976,991.433810196122,9818,-4078,-6295,12355.170294253334
1735578405084,144,-95,973,988.1750857009096,9814,-4080,-8001,13303.270161881252
1735578405114,144,-95,973,988.1750857009096,9809,-4083,-9706,14390.75418454502
1735578405144,144,-95,973,988.1750857009096,9806,-4087,-11412,15591.502461276783
1735578405174,152,-114,972,990.3958804437749,9803,-4092,-13118,16879.727397087903
1735578405205,152,-114,972,990.3958804437749,9812,-4097,-14815,18235.815802974103
1735578405234,152,-114,972,990.3958804437749,9820,-4100,-16511,19643.205466522006
1735578405264,152,-114,972,990.3958804437749,9827,-4101,17791,20734.218359996114
1735578405294,148,-109,974,991.1917069870995,9833,-4101,16092,19299.185319593158
1735578405324,148,-109,974,991.1917069870995,9836,-4100,14391,17906.919807716793
1735578405354,148,-109,974,991.1917069870995,9839,-4097,12690,16571.886736277193
1735578405384,143,-102,984,999.5544007206411,9840,-4095,10987,15307.148460768256
1735578405414,143,-102,984,999.5544007206411,9839,-4092,9281,14131.077312080633
1735578405444,143,-102,984,999.5544007206411,9837,-4089,7574,13071.03538362589
1735578405473,145,-103,973,989.122338237288,9835,-4087,5868,12159.943174209327
1735578405505,145,-103,973,989.122338237288,9832,-4086,4164,11432.520107132985
1735578405534,145,-103,973,989.122338237288,9829,-4085,2460,10924.654044865678
1735578405564,145,-103,973,989.122338237288,9827,-4085,757,10669.12381594665
1735578405594,146,-104,961,977.5750610566945,9825,-4085,-945,10682.26918777092
1735578405624,146,-104,961,977.5750610566945,9823,-4086,-2648,10963.513533534768
1735578405654,146,-104,961,977.5750610566945,9823,-4087,-4351,11494.611737679528
1735578405684,150,-106,975,992.1496862873062,9822,-4089,-6051,12239.534549973703
1735578405714,150,-106,975,992.1496862873062,9822,-4091,-7749,13162.635222477298
1735578405744,150,-106,975,992.1496862873062,9822,-4092,-9448,14229.57666271207
1735578405774,149,-112,977,994.6225414698785,9823,-4094,-11147,15411.287227224078
1735578405804,149,-112,977,994.6225414698785,9828,-4095,-12847,16685.44329647852
1735578405834,149,-112,977,994.6225414698785,9833,-4095,-14546,18028.94977529196
1735578405864,146,-98,972,987.7773028370311,9837,-4094,-16246,19428.32779731699
1735578405894,146,-98,972,987.7773028370311,9831,-4092,-17949,20870.065308953876
1735578405924,146,-98,972,987.7773028370311,9826,-4092,16348,19507.73805442343
1735578405954,146,-98,972,987.7773028370311,9821,-4092,14645,18101.727265650647
1735578405984,151,-102,972,988.9332636735403,9818,-4095,12946,16755.926265056194
1735578406014,151,-102,972,988.9332636735403,9815,-4098,11248,15480.482324527231
1735578406044,151,-102,972,988.9332636735403,9814,-4102,9551,14295.544795494854
1735578406074,150,-111,978,995.6430083117141,9814,-4106,7853,13222.837857283133
1735578406105,150,-111,978,995.6430083117141,9823,-4109,6154,12298.248899741784
1735578406135,150,-111,978,995.6430083117141,9831,-4111,4456,11550.100345884446
1735578406195,152,-104,972,989.2946982572988,9838,-4110,2757,11012.692359273458
1735578406195,152,-104,972,989.2946982572988,9837,-4110,1061,10713.747710301937
1735578406225,152,-104,972,989.2946982572988,9835,-4109,-634,10677.689918704325
1735578406255,152,-104,972,989.2946982572988,9834,-4109,-2331,10909.857835920686
1735578406284,151,-108,970,987.6056905465865,9835,-4109,-4027,11394.201814958344
1735578406314,151,-108,970,987.6056905465865,9837,-4108,-5724,12099.851610660355
1735578406344,151,-108,970,987.6056905465865,9839,-4107,-7420,12989.602380365613
1735578406374,147,-105,971,987.6613792186065,9840,-4105,-9120,14030.360829287321
1735578406405,147,-105,971,987.6613792186065,9842,-4102,-10823,15193.047653449916
1735578406434,147,-105,971,987.6613792186065,9842,-4099,-12527,16449.695863449877
1735578406464,148,-108,981,997.9624241423121,9842,-4096,-14229,17779.387531633365
1735578406494,148,-108,981,997.9624241423121,9842,-4093,-15929,19166.393870522435
1735578406524,148,-108,981,997.9624241423121,9842,-4091,-17629,20600.555477947677
1735578406554,148,-108,981,997.9624241423121,9841,-4088,16670,19784.99241849741
1735578406585,161,-104,975,993.6609079560291,9831,-4087,14979,18377.229687850126
1735578406615,161,-104,975,993.6609079560291,9820,-4090,13293,17025.40304956097
1735578406644,161,-104,975,993.6609079560291,9811,-4095,11607,15739.987134683433
1735578406674,154,-105,973,990.6916775667393,9807,-4101,9918,14538.300244526525
1735578406705,154,-105,973,990.6916775667393,9808,-4107,8224,13442.413808539
1735578406735,154,-105,973,990.6916775667393,9810,-4112,6530,12481.407933402385
1735578406765,149,-104,964,980.975534863128,9814,-4117,4835,11689.37594570386
1735578406794,149,-104,964,980.975534863128,9821,-4120,3133,11101.447202955118
1735578406824,149,-104,964,980.975534863128,9828,-4121,1431,10752.673435011406
1735578406854,149,-104,964,980.975534863128,9833,-4121,-270,10665.05649305244
1735578406884,151,-106,972,989.3538295271313,9837,-4120,-1967,10844.81710311428
1735578406914,151,-106,972,989.3538295271313,9840,-4118,-3664,11278.67102100243
1735578406944,151,-106,972,989.3538295271313,9842,-4116,-5360,11938.845002763039
1735578406974,153,-99,969,985.9873224337116,9841,-4114,-7057,12789.508434650645
1735578407004,153,-99,969,985.9873224337116,9835,-4114,-8753,13793.738797004966
1735578407034,153,-99,969,985.9873224337116,9830,-4115,-10449,14924.601368210811
1735578407064,145,-98,972,987.6299914441643,9826,-4116,-12145,16155.270254625888
1735578407094,145,-98,972,987.6299914441643,9827,-4117,-13849,17473.24866760615
1735578407124,145,-98,972,987.6299914441643,9828,-4118,-15554,18854.029383662262
1735578407154,145,-98,972,987.6299914441643,9829,-4118,-17258,20283.139032210966
1735578407184,145,-112,972,989.1172832379384,9838,-4117,17036,20098.786754428736
1735578407214,145,-112,972,989.1172832379384,9849,-4114,15333,18682.309439681165
1735578407244,145,-112,972,989.1172832379384,9856,-4108,13629,17313.75294383052
1735578407274,155,-103,967,984.7451446948088,9857,-4101,11929,16008.737957752946
1735578407305,155,-103,967,984.7451446948088,9846,-4097,10236,14781.908570952535
1735578407335,155,-103,967,984.7451446948088,9837,-4095,8542,13656.550003569715
1735578407364,147,-104,971,987.5555680568056,9829,-4094,6849,12660.129462213252
1735578407394,147,-104,971,987.5555680568056,9829,-4094,5148,11826.748538799664
1735578407424,147,-104,971,987.5555680568056,9829,-4094,3446,11191.290944301287
1735578407453,147,-104,971,987.5555680568056,9829,-4094,1745,10789.583031795066
1735578407485,144,-96,977,992.210159190078,9825,-4094,41,10643.92512187116
1735578407515,144,-96,977,992.210159190078,9821,-4095,-1662,10769.55477259854
1735578407544,144,-96,977,992.210159190078,9817,-4097,-3367,11157.759049199798
1735578407574,150,-103,976,992.8167001012825,9816,-4099,-5070,11783.910938224202
1735578407604,150,-103,976,992.8167001012825,9817,-4103,-6769,12610.608986087864
1735578407634,150,-103,976,992.8167001012825,9818,-4106,-8467,13599.354727339089
1735578407665,143,-100,971,986.554610754012,9820,-4109,-10166,14719.505324568485
1735578407694,143,-100,971,986.554610754012,9824,-4111,-11873,15949.276660714115
1735578407724,143,-100,971,986.554610754012,9828,-4112,-13579,17259.41392400101
1735578407754,143,-100,971,986.554610754012,9831,-4112,-15286,18633.810694541255
1735578407784,147,-100,972,988.1260041108118,9832,-4111,-16989,20054.791597022395
1735578407814,147,-100,972,988.1260041108118,9832,-4110,17308,20325.53044818265
1735578407845,147,-100,972,988.1260041108118,9832,-4110,15606,18897.289752766137
1735578407875,148,-107,980,996.8716065772963,9834,-4109,13903,17518.12906676966
1735578407905,148,-107,980,996.8716065772963,9839,-4107,12200,16202.264347923718
1735578407934,148,-107,980,996.8716065772963,9843,-4104,10497,14963.772051190836
1735578407964,149,-100,969,985.4755197365381,9845,-4101,8795,13823.684422034525
1735578407994,149,-100,969,985.4755197365381,9838,-4099,7097,12804.509127647181
1735578408024,149,-100,969,985.4755197365381,9832,-4099,5399,11942.329169806031
1735578408054,149,-100,969,985.4755197365381,9827,-4101,3701,11273.221855352622
1735578408084,146,-96,966,981.6761176681441,9823,-4101,2000,10830.95240502884
1735578408114,146,-96,966,981.6761176681441,9820,-4103,298,10646.868694597488
1735578408144,146,-96,966,981.6761176681441,9817,-4105,-1404,10732.927373275195
1735578408174,149,-103,976,992.666107006782,9817,-4109,-3106,11086.23497856689
1735578408205,149,-103,976,992.666107006782,9821,-4112,-4807,11681.944786721087
1735578408235,149,-103,976,992.666107006782,9824,-4114,-6509,12482.109316938384
1735578408264,143,-104,968,984.0167681498116,9828,-4115,-8210,13450.907367163005
1735578408294,143,-104,968,984.0167681498116,9836,-4115,-9918,14561.828353609995
1735578408324,143,-104,968,984.0167681498116,9842,-4112,-11625,15777.012803442862
1735578408354,143,-104,968,984.0167681498116,9846,-4109,-13333,17076.196473453918
1735578408384,143,-106,972,988.1644599964118,9850,-4104,-15039,18440.087770940787
1735578408414,143,-106,972,988.1644599964118,9853,-4099,-16744,19855.60238320661
1735578408444,143,-106,972,988.1644599964118,9854,-4093,17549,20538.290240426537
1735578408474,146,-102,966,982.2810188535661,9851,-4087,15846,19100.82422305383
1735578408505,146,-102,966,982.2810188535661,9843,-4084,14146,17710.816497270815
1735578408534,146,-102,966,982.2810188535661,9835,-4081,12446,16379.39870691229
1735578408565,142,-105,975,990.8652784309278,9829,-4081,10745,15123.45287955102
1735578408595,142,-105,975,990.8652784309278,9829,-4080,9037,13961.48308740873
1735578408624,142,-105,975,990.8652784309278,9830,-4079,7330,12922.694804103361
1735578408655,142,-105,975,990.8652784309278,9830,-4078,5622,12036.023762023735
1735578408684,153,-99,974,990.9016096464876,9822,-4079,3924,11336.123720214066
1735578408714,153,-99,974,990.9016096464876,9811,-4083,2229,10857.948747346341
1735578408744,153,-99,974,990.9016096464876,9804,-4088,534,10635.568438029064
1735578408774,147,-108,977,993.8822867925558,9803,-4094,-1162,10686.902685062683
1735578408805,147,-108,977,993.8822867925558,9811,-4099,-2864,11011.812657323951
1735578408834,147,-108,977,993.8822867925558,9818,-4101,-4566,11578.414442400997
1735578408864,152,-99,973,989.7646184825966,9825,-4103,-6269,12355.791961667208
1735578408894,152,-99,973,989.7646184825966,9820,-4105,-7966,13294.381557635541
1735578408924,152,-99,973,989.7646184825966,9817,-4108,-9664,14375.049530349452
1735578408954,152,-99,973,989.7646184825966,9815,-4112,-11361,15566.473267892121
1735578408984,151,-101,968,984.8989795913081,9815,-4116,-13059,16846.755236543326
1735578409014,151,-101,968,984.8989795913081,9816,-4120,-14758,18196.890393690897
1735578409044,151,-101,968,984.8989795913081,9819,-4123,-16457,19602.161589987976
1735578409074,145,-107,971,987.580376475758,9826,-4126,17840,20780.75436551811
1735578409105,145,-107,971,987.580376475758,9840,-4125,16134,19342.884505678052
1735578409134,145,-107,971,987.580376475758,9850,-4121,14428,17949.159451071795
1735578409164,152,-101,978,994.8813999668503,9858,-4116,12723,16613.137843285356
1735578409194,152,-101,978,994.8813999668503,9851,-4111,11027,15347.222908396163
1735578409224,152,-101,978,994.8813999668503,9845,-4108,9332,14173.422769394836
1735578409254,152,-101,978,994.8813999668503,9839,-4106,7636,13113.87254017668
1735578409284,145,-100,969,984.8786727308091,9837,-4104,5933,12198.765265386493
1735578409314,145,-100,969,984.8786727308091,9837,-4103,4228,11466.34911381997
1735578409344,145,-100,969,984.8786727308091,9836,-4102,2522,10951.42839998509
1735578409374,158,-104,974,992.197560972612,9832,-4101,823,10684.743983830404
1735578409405,158,-104,974,992.197560972612,9824,-4104,-865,10681.854567442866
1735578409434,158,-104,974,992.197560972612,9818,-4107,-2554,10944.564358621132
1735578409464,152,-106,973,990.489273036311,9814,-4112,-4244,11455.770423677319
1735578409494,152,-106,973,990.489273036311,9820,-4115,-5942,12193.153365721273
1735578409524,152,-106,973,990.489273036311,9825,-4117,-7639,13108.571051033747
1735578409555,158,-107,978,996.4421709261406,9829,-4118,-9336,14167.853083653854
1735578409584,158,-107,978,996.4421709261406,9830,-4120,-11027,15336.167350417118
1735578409614,158,-107,978,996.4421709261406,9830,-4122,-12719,16594.961434122106
1735578409644,158,-107,978,996.4421709261406,9832,-4123,-14410,17925.2741401631
1735578409674,144,-102,974,989.8565552644484,9836,-4122,-16111,19321.0274312729
1735578409705,144,-102,974,989.8565552644484,9841,-4119,-17817,20766.726535494225
1735578409734,144,-102,974,989.8565552644484,9845,-4116,16476,19629.672870427567
1735578409764,145,-106,974,990.4226370595535,9847,-4111,14770,18221.323497485027
1735578409794,145,-106,974,990.4226370595535,9851,-4107,13066,16870.981180713825
1735578409824,145,-106,974,990.4226370595535,9853,-4102,11363,15589.284204221822
1735578409854,156,-113,978,996.7893458499644,9853,-4096,9660,14393.554981310212
1735578409884,156,-113,978,996.7893458499644,9849,-4092,7971,13314.807771800537
1735578409914,156,-113,978,996.7893458499644,9845,-4090,6282,12373.99082753822
1735578409944,156,-113,978,996.7893458499644,9841,-4088,4593,11603.993881418586
1735578409974,139,-107,977,992.6222846581675,9843,-4084,2887,11040.76419456552
1735578410005,139,-107,977,992.6222846581675,9847,-4078,1176,10722.708100102325
1735578410034,139,-107,977,992.6222846581675,9848,-4072,-535,10670.075585486731
1735578410094,145,-106,966,982.5563597066582,9844,-4067,-2242,10884.456302452594
1735578410094,145,-106,966,982.5563597066582,9837,-4064,-3945,11351.02153993199
1735578410124,145,-106,966,982.5563597066582,9830,-4062,-5647,12042.315101341603
1735578410154,150,-101,969,985.7291717302476,9825,-4062,-7350,12924.89725297652
1735578410184,150,-101,969,985.7291717302476,9812,-4063,-9046,13950.391714930445
1735578410214,150,-101,969,985.7291717302476,9802,-4067,-10744,15101.431356000663
1735578410244,150,-101,969,985.7291717302476,9795,-4073,-12441,16349.612686543984
1735578410274,152,-104,969,986.3473019175345,9790,-4082,-14135,17672.1546224562
1735578410305,152,-104,969,986.3473019175345,9788,-4091,-15828,19054.312084145153
1735578410334,152,-104,969,986.3473019175345,9789,-4101,-17522,20485.68295175926
1735578410364,144,-109,974,990.6023420121719,9796,-4109,16777,19857.32172272988
1735578410394,144,-109,974,990.6023420121719,9811,-4113,15070,18446.609173503948
1735578410424,144,-109,974,990.6023420121719,9824,-4114,13364,17088.957487219635
1735578410454,145,-100,981,996.6875137173135,9835,-4113,11657,15796.507303831439
1735578410484,145,-100,981,996.6875137173135,9835,-4111,9953,14583.886827591607
1735578410514,145,-100,981,996.6875137173135,9835,-4110,8250,13478.940054766917
1735578410545,145,-100,981,996.6875137173135,9834,-4109,6546,12507.659773115032
1735578410574,150,-105,965,982.2168803273541,9835,-4107,4845,11707.634218748039
1735578410605,150,-105,965,982.2168803273541,9836,-4105,3145,11112.558031344539
1735578410634,150,-105,965,982.2168803273541,9836,-4103,1446,10755.111389474308
1735578410664,149,-98,974,990.1924055455081,9834,-4102,-252,10658.211106935347
1735578410694,149,-98,974,990.1924055455081,9828,-4103,-1951,10827.307790951543
1735578410724,149,-98,974,990.1924055455081,9824,-4104,-3650,11255.056285954326
1735578410754,142,-103,969,984.7507298804098,9820,-4107,-5349,11912.66762736206
1735578410786,142,-103,969,984.7507298804098,9827,-4107,-7058,12777.039641481902
1735578410815,142,-103,969,984.7507298804098,9833,-4107,-8766,13798.481583130804
1735578410844,142,-103,969,984.7507298804098,9838,-4105,-10474,14944.629302863286
1735578410874,152,-104,977,994.2077247738523,9836,-4104,-12174,16180.110877246794
1735578410905,152,-104,977,994.2077247738523,9832,-4104,-13870,17489.6523693297
1735578410935,152,-104,977,994.2077247738523,9829,-4105,-15566,18861.617693082426
1735578410964,154,-102,969,986.448680874986,9826,-4106,-17262,20282.65653212123
1735578410994,154,-102,969,986.448680874986,9822,-4108,17043,20095.05404322168
1735578411024,154,-102,969,986.448680874986,9819,-4110,15348,18677.95398323917
1735578411054,148,-96,966,981.9755597773296,9818,-4113,13654,17313.04736318826
1735578411084,148,-96,966,981.9755597773296,9817,-4116,11952,16005.163198168271
1735578411114,148,-96,966,981.9755597773296,9818,-4120,10250,14779.378336046479
1735578411144,148,-96,966,981.9755597773296,9819,-4123,8548,13655.775115312936
1735578411174,144,-101,971,986.8019051461139,9825,-4125,6843,12663.842189477884
1735578411205,144,-101,971,986.8019051461139,9832,-4125,5136,11834.793830058892
1735578411235,144,-101,971,986.8019051461139,9838,-4124,3429,11204.983757239454
1735578411265,149,-105,979,995.8247837847781,9842,-4122,1724,10808.701309593118
1735578411294,149,-105,979,995.8247837847781,9846,-4119,24,10672.884005740903
1735578411324,149,-105,979,995.8247837847781,9848,-4116,-1675,10804.17442473047
1735578411354,143,-110,979,995.4848065138915,9849,-4112,-3375,11193.836250365644
1735578411384,143,-110,979,995.4848065138915,9856,-4107,-5081,11824.751413877588
1735578411414,143,-110,979,995.4848065138915,9861,-4099,-6787,12653.240335977183
1735578411444,143,-110,979,995.4848065138915,9863,-4091,-8493,13643.536894808472
1735578411474,148,-100,973,989.2588134558115,9856,-4084,-10195,14756.619429937196
1735578411504,148,-100,973,989.2588134558115,9844,-4079,-11895,15969.771507444933
1735578411535,148,-100,973,989.2588134558115,9834,-4077,-13595,17267.12222693753
1735578411565,150,-102,981,997.6296908171889,9824,-4077,-15293,18628.17097838647
1735578411595,150,-102,981,997.6296908171889,9816,-4079,-16990,20041.262360440272
1735578411624,150,-102,981,997.6296908171889,9809,-4082,17312,20312.177357437584
1735578411654,153,-104,976,993.3785783879175,9805,-4087,15615,18885.704090660744
1735578411684,153,-104,976,993.3785783879175,9802,-4093,13921,17510.742245832986
1735578411714,153,-104,976,993.3785783879175,9801,-4099,12226,16196.804561394201
1735578411744,153,-104,976,993.3785783879175,9801,-4106,10531,14960.64163062534
1735578411774,154,-111,970,988.4012343173191,9809,-4112,8835,13826.86696254795
1735578411805,154,-111,970,988.4012343173191,9818,-4116,7139,12817.952293560778
1735578411835,154,-111,970,988.4012343173191,9826,-4118,5443,11963.88101746252
1735578411864,148,-101,965,981.4937595318678,9831,-4118,3746,11297.743181715541
1735578411894,148,-101,965,981.4937595318678,9832,-4118,2045,10853.947346472618
1735578411924,148,-101,965,981.4937595318678,9832,-4118,344,10665.105906647153
1735578411954,155,-99,974,991.2123889459816,9833,-4118,-1356,10746.373760483115
1735578411984,155,-99,974,991.2123889459816,9828,-4119,-3050,11084.14385507514
1735578412014,155,-99,974,991.2123889459816,9824,-4122,-4744,11662.220886263474
1735578412044,155,-99,974,991.2123889459816,9821,-4125,-6439,12447.023218424556
1735578412074,142,-109,974,990.313586698678,9832,-4126,-8143,13416.428325005132
1735578412105,142,-109,974,990.313586698678,9845,-4123,-9851,14524.646467298266
1735578412135,142,-109,974,990.313586698678,9856,-4117,-11559,15738.51663912454
1735578412164,139,-103,971,986.29153904918,9862,-4109,-13268,17034.75121626377
1735578412194,139,-103,971,986.29153904918,9864,-4100,-14979,18397.797069214565
1735578412223,139,-103,971,986.29153904918,9863,-4091,-16690,19813.408338799258
1735578412255,152,-104,972,989.2946982572988,9859,-4082,17599,20581.239175520994
1735578412285,152,-104,972,989.2946982572988,9845,-4078,15906,19145.624695997776
1735578412315,152,-104,972,989.2946982572988,9833,-4077,14213,17757.22914758944
1735578412345,152,-104,972,989.2946982572988,9823,-4079,12519,16427.261822957593
1735578412374,159,-98,979,996.6574135579386,9811,-4082,10829,15171.871539134518
1735578412405,159,-98,979,996.6574135579386,9799,-4089,9140,14009.993647393278
1735578412434,159,-98,979,996.6574135579386,9791,-4098,7451,12968.21830476338
1735578412464,145,-107,966,982.6647444576405,9791,-4108,5756,12077.701809533137
1735578412494,145,-107,966,982.6647444576405,9805,-4115,4050,11378.653259503077
1735578412525,145,-107,966,982.6647444576405,9818,-4119,2344,10902.000779673426
1735578412555,145,-104,971,987.2598442152906,9829,-4121,638,10677.027957254772
1735578412584,145,-104,971,987.2598442152906,9837,-4119,-1067,10717.799167739615
1735578412614,145,-104,971,987.2598442152906,9843,-4116,-2773,11023.412992354048
1735578412644,145,-104,971,987.2598442152906,9847,-4111,-4479,11572.604330918775
1735578412674,142,-113,976,992.7280594402478,9855,-4106,-6186,12338.835317808565
1735578412705,142,-113,976,992.7280594402478,9863,-4098,-7894,13281.099690914152
1735578412734,142,-113,976,992.7280594402478,9868,-4089,-9600,14361.662334145027
1735578412764,149,-103,969,985.7844591998801,9864,-4080,-11303,15546.7908264053
1735578412794,149,-103,969,985.7844591998801,9851,-4075,-13000,16812.133297116103
1735578412824,149,-103,969,985.7844591998801,9839,-4072,-14697,18149.074742256147
1735578412853,153,-109,971,989.0050555988073,9829,-4072,-16394,19543.634794991438
1735578412885,153,-109,971,989.0050555988073,9824,-4074,17911,20830.563434530522
1735578412914,153,-109,971,989.0050555988073,9820,-4077,16217,19391.890521555655
1735578412944,153,-109,971,989.0050555988073,9818,-4081,14522,17998.226829329604
1735578412974,152,-97,970,986.6169469454699,9808,-4084,12829,16657.105420810665
1735578413006,152,-97,970,986.6169469454699,9798,-4090,11134,15384.890639845315
1735578413035,152,-97,970,986.6169469454699,9792,-4098,9439,14204.63265980504
1735578413064,153,-102,970,987.2755441111666,9791,-4108,7743,13141.28585793643
1735578413094,153,-102,970,987.2755441111666,9795,-4116,6047,12224.961758631394
1735578413125,153,-102,970,987.2755441111666,9800,-4124,4350,11487.814239445204
1735578413155,154,-101,972,989.2931820244189,9807,-4131,2652,10967.019376293634
1735578413185,154,-101,972,989.2931820244189,9813,-4136,956,10691.8380552644
1735578413214,154,-101,972,989.2931820244189,9819,-4141,-739,10682.07671756761
1735578413245,154,-101,972,989.2931820244189,9825,-4145,-2436,10938.269790053635
1735578413274,143,-103,972,987.8471541691052,9837,-4145,-4141,11449.693227331463
1735578413305,143,-103,972,987.8471541691052,9850,-4141,-5850,12181.661668261846
1735578413334,143,-103,972,987.8471541691052,9859,-4135,-7558,13092.80222106788
1735578413364,151,-106,972,989.3538295271313,9864,-4128,-9263,14147.156922859094
1735578413394,151,-106,972,989.3538295271313,9864,-4122,-10960,15310.485949178752
1735578413424,151,-106,972,989.3538295271313,9862,-4116,-12658,16565.791982274797
1735578413454,159,-104,969,987.450251911457,9860,-4110,-14355,17893.51069522133
1735578413484,159,-104,969,987.450251911457,9850,-4107,-16043,19268.310719935984
1735578413515,159,-104,969,987.450251911457,9840,-4105,-17732,20690.588415992428
1735578413545,154,-107,970,987.9600194339849,9832,-4106,16578,19706.789286943727
1735578413574,154,-107,970,987.9600194339849,9832,-4106,14884,18304.66924038782
1735578413605,154,-107,970,987.9600194339849,9831,-4107,13189,16954.814390019135
1735578413634,154,-107,970,987.9600194339849,9830,-4107,11495,15672.631368088767
1735578413665,144,-110,970,986.7806240497429,9838,-4106,9792,14475.10773707747
1735578413694,144,-110,970,986.7806240497429,9846,-4103,8087,13385.734720216145
1735578413724,144,-110,970,986.7806240497429,9852,-4098,6381,12432.725726887085
1735578413754,139,-113,963,979.5197803005308,9856,-4091,4676,11650.836579404931
1735578413784,139,-113,963,979.5197803005308,9864,-4082,2965,11079.370243836063
1735578413814,139,-113,963,979.5197803005308,9868,-4072,1255,10748.657264979658
1735578413844,142,-116,979,996.0225901052646,9869,-4061,-454,10681.526014573012
1735578413874,142,-116,979,996.0225901052646,9866,-4051,-2158,10881.430099026506
1735578413905,142,-116,979,996.0225901052646,9862,-4042,-3861,11335.96616967429
1735578413934,142,-116,979,996.0225901052646,9856,-4034,-5564,12015.48950313719
1735578413964,152,-103,971,988.2074680956423,9836,-4030,-7260,12872.272371263747
1735578413995,152,-103,971,988.2074680956423,9814,-4033,-8952,13882.290481040944
1735578414024,152,-103,971,988.2074680956423,9797,-4039,-10644,15019.636014231502
1735578414054,149,-95,978,993.8360025678281,9783,-4048,-12339,16258.668887704183
1735578414084,149,-95,978,993.8360025678281,9770,-4059,-14036,17576.62302605367
1735578414114,149,-95,978,993.8360025678281,9762,-4072,-15735,18959.642744524488
1735578414144,153,-108,969,986.9316085727521,9759,-4086,-17434,20393.082969477666
1735578414174,153,-108,969,986.9316085727521,9767,-4101,16870,19920.075050059426
1735578414205,153,-108,969,986.9316085727521,9778,-4114,15175,18515.261407822465
1735578414234,153,-108,969,986.9316085727521,9789,-4125,13479,17161.689514730188
1735578414265,146,-100,975,990.9293617609683,9802,-4132,11776,15869.051767512765
1735578414295,146,-100,975,990.9293617609683,9814,-4137,10071,14657.912743634408
1735578414324,146,-100,975,990.9293617609683,9825,-4140,8366,13552.128283041007
1735578414354,149,-104,966,982.9409951772283,9834,-4140,6662,12578.92682226906
1735578414384,149,-104,966,982.9409951772283,9842,-4139,4961,11773.181643039405
1735578414414,149,-104,966,982.9409951772283,9849,-4135,3260,11168.197079206653
1735578414444,149,-95,972,987.9321839073773,9853,-4131,1560,10797.23899892931
1735578414474,149,-95,972,987.9321839073773,9849,-4127,-140,10679.631547951456
1735578414505,149,-95,972,987.9321839073773,9844,-4124,-1841,10830.558295858991
1735578414534,149,-95,972,987.9321839073773,9840,-4123,-3541,11241.148073039514
1735578414564,154,-101,977,994.2062160336758,9836,-4122,-5239,11882.125272862595
1735578414594,154,-101,977,994.2062160336758,9834,-4122,-6934,12719.22937917231
1735578414624,154,-101,977,994.2062160336758,9832,-4123,-8630,13716.568557769833
1735578414654,150,-109,972,989.5276651008803,9834,-4124,-10327,14844.59029411051
1735578414684,150,-109,972,989.5276651008803,9842,-4122,-12027,16078.077528112619
1735578414714,150,-109,972,989.5276651008803,9849,-4119,-13726,17388.848092958888
1735578414744,150,-108,982,999.243714015755,9853,-4115,-15426,18761.031688049567
1735578414774,150,-108,982,999.243714015755,9854,-4109,-17124,20179.60785050096
1735578414805,150,-108,982,999.243714015755,9854,-4104,17176,20222.737401252085
1735578414834,150,-108,982,999.243714015755,9852,-4099,15478,18799.79225949053
1735578414864,144,-114,968,985.2695062773433,9856,-4093,13777,17426.96514026467
1735578414894,144,-114,968,985.2695062773433,9860,-4085,12073,16114.097989028116
1735578414924,144,-114,968,985.2695062773433,9862,-4077,10371,14880.813620229237
1735578414953,159,-115,968,987.6892223771605,9858,-4070,8675,13747.75214353241
1735578414985,159,-115,968,987.6892223771605,9847,-4066,6990,12741.894089969514
1735578415015,159,-115,968,987.6892223771605,9837,-4065,5305,11892.595133106986
1735578415045,157,-104,974,992.0388097247003,9828,-4065,3619,11234.365580663645
1735578415075,157,-104,974,992.0388097247003,9813,-4068,1930,10796.688983202212
1735578415105,157,-104,974,992.0388097247003,9802,-4073,241,10617.279029958665
1735578415134,157,-104,974,992.0388097247003,9794,-4081,-1448,10708.58071828382
1735578415164,150,-104,968,985.0583739048159,9793,-4089,-3143,11068.026879259012
1735578415194,150,-104,968,985.0583739048159,9796,-4097,-4842,11670.132347150138
1735578415224,150,-104,968,985.0583739048159,9800,-4104,-6541,12476.678123603253
1735578415255,138,-102,964,979.1547375159863,9808,-4109,-8245,13455.882356798456
1735578415284,138,-102,964,979.1547375159863,9820,-4110,-9959,14577.591742122566
1735578415314,138,-102,964,979.1547375159863,9830,-4109,-11673,15804.167488355723
1735578415344,146,-105,978,994.3968020865715,9838,-4107,-13386,17112.530175283842
1735578415374,146,-105,978,994.3968020865715,9841,-4105,-15089,18476.31529824061
1735578415405,146,-105,978,994.3968020865715,9844,-4103,-16792,19892.466136706127
1735578415435,146,-105,978,994.3968020865715,9845,-4100,17504,20496.927599032984
1735578415464,154,-104,971,988.6217679173366,9840,-4098,15809,19066.82157571104
1735578415494,154,-104,971,988.6217679173366,9833,-4097,14117,17685.106361003316
1735578415524,154,-104,971,988.6217679173366,9827,-4097,12425,16362.639243105006
1735578415554,142,-100,965,980.5044619990263,9825,-4098,10726,15111.959006032275
1735578415584,142,-100,965,980.5044619990263,9827,-4098,9017,13952.412766256595
1735578415614,142,-100,965,980.5044619990263,9829,-4098,7309,12916.049163734242
1735578415644,147,-105,968,984.7121406786858,9830,-4097,5600,12032.219620668498
1735578415674,147,-105,968,984.7121406786858,9831,-4097,3899,11341.788703727469
1735578415705,147,-105,968,984.7121406786858,9832,-4096,2198,10875.506608889536
1735578415735,147,-105,968,984.7121406786858,9833,-4096,496,10663.541672446354
1735578415765,145,-99,970,985.7616344735678,9831,-4095,-1206,10717.836628723167
1735578415795,145,-99,970,985.7616344735678,9828,-4095,-2909,11037.250110421526
1735578415824,145,-99,970,985.7616344735678,9825,-4096,-4613,11601.190025165522
1735578415854,151,-112,974,991.9783263761361,9826,-4096,-6314,12377.159932714774
1735578415884,151,-112,974,991.9783263761361,9830,-4096,-8011,13325.998536695102
1735578415914,151,-112,974,991.9783263761361,9834,-4095,-9707,14411.885025908305
1735578415945,150,-105,967,984.1818937574496,9837,-4094,-11403,15606.274827773603
1735578415974,150,-105,967,984.1818937574496,9835,-4092,-13101,16885.138139796192
1735578416005,150,-105,967,984.1818937574496,9833,-4090,-14799,18232.563999613438
1735578416034,150,-105,967,984.1818937574496,9830,-4089,-16497,19634.149586880507
1735578416064,141,-107,968,984.0497954880129,9833,-4089,17797,20739.84134461978
1735578416094,141,-107,968,984.0497954880129,9838,-4087,16088,19295.428396384465
1735578416124,141,-107,968,984.0497954880129,9842,-4085,14380,17897.949295938906
1735578416154,145,-108,974,990.6386828708033,9844,-4081,12673,16557.893163080862
1735578416185,145,-108,974,990.6386828708033,9843,-4078,10969,15291.621692940224
1735578416215,145,-108,974,990.6386828708033,9842,-4075,9266,14118.404477843806
1735578416245,149,-102,973,989.6130556939919,9840,-4073,7563,13061.92550889799
1735578416274,149,-102,973,989.6130556939919,9828,-4073,5866,12148.61592939706
1735578416305,149,-102,973,989.6130556939919,9818,-4075,4169,11418.375979096152
1735578416335,149,-102,973,989.6130556939919,9811,-4079,2472,10908.929645020175
1735578416364,140,-104,963,978.6649069012335,9813,-4083,766,10656.106887602056
1735578416394,140,-104,963,978.6649069012335,9819,-4085,-943,10676.574122816739
1735578416424,140,-104,963,978.6649069012335,9823,-4086,-2652,10964.480334242931
1735578416454,150,-100,978,994.4767468372501,9824,-4086,-4358,11497.762217057718
1735578416484,150,-100,978,994.4767468372501,9818,-4088,-6055,12237.969316843379
1735578416514,150,-100,978,994.4767468372501,9813,-4091,-7753,13158.277204862345
1735578416544,149,-102,979,995.5129331153865,9810,-4095,-9451,14224.15290975178
1735578416574,149,-102,979,995.5129331153865,9810,-4101,-11149,15406.31370575064
1735578416605,149,-102,979,995.5129331153865,9811,-4106,-12848,16678.91066586784
1735578416634,149,-102,979,995.5129331153865,9813,-4111,-14547,18022.499798862533
1735578416665,151,-103,972,989.0369052770478,9816,-4115,-16245,19421.30546590522
1735578416695,151,-103,972,989.0369052770478,9819,-4119,-17944,20865.427338063317
1735578416724,151,-103,972,989.0369052770478,9823,-4122,16357,19520.08355514904
1735578416754,145,-109,969,985.8331501831332,9830,-4124,14656,18122.765020823947
1735578416784,145,-109,969,985.8331501831332,9842,-4122,12951,16780.47225199577
1735578416815,145,-109,969,985.8331501831332,9852,-4118,11246,15507.815577959393
1735578416845,152,-113,974,992.2444255323383,9858,-4112,9542,14322.655898959521
1735578416874,152,-113,974,992.2444255323383,9860,-4105,7845,13251.967778409364
1735578416904,152,-113,974,992.2444255323383,9860,-4099,6149,12321.996672617632
1735578416935,152,-113,974,992.2444255323383,9859,-4092,4453,11566.051789612564
1735578416965,149,-104,973,989.8211959743032,9852,-4087,2756,11016.397278602475
1735578416995,149,-104,973,989.8211959743032,9844,-4083,1059,10709.654803027033
1735578417025,149,-104,973,989.8211959743032,9836,-4082,-638,10668.489302614498
1735578417054,145,-104,969,985.2928498674898,9830,-4081,-2337,10897.019317226155
1735578417084,145,-104,969,985.2928498674898,9827,-4080,-4039,11381.118134875853
1735578417114,145,-104,969,985.2928498674898,9824,-4080,-5741,12087.864037951453
1735578417145,154,-104,970,987.6396103842737,9822,-4080,-7443,12981.384094155754
1735578417174,154,-104,970,987.6396103842737,9815,-4083,-9136,14016.833094533158
1735578417205,154,-104,970,987.6396103842737,9810,-4087,-10829,15172.570975282995
1735578417235,150,-104,970,987.0238092366365,9807,-4092,-12523,16423.983743294437
1735578417264,150,-104,970,987.0238092366365,9808,-4097,-14222,17755.212107998035
1735578417294,150,-104,970,987.0238092366365,9810,-4102,-15922,19146.085448467005
1735578417324,150,-104,970,987.0238092366365,9814,-4106,-17621,20583.329978407284
1735578417354,145,-98,972,987.6299914441643,9817,-4110,16676,19782.683463069414
1735578417384,145,-98,972,987.6299914441643,9819,-4112,14970,18369.055637130616
1735578417414,145,-98,972,987.6299914441643,9822,-4114,13265,17010.493966960512
1735578417444,149,-107,979,996.037649890806,9825,-4116,11559,15718.860073173246
1735578417474,149,-107,979,996.037649890806,9832,-4116,9858,14518.603376358209
1735578417505,149,-107,979,996.037649890806,9838,-4115,8158,13426.55700468292
1735578417534,156,-104,971,988.9352860526315,9843,-4113,6457,12469.73403886386
1735578417564,156,-104,971,988.9352860526315,9838,-4112,4764,11678.633652957866
1735578417594,156,-104,971,988.9352860526315,9834,-4112,3071,11092.661583226994
1735578417624,156,-104,971,988.9352860526315,9831,-4112,1379,10745.173148907374
1735578417654,147,-99,959,975.2389450796148,9829,-4113,-319,10659.632779791244
1735578417684,147,-99,959,975.2389450796148,9828,-4113,-2021,10843.928900541538
1735578417714,147,-99,959,975.2389450796148,9828,-4114,-3723,11286.067029749558
1735578417744,147,-105,975,991.5941710195759,9829,-4115,-5426,11957.589305541482
1735578417774,147,-105,975,991.5941710195759,9836,-4114,-7130,12826.098081645876
1735578417804,147,-105,975,991.5941710195759,9841,-4112,-8833,13848.31087172728
1735578417835,149,-110,973,990.4695856006887,9845,-4109,-10536,14993.838801321028
1735578417865,149,-110,973,990.4695856006887,9848,-4106,-12235,16233.84011871498
1735578417894,149,-110,973,990.4695856006887,9850,-4101,-13933,17549.050971491306
1735578417924,149,-110,973,990.4695856006887,9850,-4097,-15632,18925.309323760073
1735578417954,150,-105,973,990.0777747227739,9847,-4093,-17331,20348.94638550114
1735578417985,150,-105,973,990.0777747227739,9842,-4090,16969,20038.463638712426
1735578418014,150,-105,973,990.0777747227739,9838,-4088,15270,18619.10008566472
1735578418044,139,-99,978,992.7769135107847,9834,-4086,13568,17248.00208719839
1735578418074,139,-99,978,992.7769135107847,9831,-4084,11859,15936.232239773615
1735578418105,139,-99,978,992.7769135107847,9828,-4082,10149,14705.594479652973
1735578418134,155,-107,975,993.025175914488,9826,-4082,8440,13581.111883789192
1735578418164,155,-107,975,993.025175914488,9819,-4084,6747,12594.198108653047
1735578418194,155,-107,975,993.025175914488,9815,-4088,5054,11772.378052033497
1735578418224,155,-107,975,993.025175914488,9812,-4093,3361,11150.081344994753
1735578418254,139,-109,971,986.9361681486802,9820,-4095,1656,10767.718467716362
1735578418284,139,-109,971,986.9361681486802,9831,-4094,-53,10649.516702648998
1735578418314,139,-109,971,986.9361681486802,9839,-4091,-1763,10800.480128216523
1735578418344,146,-108,964,980.9566759036812,9844,-4086,-3472,11209.57251638081
1735578418374,146,-108,964,980.9566759036812,9844,-4082,-5175,11846.842828365709
1735578418405,146,-108,964,980.9566759036812,9843,-4078,-6879,12682.088708095367
1735578418435,152,-99,978,994.6803506654788,9841,-4074,-8581,13677.58450896941
1735578418464,152,-99,978,994.6803506654788,9825,-4074,-10276,14789.329836067624
1735578418494,152,-99,978,994.6803506654788,9812,-4077,-11970,16005.566937787615
1735578418524,152,-99,978,994.6803506654788,9803,-4083,-13665,17306.12385833408
1735578418554,153,-98,981,997.6843188103138,9796,-4090,-15360,18671.35013864825
1735578418584,153,-98,981,997.6843188103138,9792,-4099,-17056,20089.604301727795
1735578418614,153,-98,981,997.6843188103138,9790,-4108,17248,20253.722324550617
1735578418644,153,-108,967,984.9680197854142,9794,-4117,15551,18833.632841276267
1735578418674,153,-108,967,984.9680197854142,9805,-4123,13853,17465.47345479074
1735578418705,153,-108,967,984.9680197854142,9816,-4127,12155,16159.5176289393
1735578418734,141,-102,967,982.5344777665565,9826,-4130,10457,14931.712058568502
1735578418764,141,-102,967,982.5344777665565,9837,-4128,8746,13794.907357427233
1735578418794,141,-102,967,982.5344777665565,9845,-4124,7035,12783.685931686527
1735578418824,141,-102,967,982.5344777665565,9852,-4119,5324,11932.017474006649
1735578418854,143,-103,978,993.7514779863222,9857,-4114,3614,11275.923066427866
1735578418884,143,-103,978,993.7514779863222,9861,-4107,1904,10850.437134051328
1735578418914,143,-103,978,993.7514779863222,9862,-4101,196,10682.493201495614
1735578418944,145,-105,972,988.3491285977846,9859,-4093,-1509,10780.983767727323
1735578418974,145,-105,972,988.3491285977846,9854,-4086,-3212,11140.63086184979
1735578419005,145,-105,972,988.3491285977846,9849,-4081,-4914,11739.02713175159
1735578419035,152,-105,961,978.5959329570096,9843,-4076,-6617,12541.256476127102
1735578419064,152,-105,961,978.5959329570096,9833,-4076,-8311,13504.60610310423
1735578419094,152,-105,961,978.5959329570096,9824,-4077,-10006,14603.182564085131
1735578419124,152,-105,961,978.5959329570096,9818,-4080,-11702,15810.63970875309
1735578419154,154,-104,975,992.5507543697703,9810,-4084,-13395,17097.987630127704
1735578419184,154,-104,975,992.5507543697703,9805,-4089,-15088,18452.796265065088
1735578419214,154,-104,975,992.5507543697703,9802,-4096,-16781,19860.976335517847
1735578419244,145,-103,968,984.2042470950834,9803,-4102,17520,20490.866575135373
1735578419274,145,-103,968,984.2042470950834,9809,-4108,15815,19057.973921694826
1735578419305,145,-103,968,984.2042470950834,9816,-4112,14110,17673.553689057557
1735578419334,144,-102,975,990.8405522585357,9822,-4114,12405,16348.721815481478
1735578419364,144,-102,975,990.8405522585357,9829,-4115,10699,15100.035331084493
1735578419394,144,-102,975,990.8405522585357,9834,-4115,8994,13947.502177809472
1735578419423,144,-102,975,990.8405522585357,9838,-4113,7288,12915.802607658574
1735578419455,141,-107,974,989.9525241141617,9845,-4110,5580,12039.623125330792
1735578419485,141,-107,974,989.9525241141617,9853,-4105,3870,11353.833449544696
1735578419515,141,-107,974,989.9525241141617,9857,-4099,2161,10891.839651776003
1735578419545,151,-104,969,986.1936929427201,9856,-4092,457,10681.481591989006
1735578419574,151,-104,969,986.1936929427201,9847,-4087,-1238,10733.108682949223
1735578419605,151,-104,969,986.1936929427201,9838,-4084,-2935,11048.960358332362
1735578419634,145,-100,979,994.7190558142535,9831,-4083,-4631,11608.859160141448
1735578419664,145,-100,979,994.7190558142535,9826,-4083,-6335,12383.593581832376
1735578419695,145,-100,979,994.7190558142535,9821,-4083,-8038,13331.630582940708
1735578419725,145,-100,979,994.7190558142535,9818,-4084,-9742,14421.46816381744
1735578419754,139,-96,977,991.4968482047736,9815,-4085,-11450,15624.466390888361
1735578419785,139,-96,977,991.4968482047736,9814,-4087,-13161,16918.33579286095
1735578419814,139,-96,977,991.4968482047736,9813,-4089,-14872,18280.89915731718
1735578419844,145,-109,975,991.7313144193845,9816,-4091,-16582,19699.057363234413
1735578419874,145,-109,975,991.7313144193845,9824,-4092,17711,20662.40453093492
1735578419905,145,-109,975,991.7313144193845,9831,-4091,16004,19222.717237685207
1735578419934,155,-107,968,986.1531321250266,9836,-4090,14299,17830.77107138107
1735578419964,155,-107,968,986.1531321250266,9828,-4090,12608,16500.88930936754
1735578419994,155,-107,968,986.1531321250266,9822,-4093,10917,15244.842472128073
1735578420024,155,-107,968,986.1531321250266,9818,-4096,9226,14081.527473963895
1735578420054,146,-104,973,989.3740445352304,9820,-4099,7526,13033.605679166452
1735578420085,146,-104,973,989.3740445352304,9823,-4101,5823,12133.295471552648
1735578420114,146,-104,973,989.3740445352304,9826,-4102,4120,11417.139746889323
1735578420144,158,-110,966,984.9974619256641,9828,-4103,2420,10921.56550133725
1735578420175,158,-110,966,984.9974619256641,9827,-4105,730,10674.917048858038
1735578420205,158,-110,966,984.9974619256641,9827,-4107,-960,10693.87572398333
1735578420234,149,-108,971,988.2843720306417,9828,-4109,-2652,10977.548405723384
1735578420264,149,-108,971,988.2843720306417,9834,-4109,-4353,11512.603788891547
1735578420295,149,-108,971,988.2843720306417,9839,-4108,-6054,12261.015496279253
1735578420325,149,-108,971,988.2843720306417,9842,-4105,-7755,13185.447053475282
1735578420354,145,-101,973,988.9160732842803,9842,-4102,-9459,14253.562677450154
1735578420385,145,-101,973,988.9160732842803,9841,-4099,-11164,15436.38487470431
1735578420415,145,-101,973,988.9160732842803,9839,-4097,-12870,16710.123578238432
1735578420445,141,-106,969,984.9253778840304,9838,-4094,-14575,18054.852671788823
1735578420475,141,-106,969,984.9253778840304,9842,-4091,-16282,19460.338357798406
1735578420505,141,-106,969,984.9253778840304,9843,-4088,-17988,20908.480026056415
1735578420534,149,-99,976,992.2590387595368,9844,-4083,16304,19478.08103997927
1735578420564,149,-99,976,992.2590387595368,9833,-4082,14606,18074.452937779333
1735578420594,149,-99,976,992.2590387595368,9823,-4082,12907,16725.57030417797
1735578420624,149,-99,976,992.2590387595368,9816,-4085,11208,15448.63570028111
1735578420654,153,-103,967,984.432323727741,9808,-4089,9513,14262.326388075684
1735578420684,153,-103,967,984.432323727741,9804,-4095,7819,13191.823300817821
1735578420714,153,-103,967,984.432323727741,9801,-4102,6124,12263.334823774487
1735578420744,151,-106,961,978.5489257058126,9803,-4109,4428,11514.76764854593
1735578420774,151,-106,961,978.5489257058126,9810,-4114,2729,10982.191812202153
1735578420805,151,-106,961,978.5489257058126,9816,-4119,1031,10694.997802711321
1735578420834,145,-112,974,991.0827412481765,9823,-4122,-667,10673.663944494412
1735578420865,145,-112,974,991.0827412481765,9838,-4121,-2373,10927.031344331359
1735578420894,145,-112,974,991.0827412481765,9849,-4118,-4078,11427.63356955411
1735578420924,145,-112,974,991.0827412481765,9858,-4112,-5783,12146.266792722774
1735578420954,145,-95,976,991.2749366346352,9856,-4106,-7487,13040.519199786488
1735578420984,145,-95,976,991.2749366346352,9848,-4102,-9191,14081.334773379973
1735578421014,145,-95,976,991.2749366346352,9841,-4099,-10895,15242.969100539436
1735578421044,150,-106,971,988.2191052595573,9835,-4098,-12596,16497.880015323182
1735578421075,150,-106,971,988.2191052595573,9833,-4097,-14293,17825.912234721676
1735578421105,150,-106,971,988.2191052595573,9832,-4097,-15991,19213.68559126541
1735578421135,148,-105,972,988.7937095269165,9830,-4097,-17688,20646.54094515592
1735578421164,148,-105,972,988.7937095269165,9830,-4097,16611,19731.691007108337
1735578421195,148,-105,972,988.7937095269165,9829,-4097,14910,18322.192827279163
1735578421224,152,-102,963,980.2433371362439,9829,-4097,13210,16967.579379510797
1735578421254,152,-102,963,980.2433371362439,9825,-4097,11513,15680.0893811228
1735578421284,152,-102,963,980.2433371362439,9821,-4099,9816,14477.834713796121
1735578421331,152,-102,963,980.2433371362439,9819,-4102,8119,13384.966417589549
1735578421344,148,-105,968,984.8619192556894,9820,-4105,6419,12429.279383777644
1735578421375,148,-105,968,984.8619192556894,9824,-4107,4717,11645.96556752595
1735578421406,148,-105,968,984.8619192556894,9829,-4108,3015,11071.365317791659
1735578421435,151,-103,975,991.9853829568257,9832,-4108,1313,10736.286927983994
1735578421465,151,-103,975,991.9853829568257,9830,-4108,-383,10660.73416796423
1735578421493,151,-103,975,991.9853829568257,9828,-4110,-2080,10853.94324658094
1735578421525,138,-105,973,988.3309162421259,9827,-4111,-3778,11302.36851283836
1735578421555,138,-105,973,988.3309162421259,9838,-4109,-5490,11992.090101396003
1735578421585,138,-105,973,988.3309162421259,9847,-4105,-7203,12872.359651594576
1735578421614,138,-105,973,988.3309162421259,9853,-4099,-8914,13904.7763736063
1735578421644,143,-104,972,987.9519219071341,9853,-4092,-10622,15054.997741613912
1735578421674,143,-104,972,987.9519219071341,9850,-4086,-12327,16299.473150994789
1735578421705,143,-104,972,987.9519219071341,9846,-4080,-14032,17620.645277628173
1735578421735,153,-105,972,989.5544451923805,9841,-4076,-15737,19002.95308629688
1735578421765,153,-105,972,989.5544451923805,9830,-4075,-17430,20421.543159124874
1735578421794,153,-105,972,989.5544451923805,9820,-4076,16876,19946.066078302258
1735578421824,149,-99,977,993.2426692405033,9813,-4080,15183,18532.804914529264
1735578421854,149,-99,977,993.2426692405033,9807,-4084,13483,17165.30203637559
1735578421884,149,-99,977,993.2426692405033,9803,-4089,11784,15864.469294621866
1735578421914,149,-99,977,993.2426692405033,9802,-4095,10084,14647.023076379719
1735578421945,141,-103,973,988.5438786417121,9808,-4100,8378,13535.056261427213
1735578421974,141,-103,973,988.5438786417121,9817,-4103,6668,12556.684355354322
1735578422005,141,-103,973,988.5438786417121,9825,-4104,4959,11745.85552439668
1735578422034,150,-106,964,981.3419383680696,9830,-4104,3252,11137.64876443857
1735578422095,150,-106,964,981.3419383680696,9832,-4104,1554,10766.891659155859
1735578422096,150,-106,964,981.3419383680696,9834,-4103,-144,10656.58955763991
1735578422124,150,-106,967,984.2890835521849,9834,-4102,-1842,10813.275359482897
1735578422153,150,-106,967,984.2890835521849,9834,-4102,-3540,11227.892055056462
1735578422185,150,-106,967,984.2890835521849,9834,-4101,-5238,11872.758777975741
1735578422215,150,-106,967,984.2890835521849,9833,-4100,-6935,12711.888687366642
1735578422245,142,-106,969,985.0690331139234,9836,-4099,-8640,13718.538442560126
1735578422275,142,-106,969,985.0690331139234,9840,-4097,-10347,14855.013227863516
1735578422305,142,-106,969,985.0690331139234,9843,-4094,-12054,16091.74946983702
1735578422335,152,-102,973,990.0691895014206,9840,-4091,-13756,17400.845295559637
1735578422364,152,-102,973,990.0691895014206,9832,-4091,-15450,18764.514515435778
1735578422394,152,-102,973,990.0691895014206,9824,-4092,-17145,20179.357398093725
1735578422425,145,-103,978,994.0412466291326,9819,-4095,17160,20190.279492864876
1735578422455,145,-103,978,994.0412466291326,9820,-4097,15456,18764.480941395635
1735578422485,145,-103,978,994.0412466291326,9822,-4099,13752,17389.39300263238
1735578422514,145,-103,978,994.0412466291326,9824,-4101,12048,16077.421466143132
1735578422544,149,-105,973,989.926764967995,9825,-4102,10348,14847.159088525994
1735578422575,149,-105,973,989.926764967995,9827,-4104,8649,13719.254571586607
1735578422605,149,-105,973,989.926764967995,9828,-4105,6949,12717.279976472957
1735578422635,145,-105,973,989.3326033240793,9831,-4105,5249,11876.514092948317
1735578422664,145,-105,973,989.3326033240793,9834,-4104,3546,11230.51592759656
1735578422694,145,-105,973,989.3326033240793,9837,-4103,1843,10816.553378965038
1735578422724,151,-105,972,989.2471885226664,9839,-4101,140,10660.380950041139
1735578422754,151,-105,972,989.2471885226664,9836,-4100,-1555,10769.165287987737
1735578422784,151,-105,972,989.2471885226664,9833,-4100,-3251,11138.531770390566
1735578422814,151,-105,972,989.2471885226664,9831,-4100,-4947,11744.418674417222
1735578422844,150,-97,964,980.4106282573645,9825,-4101,-6645,12550.09366498912
1735578422875,150,-97,964,980.4106282573645,9819,-4103,-8343,13522.315593122355
1735578422905,150,-97,964,980.4106282573645,9814,-4106,-10042,14629.271888921881
1735578422934,145,-104,975,991.1942292003117,9815,-4110,-11743,15846.904240260936
1735578422964,145,-104,975,991.1942292003117,9822,-4112,-13447,17152.31870622745
1735578422994,145,-104,975,991.1942292003117,9828,-4113,-15151,18521.856116491133
1735578423024,144,-104,974,990.0646443540946,9833,-4113,-16856,19943.15406348755
1735578423054,144,-104,974,990.0646443540946,9839,-4110,17437,20438.859801857834
1735578423084,144,-104,974,990.0646443540946,9844,-4107,15731,19006.21335248029
1735578423114,144,-104,974,990.0646443540946,9846,-4103,14026,17621.20884048538
1735578423144,149,-110,976,993.4168309425808,9848,-4098,12325,16299.764814254222
1735578423174,149,-110,976,993.4168309425808,9848,-4093,10626,15054.820789368434
1735578423205,149,-110,976,993.4168309425808,9847,-4089,8927,13905.921724215192
1735578423234,145,-109,975,991.7313144193845,9846,-4084,7227,12878.365618353906
1735578423264,145,-109,975,991.7313144193845,9845,-4079,5525,12003.661566372155
1735578423294,145,-109,975,991.7313144193845,9843,-4075,3823,11318.374574116197
1735578423325,145,-102,980,995.906120073574,9840,-4071,2121,10858.051482655625
1735578423354,145,-102,980,995.906120073574,9831,-4069,419,10648.045970975145
1735578423385,145,-102,980,995.906120073574,9823,-4069,-1282,10709.417070970763
1735578423414,145,-102,980,995.906120073574,9816,-4070,-2984,11037.346239019595
1735578423444,146,-109,969,985.9807300348217,9815,-4073,-4686,11613.877474814344
1735578423474,146,-109,969,985.9807300348217,9816,-4075,-6387,12399.727819593461
1735578423505,146,-109,969,985.9807300348217,9817,-4077,-8088,13357.064123526547
1735578423535,150,-104,975,991.938002094889,9816,-4080,-9788,14450.09342530352
1735578423565,150,-104,975,991.938002094889,9812,-4084,-11485,15647.99108512016
1735578423594,150,-104,975,991.938002094889,9809,-4089,-13182,16932.26287298895
1735578423625,154,-97,977,993.807828506095,9809,-4093,-14880,18286.15678594056
1735578423655,154,-97,977,993.807828506095,9802,-4100,-16575,19688.063109407183
1735578423685,154,-97,977,993.807828506095,9797,-4107,17730,20668.854782014412
1735578423715,154,-97,977,993.807828506095,9795,-4115,16034,19234.45881744532
1735578423744,151,-107,970,987.4968354379673,9803,-4123,14336,17849.89731062899
1735578423774,151,-107,970,987.4968354379673,9815,-4128,12637,16524.78072471765
1735578423805,151,-107,970,987.4968354379673,9825,-4131,10937,15271.337695172613
1735578423834,152,-110,980,997.7995790738739,9836,-4131,9238,14112.147285229134
1735578423864,152,-110,980,997.7995790738739,9846,-4129,7539,13070.152179680235
1735578423894,152,-110,980,997.7995790738739,9854,-4124,5841,12174.808951273117
1735578423924,145,-108,971,987.6892223771605,9859,-4118,4144,11459.953795718375
1735578423954,145,-108,971,987.6892223771605,9862,-4111,2440,10959.606060438486
1735578423985,145,-108,971,987.6892223771605,9864,-4102,737,10708.317748367388
1735578424015,145,-108,971,987.6892223771605,9863,-4093,-964,10721.973419105272
1735578424044,147,-103,963,979.5851162609607,9856,-4086,-2665,10997.197688502285
1735578424074,147,-103,963,979.5851162609607,9848,-4081,-4365,11519.153180681295
1735578424105,147,-103,963,979.5851162609607,9839,-4077,-6065,12256.103581481351
1735578424134,146,-98,968,983.8414506413114,9830,-4076,-7765,13173.378496042691
1735578424165,146,-98,968,983.8414506413114,9820,-4077,-9465,14235.187178256561
1735578424195,146,-98,968,983.8414506413114,9812,-4080,-11166,15414.321263033284
1735578424225,145,-99,969,984.7776398761296,9807,-4084,-12867,16685.802168310638
1735578424253,145,-99,969,984.7776398761296,9806,-4088,-14571,18032.842842990674
1735578424285,145,-99,969,984.7776398761296,9806,-4093,-16276,19437.552855233604
1735578424315,145,-99,969,984.7776398761296,9807,-4097,-17980,20886.432390429916
1735578424344,149,-110,972,989.4872409485632,9813,-4101,16317,19477.1060221995
1735578424375,149,-110,972,989.4872409485632,9821,-4104,14617,18081.801514229715
1735578424405,149,-110,972,989.4872409485632,9828,-4105,12917,16741.84870317493
1735578424435,144,-108,972,988.5261756777106,9835,-4106,11216,15472.075394076905
1735578424465,144,-108,972,988.5261756777106,9842,-4104,9511,14288.698366191373
1735578424494,144,-108,972,988.5261756777106,9847,-4102,7807,13218.890346772681
1735578424525,142,-99,979,994.1860992792043,9850,-4097,6102,12289.927298401728
1735578424555,142,-99,979,994.1860992792043,9846,-4092,4395,11532.74490310091
1735578424585,142,-99,979,994.1860992792043,9841,-4087,2688,10989.731297898052
1735578424614,142,-99,979,994.1860992792043,9836,-4084,981,10695.247215469122
1735578424645,151,-97,971,987.4467074227348,9826,-4084,-718,10665.123346684744
1735578424674,151,-97,971,987.4467074227348,9815,-4086,-2416,10902.599552400336
1735578424705,151,-97,971,987.4467074227348,9807,-4091,-4113,11394.309939614597
1735578424735,155,-108,977,995.0969801984127,9803,-4097,-5809,12109.033776482745
1735578424765,155,-108,977,995.0969801984127,9805,-4104,-7501,13009.452025354489
1735578424795,155,-108,977,995.0969801984127,9808,-4110,-9194,14057.688287908506
1735578424824,150,-104,967,984.0757084696279,9813,-4115,-10887,15223.500353072548
1735578424855,150,-104,967,984.0757084696279,9818,-4119,-12587,16486.110942244686
1735578424885,150,-104,967,984.0757084696279,9823,-4121,-14287,17821.12058766227
1735578424914,150,-104,967,984.0757084696279,9828,-4123,-15986,19213.04007698938
1735578424945,152,-113,971,989.2997523501156,9838,-4123,-17686,20653.812456783857
1735578424975,152,-113,971,989.2997523501156,9848,-4120,16613,19747.133285618955
1735578425005,152,-113,971,989.2997523501156,9855,-4115,14914,18343.43604671709
1735578425035,150,-107,975,992.2570231547872,9859,-4110,13216,16992.781908798806
1735578425065,150,-107,975,992.2570231547872,9858,-4105,11517,15705.810326118166
1735578425095,150,-107,975,992.2570231547872,9856,-4100,9819,14503.913161626417
1735578425125,151,-107,971,988.4791348329007,9853,-4095,8120,13408.394161867409
1735578425155,151,-107,971,988.4791348329007,9848,-4091,6424,12449.383960662472
1735578425185,151,-107,971,988.4791348329007,9843,-4088,4728,11659.776027008409
1735578425215,148,-100,966,982.3746739406508,9838,-4086,3032,11075.859515179849
1735578425245,148,-100,966,982.3746739406508,9828,-4085,1333,10726.308684724676
1735578425275,148,-100,966,982.3746739406508,9820,-4086,-365,10642.416126049573
1735578425305,148,-100,966,982.3746739406508,9814,-4088,-2065,10830.07686953329
1735578425335,158,-100,966,983.9308918821484,9805,-4093,-3757,11269.681583789314
1735578425364,158,-100,966,983.9308918821484,9798,-4100,-5447,11936.524326620374
1735578425394,158,-100,966,983.9308918821484,9793,-4109,-7136,12794.89062086894
1735578425424,150,-97,978,994.1795612463576,9792,-4119,-8827,13811.783157869226
1735578425454,150,-97,978,994.1795612463576,9797,-4127,-10528,14961.688474233113
1735578425485,150,-97,978,994.1795612463576,9803,-4134,-12229,16209.170429112033
1735578425514,154,-104,979,996.480305876639,9811,-4140,-13931,17534.767805705327
1735578425544,154,-104,979,996.480305876639,9822,-4146,-15628,18918.12316272415
1735578425574,154,-104,979,996.480305876639,9832,-4149,-17326,20348.776400560306
1735578425605,154,-104,979,996.480305876639,9842,-4151,16975,20056.08112269194
1735578425635,146,-99,970,985.9092250303777,9849,-4148,15273,18640.63394844714
1735578425695,146,-99,970,985.9092250303777,9854,-4143,13569,17273.781462088722
1735578425695,146,-99,970,985.9092250303777,9857,-4138,11864,15969.908860103116
1735578425725,147,-100,978,994.0286716186812,9859,-4132,10160,14747.844079729077
1735578425755,147,-100,978,994.0286716186812,9858,-4126,8457,13628.091906059337
1735578425785,147,-100,978,994.0286716186812,9857,-4120,6754,12639.278658214636
1735578425814,149,-97,962,978.2913676405409,9854,-4114,5051,11812.65901480272
1735578425844,149,-97,962,978.2913676405409,9848,-4109,3350,11184.34106239612
1735578425874,149,-97,962,978.2913676405409,9841,-4105,1649,10789.601799881217
1735578425905,149,-97,962,978.2913676405409,9835,-4103,-50,10656.656792822034
1735578425935,136,-104,979,993.8576356802819,9839,-4100,-1759,10803.240347229159
1735578425965,136,-104,979,993.8576356802819,9845,-4096,-3473,11214.409034808745
1735578425994,136,-104,979,993.8576356802819,9850,-4090,-5186,11859.392733188322
1735578426025,149,-111,979,996.4752882033754,9851,-4084,-6895,12698.90869326967
1735578426055,149,-111,979,996.4752882033754,9850,-4081,-8594,13694.301625128606
1735578426085,149,-111,979,996.4752882033754,9847,-4077,-10293,14816.584862916285
1735578426114,152,-114,969,987.4517709741575,9844,-4074,-11992,16040.881397230016
1735578426145,152,-114,969,987.4517709741575,9841,-4070,-13686,17341.18730075885
1735578426175,152,-114,969,987.4517709741575,9838,-4067,-15380,18704.842501341733
1735578426205,152,-114,969,987.4517709741575,9834,-4065,-17074,20118.480484370582
1735578426235,151,-97,961,977.6149548774303,9821,-4065,17231,20245.582900968795
1735578426265,151,-97,961,977.6149548774303,9806,-4069,15536,18817.058563973274
1735578426295,151,-97,961,977.6149548774303,9794,-4075,13841,17438.501713163318
1735578426325,149,-107,974,991.1236048041636,9791,-4084,12142,16123.613149663446
1735578426355,149,-107,974,991.1236048041636,9797,-4091,10442,14891.36843946855
1735578426384,149,-107,974,991.1236048041636,9803,-4097,8740,13757.609458041758
1735578426414,147,-107,984,1000.6567843171804,9810,-4102,7039,12751.863589295488
1735578426444,147,-107,984,1000.6567843171804,9817,-4105,5337,11904.120421097898
1735578426475,147,-107,984,1000.6567843171804,9823,-4107,3635,11250.422347627666
1735578426505,147,-107,984,1000.6567843171804,9829,-4107,1933,10826.5035445429
1735578426535,136,-106,977,992.0992893858961,9839,-4105,222,10663.312337168034
1735578426565,136,-106,977,992.0992893858961,9849,-4101,-1492,10772.514376875995
1735578426596,136,-106,977,992.0992893858961,9856,-4094,-3206,11143.60839225787
1735578426625,155,-105,972,989.8656474491879,9855,-4088,-4911,11745.24116397786
1735578426655,155,-105,972,989.8656474491879,9843,-4086,-6602,12536.604364819048
1735578426685,155,-105,972,989.8656474491879,9833,-4086,-8292,13495.945650453694
1735578426714,142,-94,972,986.8049452652738,9825,-4087,-9984,14591.588330267545
1735578426745,142,-94,972,986.8049452652738,9819,-4088,-11691,15805.18857843841
1735578426775,142,-94,972,986.8049452652738,9814,-4089,-13398,17103.827671021478
1735578426804,142,-94,972,986.8049452652738,9810,-4092,-15106,18470.83647266685
1735578426835,147,-104,969,985.5891639014707,9812,-4096,-16810,19890.416285236464
1735578426865,147,-104,969,985.5891639014707,9816,-4100,17486,20467.634255086738
1735578426894,147,-104,969,985.5891639014707,9821,-4104,15784,19037.58159536027
1735578426925,145,-101,963,979.0786485262561,9824,-4104,14080,17652.20076930919
1735578426955,145,-101,963,979.0786485262561,9826,-4104,12376,16326.618388386494
1735578426985,145,-101,963,979.0786485262561,9827,-4104,10671,15075.907468540658
1735578427015,149,-104,967,983.9237775356381,9827,-4103,8967,13921.624438261506
1735578427044,149,-104,967,983.9237775356381,9826,-4105,7269,12893.39606155027
1735578427074,149,-104,967,983.9237775356381,9826,-4106,5570,12018.0868693815
1735578427105,149,-104,967,983.9237775356381,9827,-4107,3871,11332.343932302796
1735578427134,154,-103,970,987.5348095130622,9826,-4108,2173,10869.5845826784
1735578427165,154,-103,970,987.5348095130622,9825,-4110,477,10660.687313677294
1735578427195,154,-103,970,987.5348095130622,9825,-4111,-1218,10719.816696194017
1735578427224,148,-103,974,990.5498473070398,9826,-4113,-2916,11044.007470116996
1735578427254,148,-103,974,990.5498473070398,9829,-4113,-4618,11612.576544419417
1735578427285,148,-103,974,990.5498473070398,9832,-4113,-6320,12390.617135558665
1735578427314,139,-108,974,989.7782579951936,9835,-4113,-8022,13341.532070942976
1735578427345,139,-108,974,989.7782579951936,9848,-4109,-9734,14443.605540168977
1735578427374,139,-108,974,989.7782579951936,9858,-4103,-11446,15653.296425992832
1735578427405,139,-108,974,989.7782579951936,9864,-4095,-13156,16945.43764557292
1735578427465,150,-106,971,988.2191052595573,9859,-4087,-14858,18293.813544474535
1735578427465,150,-106,971,988.2191052595573,9851,-4081,-16555,19691.74413301168
1735578427495,150,-106,971,988.2191052595573,9842,-4077,17747,20698.862335886966
1735578427525,140,-102,976,991.2517339202993,9835,-4074,16047,19256.970426315766
1735578427555,140,-102,976,991.2517339202993,9831,-4072,14339,17855.998039874445
1735578427585,140,-102,976,991.2517339202993,9826,-4070,12630,16511.574001287703
1735578427615,146,-106,974,990.5695331474717,9823,-4070,10922,15242.91025362283
1735578427645,146,-106,974,990.5695331474717,9820,-4070,9221,14072.105066407086
1735578427675,146,-106,974,990.5695331474717,9818,-4072,7519,13019.58789670395
1735578427705,146,-106,974,990.5695331474717,9817,-4073,5817,12116.117653770121
1735578427735,146,-102,963,979.3308940291836,9814,-4076,4115,11395.683261656583
1735578427765,146,-102,963,979.3308940291836,9811,-4079,2413,10895.711587592616
1735578427795,146,-102,963,979.3308940291836,9809,-4083,711,10648.609815370268
1735578427824,147,-100,979,995.0125627347627,9807,-4087,-990,10670.563152898725
1735578427855,147,-100,979,995.0125627347627,9805,-4091,-2691,10959.734805185753
1735578427885,147,-100,979,995.0125627347627,9805,-4097,-4393,11498.777456756
1735578427915,143,-102,968,983.8073998501942,9806,-4102,-6095,12252.8798655663
1735578427945,143,-102,968,983.8073998501942,9813,-4106,-7802,13191.869048773946
1735578427974,143,-102,968,983.8073998501942,9819,-4109,-9510,14273.638008580714
1735578428005,143,-102,968,983.8073998501942,9825,-4111,-11218,15468.49928079644
1735578428035,155,-103,969,986.7091770121528,9825,-4112,-12916,16741.03416757758
1735578428065,155,-103,969,986.7091770121528,9823,-4115,-14609,18078.92239598367
1735578428095,155,-103,969,986.7091770121528,9822,-4118,-16302,19472.66833281972
1735578428124,137,-104,975,990.0555539968452,9826,-4120,17996,20913.648462188514
1735578428155,137,-104,975,990.0555539968452,9839,-4119,16281,19463.890746713514
1735578428184,137,-104,975,990.0555539968452,9849,-4115,14567,18059.167062741293
1735578428214,155,-98,974,991.1130107106858,9856,-4109,12854,16710.772962373703
1735578428245,155,-98,974,991.1130107106858,9844,-4106,11160,15437.265690529524
1735578428275,155,-98,974,991.1130107106858,9834,-4106,9467,14254.503884737624
1735578428305,155,-98,974,991.1130107106858,9825,-4107,7773,13183.990405032917
1735578428335,147,-104,969,985.5891639014707,9826,-4109,6074,12260.816979304438
1735578428365,147,-104,969,985.5891639014707,9831,-4109,4372,11517.240381271895
1735578428395,147,-104,969,985.5891639014707,9834,-4109,2669,10987.03772633916
1735578428424,139,-103,971,986.29153904918,9838,-4107,963,10704.254387859062
1735578428454,139,-103,971,986.29153904918,9843,-4104,-748,10690.5083602231
1735578428486,139,-103,971,986.29153904918,9846,-4099,-2459,10944.962220126665
1735578428515,153,-103,968,985.4146335426525,9848,-4094,-4170,11451.324814186348
1735578428545,153,-103,968,985.4146335426525,9839,-4092,-5864,12162.930609026756
1735578428575,153,-103,968,985.4146335426525,9832,-4092,-7558,13058.945286660788
1735578428605,153,-103,968,985.4146335426525,9826,-4094,-9252,14103.567491950396
1735578428635,147,-110,972,989.1880508780927,9829,-4094,-10953,15275.414429729886
1735578428665,147,-110,972,989.1880508780927,9834,-4093,-12655,16541.137506229734
1735578428694,147,-110,972,989.1880508780927,9838,-4091,-14358,17879.448789042686
1735578428724,152,-100,981,997.7299233760607,9836,-4089,-16057,19268.992345216186
1735578428755,152,-100,981,997.7299233760607,9826,-4089,-17752,20697.915378124435
1735578428785,152,-100,981,997.7299233760607,9817,-4091,16552,19674.31000060739
1735578428815,150,-109,971,988.5453960238751,9811,-4095,14857,18268.96808799008
1735578428845,150,-109,971,988.5453960238751,9814,-4099,13159,16919.683153061702
1735578428875,150,-109,971,988.5453960238751,9819,-4103,11461,15639.753546651558
1735578428905,150,-109,971,988.5453960238751,9823,-4105,9763,14445.01723778826
1735578428935,151,-106,973,990.3363065141053,9826,-4107,8066,13359.568892745005
1735578428965,151,-106,973,990.3363065141053,9829,-4108,6368,12411.137296799194
1735578428995,151,-106,973,990.3363065141053,9831,-4109,4670,11633.629786098576
1735578429025,153,-103,972,989.3442272535884,9832,-4109,2973,11063.039094209149
1735578429055,153,-103,972,989.3442272535884,9831,-4110,1277,10731.793419554813
1735578429085,153,-103,972,989.3442272535884,9830,-4111,-418,10663.205193561644
1735578429115,140,-107,977,992.7628115516818,9828,-4112,-2113,10861.072552929569
1735578429145,140,-107,977,992.7628115516818,9838,-4111,-3823,11327.042597253707
1735578429174,140,-107,977,992.7628115516818,9846,-4108,-5533,12018.047636783605
1735578429205,154,-102,969,986.448680874986,9852,-4103,-7242,12897.405824428415
1735578429235,154,-102,969,986.448680874986,9843,-4100,-8935,13911.465559027201
1735578429295,154,-102,969,986.448680874986,9835,-4098,-10629,15049.799666440746
1735578429296,154,-102,969,986.448680874986,9828,-4098,-12322,16285.418999829264
1735578429325,150,-110,962,979.8183505119712,9829,-4099,-14019,17605.209541496515
1735578429355,150,-110,962,979.8183505119712,9832,-4100,-15717,18986.89845656736
1735578429385,150,-110,962,979.8183505119712,9836,-4099,-17415,20416.43754429259
1735578429415,152,-101,975,991.9324573780212,9838,-4099,16886,19968.10058568416
1735578429445,152,-101,975,991.9324573780212,9831,-4099,15189,18551.444229493292
1735578429475,152,-101,975,991.9324573780212,9825,-4101,13492,17186.70678169614
1735578429506,152,-104,969,986.3473019175345,9822,-4104,11795,15888.25116241558
1735578429535,152,-104,969,986.3473019175345,9823,-4106,10098,14673.791909387293
1735578429565,152,-104,969,986.3473019175345,9824,-4109,8400,13562.99587111933
1735578429595,152,-104,969,986.3473019175345,9826,-4110,6702,12584.084392596864
1735578429625,148,-108,978,995.0135677466916,9831,-4112,5002,11771.877887575967
1735578429655,148,-108,978,995.0135677466916,9837,-4111,3300,11160.505812910094
1735578429685,148,-108,978,995.0135677466916,9842,-4110,1598,10784.742370590036
1735578429715,158,-109,971,989.7908870059372,9843,-4107,-98,10665.913087963918
1735578429745,158,-109,971,989.7908870059372,9839,-4105,-1787,10809.732420370081
1735578429775,158,-109,971,989.7908870059372,9836,-4104,-3477,11210.675314181568
1735578429805,160,-105,969,987.7175709685437,9833,-4104,-5167,11841.815485811287
1735578429835,160,-105,969,987.7175709685437,9826,-4106,-6854,12664.392129115397
1735578429894,160,-105,969,987.7175709685437,9820,-4109,-8542,13648.518051422287
1735578429895,160,-105,969,987.7175709685437,9817,-4113,-10231,14763.590992709058
1735578429925,146,-96,972,987.5808827635334,9818,-4116,-11929,15988.609101482218
1735578429955,146,-96,972,987.5808827635334,9821,-4119,-13633,17299.62112301885
1735578429985,146,-96,972,987.5808827635334,9824,-4121,-15337,18673.970815014145
1735578430015,139,-95,965,979.5769495042235,9827,-4121,-17044,20101.0075866858
1735578430044,139,-95,965,979.5769495042235,9832,-4120,17243,20272.238973532254
1735578430075,139,-95,965,979.5769495042235,9836,-4117,15530,18838.192190335038
1735578430105,143,-102,974,989.7115741467309,9839,-4115,13818,17454.97837294564
1735578430135,143,-102,974,989.7115741467309,9842,-4113,12111,16138.712897873856
1735578430165,143,-102,974,989.7115741467309,9844,-4110,10403,14900.296809124307
1735578430195,143,-102,974,989.7115741467309,9846,-4107,8696,13763.414583598069
1735578430224,150,-100,967,983.6610188474483,9842,-4105,6995,12753.274638303685
1735578430255,150,-100,967,983.6610188474483,9836,-4105,5297,11901.938077472929
1735578430285,150,-100,967,983.6610188474483,9832,-4106,3600,11246.664394388232
1735578430315,153,-105,978,995.4486425727848,9829,-4107,1902,10821.011690225641
1735578430345,153,-105,978,995.4486425727848,9829,-4107,207,10654.554847575753
1735578430374,153,-105,978,995.4486425727848,9829,-4108,-1488,10756.34924126211
1735578430405,142,-107,968,984.1935785199983,9829,-4108,-3183,11118.29096579146
1735578430435,142,-107,968,984.1935785199983,9837,-4107,-4892,11728.83975506529
1735578430465,142,-107,968,984.1935785199983,9844,-4103,-6601,12542.413882502842
1735578430495,142,-107,968,984.1935785199983,9848,-4099,-8309,13521.256820281167
1735578430524,144,-105,971,987.2193272014076,9850,-4094,-10016,14632.279111608006
1735578430555,144,-105,971,987.2193272014076,9849,-4089,-11721,15846.279153164001
1735578430585,144,-105,971,987.2193272014076,9848,-4084,-13427,17144.867716025106
1735578430615,145,-106,976,992.3895404527398,9846,-4079,-15132,18508.35975984906
1735578430645,145,-106,976,992.3895404527398,9844,-4075,-16836,19923.876555530052
1735578430675,145,-106,976,992.3895404527398,9841,-4070,17460,20451.449361842304
1735578430705,145,-109,971,987.7990686369369,9837,-4067,15756,19014.6941600437
1735578430735,145,-109,971,987.7990686369369,9834,-4065,14054,17628.008877919252
1735578430765,145,-109,971,987.7990686369369,9831,-4064,12351,16300.670477007994
1735578430795,145,-109,971,987.7990686369369,9828,-4063,10648,15049.167983646139
1735578430825,150,-103,966,982.987792396223,9819,-4064,8950,13893.572506738503
1735578430855,150,-103,966,982.987792396223,9810,-4068,7253,12860.432846525811
1735578430886,150,-103,966,982.987792396223,9803,-4073,5556,11981.538882797986
1735578430915,152,-114,978,996.2850997580964,9801,-4079,3860,11295.903770836578
1735578430945,152,-114,978,996.2850997580964,9806,-4085,2166,10841.421355154498
1735578430975,152,-114,978,996.2850997580964,9811,-4089,471,10639.430576868293
1735578431005,152,-108,972,989.7231936253692,9817,-4093,-1223,10706.160236051019
1735578431035,152,-108,972,989.7231936253692,9819,-4096,-2918,11031.98536075896
1735578431065,152,-108,972,989.7231936253692,9821,-4098,-4614,11598.906888151141
1735578431095,152,-108,972,989.7231936253692,9824,-4101,-6310,12375.187958168555
1735578431125,149,-103,982,998.5659717815344,9823,-4103,-8009,13321.787380077794
1735578431155,149,-103,982,998.5659717815344,9822,-4105,-9710,14408.567208435403
1735578431185,149,-103,982,998.5659717815344,9822,-4107,-11410,15605.35911153601
1735578431215,149,-99,974,990.29187616581,9822,-4109,-13110,16888.68452544484
1735578431245,149,-99,974,990.29187616581,9821,-4111,-14810,18239.749504858886
1735578431275,149,-99,974,990.29187616581,9821,-4113,-16510,19645.582455096617
1735578431305,150,-107,966,983.4149683627965,9821,-4115,17789,20732.43321465187
1735578431336,150,-107,966,983.4149683627965,9827,-4117,16091,19298.70200298455
1735578431365,150,-107,966,983.4149683627965,9833,-4118,14393,17911.00951928729
1735578431394,150,-107,966,983.4149683627965,9838,-4117,12695,16580.07714095444
1735578431425,146,-103,969,985.3354758659611,9841,-4116,10993,15317.727834114301
1735578431455,146,-103,969,985.3354758659611,9843,-4113,9290,14145.865756467505
1735578431485,146,-103,969,985.3354758659611,9844,-4111,7587,13090.73053729241
1735578431514,150,-96,972,988.1801455200363,9842,-4108,5885,12180.880633189046
1735578431545,150,-96,972,988.1801455200363,9834,-4107,4186,11449.786067870438
1735578431575,150,-96,972,988.1801455200363,9827,-4107,2486,10936.981942016728
1735578431605,145,-99,976,991.6662745097263,9822,-4109,787,10675.904364502334
1735578431635,145,-99,976,991.6662745097263,9824,-4110,-917,10688.49685409506
1735578431665,145,-99,976,991.6662745097263,9825,-4111,-2622,10968.401433208031
1735578431695,145,-99,976,991.6662745097263,9827,-4111,-4327,11497.529256322856
1735578431725,147,-105,972,988.644526612068,9832,-4112,-6030,12244.903756257132
1735578431754,147,-105,972,988.644526612068,9837,-4111,-7732,13170.068868460787
1735578431785,147,-105,972,988.644526612068,9841,-4110,-9434,14238.600247215314
1735578431815,158,-108,974,992.6248032363487,9841,-4108,-11132,15415.65337570873
1735578431845,158,-108,974,992.6248032363487,9838,-4106,-12822,16674.80626574114
1735578431875,158,-108,974,992.6248032363487,9834,-4106,-14511,18003.7749652677
1735578431905,156,-106,972,990.129284487637,9831,-4107,-16201,19390.420598842098
1735578431935,156,-106,972,990.129284487637,9828,-4108,-17893,20823.65714758097
1735578431965,156,-106,972,990.129284487637,9826,-4110,16414,19566.853911653758
1735578431995,156,-106,972,990.129284487637,9825,-4113,14722,18170.984508275826
1735578432024,142,-104,964,979.9367326516544,9831,-4113,13018,16823.60407284955
1735578432054,142,-104,964,979.9367326516544,9838,-4111,11309,15542.845492380087
1735578432085,142,-104,964,979.9367326516544,9843,-4108,9600,14349.92379770708
1735578432115,139,-103,972,987.2760505552639,9847,-4104,7892,13269.8865481209
1735578432145,139,-103,972,987.2760505552639,9851,-4098,6182,12330.974373503499
1735578432175,139,-103,972,987.2760505552639,9852,-4092,4472,11567.417689354872
1735578432205,139,-107,979,994.590870659891,9851,-4086,2763,11016.885494548811
1735578432235,139,-107,979,994.590870659891,9850,-4080,1055,10713.63267057444
1735578432265,139,-107,979,994.590870659891,9849,-4074,-651,10678.205748158254
1735578432295,139,-107,979,994.590870659891,9846,-4069,-2358,10911.491236306796
1735578432325,152,-108,974,991.6874507625878,9839,-4066,-4058,11393.227856933257
1735578432355,152,-108,974,991.6874507625878,9830,-4066,-5753,12093.728333313924
1735578432385,152,-108,974,991.6874507625878,9823,-4067,-7448,12980.929165510457
1735578432415,157,-103,968,986.0436095832679,9814,-4070,-9141,14015.6119024465
1735578432444,157,-103,968,986.0436095832679,9803,-4075,-10830,15165.531114998907
1735578432475,157,-103,968,986.0436095832679,9796,-4082,-12520,16412.639641447076
1735578432505,149,-101,974,990.4938162351141,9790,-4091,-14210,17734.274188700252
1735578432535,149,-101,974,990.4938162351141,9791,-4100,-15908,19124.28155513299
1735578432566,149,-101,974,990.4938162351141,9794,-4108,-17606,20561.355402793855
1735578432595,149,-101,974,990.4938162351141,9799,-4116,16695,19791.03034205142
1735578432625,149,-98,971,987.2416117648202,9804,-4123,14993,18382.263027168337
1735578432656,149,-98,971,987.2416117648202,9809,-4128,13291,17026.671606629407
1735578432685,149,-98,971,987.2416117648202,9815,-4133,11589,15739.149754672264
1735578432715,147,-97,971,986.8429459645541,9821,-4135,9886,14535.586056296457
1735578432745,147,-97,971,986.8429459645541,9826,-4137,8182,13439.128282742151
1735578432775,147,-97,971,986.8429459645541,9831,-4137,6478,12479.09507937174
1735578432805,147,-101,969,985.2771183783778,9835,-4137,4775,11689.423381843948
1735578432835,147,-101,969,985.2771183783778,9842,-4135,3071,11108.29554882296
1735578432895,147,-101,969,985.2771183783778,9848,-4132,1368,10766.984350318338
1735578432896,147,-101,969,985.2771183783778,9851,-4129,-335,10686.583504563094
1735578432925,160,-119,979,999.1005955358049,9856,-4126,-2026,10875.168412489069
1735578432955,160,-119,979,999.1005955358049,9862,-4122,-3712,11314.984401226544
1735578432985,160,-119,979,999.1005955358049,9865,-4117,-5398,11975.237701189903
1735578433015,140,-100,974,989.0783588775968,9866,-4110,-7093,12827.342086340412
1735578433045,140,-100,974,989.0783588775968,9865,-4100,-8805,13843.996893960935
1735578433075,140,-100,974,989.0783588775968,9861,-4091,-10516,14985.388149794453
1735578433105,147,-104,970,986.5723490955947,9855,-4083,-12226,16225.504306492294
1735578433135,147,-104,970,986.5723490955947,9846,-4078,-13926,17535.88537827503
1735578433165,147,-104,970,986.5723490955947,9837,-4075,-15625,18908.00938755849
1735578433195,149,-110,979,996.364391174233,9830,-4075,-17325,20331.99818020846
1735578433225,149,-110,979,996.364391174233,9829,-4075,16978,20036.650169127573
1735578433255,149,-110,979,996.364391174233,9827,-4077,15282,18620.7245294054
1735578433286,149,-110,979,996.364391174233,9827,-4078,13586,17256.286072037634
1735578433315,144,-98,964,979.6101265299375,9821,-4078,11885,15947.89484540201
1735578433345,144,-98,964,979.6101265299375,9815,-4080,10182,14719.162646020322
1735578433375,144,-98,964,979.6101265299375,9810,-4082,8478,13593.20815701724
1735578433405,153,-107,970,987.8046365552249,9807,-4086,6775,12600.526576298309
1735578433435,153,-107,970,987.8046365552249,9806,-4092,5081,11777.888647801014
1735578433495,153,-107,970,987.8046365552249,9806,-4098,3386,11154.202616054632
1735578433495,152,-106,979,996.3839621350797,9809,-4104,1690,10766.401302199356
1735578433525,152,-106,979,996.3839621350797,9815,-4108,-7,10640.015883446791
1735578433555,152,-106,979,996.3839621350797,9820,-4111,-1706,10781.61198522744
1735578433585,152,-106,979,996.3839621350797,9825,-4112,-3404,11181.519798310066
1735578433615,131,-106,984,998.3250973505575,9839,-4111,-5116,11827.074786269004
1735578433645,131,-106,984,998.3250973505575,9854,-4104,-6835,12675.226112381586
1735578433674,131,-106,984,998.3250973505575,9865,-4095,-8553,13683.605482474273
1735578433705,145,-103,979,995.025125310914,9865,-4084,-10266,14811.753339831175
1735578433735,145,-103,979,995.025125310914,9854,-4077,-11969,16030.60217209572
1735578433765,145,-103,979,995.025125310914,9844,-4071,-13671,17331.290142398517
1735578433794,143,-103,972,987.8471541691052,9834,-4068,-15374,18698.022783171487
1735578433825,143,-103,972,987.8471541691052,9828,-4067,-17080,20121.045524524812
1735578433855,143,-103,972,987.8471541691052,9823,-4066,17214,20232.288081183502
1735578433885,143,-103,972,987.8471541691052,9819,-4067,15508,18800.300901847288
1735578433915,141,-104,970,985.6962006622527,9818,-4068,13801,17418.649459702665
1735578433945,141,-104,970,985.6962006622527,9818,-4070,12094,16100.399373928585
1735578433975,141,-104,970,985.6962006622527,9818,-4071,10386,14860.523577586357
1735578434005,150,-102,977,993.6966337871936,9815,-4073,8682,13722.269418722255
1735578434035,150,-102,977,993.6966337871936,9808,-4077,6986,12713.103043710453
1735578434065,150,-102,977,993.6966337871936,9804,-4083,5289,11864.35105684251
1735578434094,144,-106,969,985.3593253224938,9801,-4089,3593,11211.11818687146
1735578434125,144,-106,969,985.3593253224938,9808,-4094,1889,10794.7219047088
1735578434155,144,-106,969,985.3593253224938,9814,-4096,185,10636.072442400908
1735578434185,144,-106,969,985.3593253224938,9820,-4098,-1518,10748.503523746922
1735578434215,150,-100,968,984.644098139018,9818,-4101,-3219,11116.352189454956
1735578434245,150,-100,968,984.644098139018,9815,-4105,-4918,11720.579081257036
1735578434275,150,-100,968,984.644098139018,9814,-4109,-6616,12528.764224774925
1735578434305,154,-111,972,990.3640744695862,9816,-4114,-8314,13505.608020374351
1735578434335,154,-111,972,990.3640744695862,9824,-4117,-10008,14615.769873667277
1735578434365,154,-111,972,990.3640744695862,9831,-4118,-11703,15829.298594694586
1735578434395,150,-99,972,988.4760998628141,9838,-4118,-13398,17124.56049071041
1735578434425,150,-99,972,988.4760998628141,9836,-4117,-15098,18483.67357967566
1735578434455,150,-99,972,988.4760998628141,9834,-4116,-16798,19895.27119694527
1735578434485,150,-99,972,988.4760998628141,9833,-4116,17500,20490.9576398957
1735578434515,145,-104,971,987.2598442152906,9836,-4116,15798,19059.516153354994
1735578434545,145,-104,971,987.2598442152906,9840,-4115,14093,17674.033891559673
1735578434575,145,-104,971,987.2598442152906,9844,-4112,12389,16349.318059172989
1735578434605,151,-105,972,989.2471885226664,9845,-4108,10687,15100.054900562447
1735578434635,151,-105,972,989.2471885226664,9844,-4105,8989,13948.38635828532
1735578434665,151,-105,972,989.2471885226664,9842,-4101,7292,12917.291860138486
1735578434695,148,-104,970,986.7218453039337,9839,-4098,5594,12037.12428281772
1735578434725,148,-104,970,986.7218453039337,9837,-4097,3895,11345.616025584508
1735578434755,148,-104,970,986.7218453039337,9835,-4095,2195,10877.236551624681
1735578434785,148,-104,970,986.7218453039337,9833,-4094,495,10662.727137088335
1735578434815,145,-106,976,992.3895404527398,9834,-4093,-1207,10719.937219965423
1735578434844,145,-106,976,992.3895404527398,9836,-4092,-2911,11043.789250071733
1735578434875,145,-106,976,992.3895404527398,9837,-4090,-4615,11610.03419460942
1735578434905,148,-105,969,985.8448153741034,9836,-4089,-6318,12384.827047641804
1735578434935,148,-105,969,985.8448153741034,9833,-4088,-8018,13329.964628610234
1735578434965,148,-105,969,985.8448153741034,9831,-4087,-9719,14415.654372937775
1735578434995,159,-96,974,991.550805556629,9828,-4087,-11419,15610.468090355267
1735578435025,159,-96,974,991.550805556629,9811,-4091,-13107,16875.587426812734
1735578435056,159,-96,974,991.550805556629,9798,-4097,-14795,18212.035525992145
1735578435085,159,-96,974,991.550805556629,9789,-4107,-16484,19606.48428454219
1735578435115,144,-103,977,992.9118792722746,9796,-4116,17815,20743.126500120467
1735578435146,144,-103,977,992.9118792722746,9809,-4122,16109,19305.627314335063
1735578435175,144,-103,977,992.9118792722746,9821,-4126,14403,17914.305066063826
1735578435205,145,-109,971,987.7990686369369,9832,-4127,12697,16580.53563670366
1735578435235,145,-109,971,987.7990686369369,9845,-4124,10992,15321.731788541398
1735578435265,145,-109,971,987.7990686369369,9854,-4120,9287,14153.589120784876
1735578435295,149,-111,979,996.4752882033754,9861,-4114,7583,13102.14509154894
1735578435325,149,-111,979,996.4752882033754,9863,-4107,5885,12197.517903245725
1735578435355,149,-111,979,996.4752882033754,9863,-4100,4186,11472.199658304418
1735578435385,149,-111,979,996.4752882033754,9861,-4093,2488,10962.760327581735
1735578435415,153,-108,973,990.8592230988214,9854,-4086,793,10696.988407958568
1735578435445,153,-108,973,990.8592230988214,9846,-4081,-899,10696.096390739942
1735578435475,153,-108,973,990.8592230988214,9837,-4078,-2592,10959.704238710094
1735578435505,143,-103,966,981.9439902560634,9831,-4076,-4290,11474.599644432044
1735578435535,143,-103,966,981.9439902560634,9826,-4076,-5995,12210.81803156529
1735578435565,143,-103,966,981.9439902560634,9822,-4076,-7700,13129.183523738253
1735578435595,147,-104,972,988.5388206843472,9819,-4077,-9405,14194.672063841419
1735578435625,147,-104,972,988.5388206843472,9816,-4079,-11105,15372.479370615529
1735578435655,147,-104,972,988.5388206843472,9813,-4082,-12805,16641.085241053242
1735578435685,147,-104,972,988.5388206843472,9812,-4086,-14506,17983.180363884472
1735578435715,142,-108,978,994.1388233038683,9817,-4089,-16212,19388.717182939155
1735578435745,142,-108,978,994.1388233038683,9825,-4090,-17920,20841.907902109153
1735578435775,142,-108,978,994.1388233038683,9831,-4090,16371,19529.114214423553
1735578435805,152,-106,972,989.5069479291188,9833,-4089,14667,18125.360658480702
1735578435835,152,-106,972,989.5069479291188,9829,-4090,12972,16781.243249533094
1735578435865,152,-106,972,989.5069479291188,9826,-4092,11277,15506.94905518168
1735578435895,149,-101,969,985.5774956846367,9824,-4093,9581,14319.88777888989
1735578435925,149,-101,969,985.5774956846367,9819,-4095,7883,13240.97711651221
1735578435955,149,-101,969,985.5774956846367,9816,-4097,6184,12303.70354811916
1735578435985,149,-101,969,985.5774956846367,9814,-4100,4485,11542.955470762243
1735578436015,148,-104,972,988.6880195491397,9816,-4103,2784,10997.232424569374
1735578436045,148,-104,972,988.6880195491397,9819,-4106,1084,10697.992942603767
1735578436075,148,-104,972,988.6880195491397,9823,-4108,-616,10665.19802910382
1735578436105,143,-105,977,992.9768375949159,9828,-4109,-2319,10901.89093689714
1735578436135,143,-105,977,992.9768375949159,9835,-4107,-4027,11393.48072364192
1735578436165,143,-105,977,992.9768375949159,9840,-4104,-5734,12105.666937430586
1735578436195,148,-108,979,995.996485937576,9844,-4101,-7441,13003.500221094318
1735578436225,148,-108,979,995.996485937576,9845,-4098,-9141,14045.480055875627
