Timestamp,Acc_X,Acc_Y,Acc_Z,Acc_Betrag,Ori_X,Ori_Y,Ori_Z,Ori_Betrag
1735580191977,167,-41,954,969.3740248222045,9983,-4011,14140,17767.611263194613
1735580191977,167,-41,954,969.3740248222045,9877,-3948,12463,16384.999298138526
1735580192001,167,-41,954,969.3740248222045,9776,-3908,10785,15071.79037141905
1735580192032,167,-74,956,973.2938918949404,9695,-3894,9105,13858.473436854436
1735580192061,167,-74,956,973.2938918949404,9674,-3903,7419,12800.829894971654
1735580192091,167,-74,956,973.2938918949404,9658,-3917,5732,11894.354837484882
1735580192121,167,-74,956,973.2938918949404,9649,-3933,4045,11177.375139092363
1735580192151,223,-49,1122,1144.9951964964744,9584,-3952,2397,10640.34628195906
1735580192181,223,-49,1122,1144.9951964964744,9518,-3990,767,10348.94743440124
1735580192211,223,-49,1122,1144.9951964964744,9472,-4039,-864,10333.38284396741
1735580192241,194,-60,1037,1056.6953203265357,9437,-4091,-2458,10575.207515694432
1735580192271,194,-60,1037,1056.6953203265357,9428,-4145,-4066,11072.513942190364
1735580192300,194,-60,1037,1056.6953203265357,9434,-4199,-5677,11783.89943948946
1735580192331,142,-124,914,933.2395190946427,9443,-4254,-7291,12665.916705868549
1735580192362,142,-124,914,933.2395190946427,9539,-4294,-8970,13780.125434842746
1735580192391,142,-124,914,933.2395190946427,9629,-4316,-10649,14991.554222294631
1735580192421,142,-164,1010,1033.0343653528666,9720,-4315,-12349,16297.09869884821
1735580192451,142,-164,1010,1033.0343653528666,9850,-4282,-14085,17712.855472791507
1735580192481,142,-164,1010,1033.0343653528666,9946,-4224,-15814,19153.268337283847
1735580192511,142,-164,1010,1033.0343653528666,10008,-4147,-17535,20611.499169153125
1735580192572,93,14,878,883.0226497661314,9956,-4082,16743,19902.58046083472
1735580192572,93,14,878,883.0226497661314,9864,-4034,15005,18404.39287235523
1735580192601,93,14,878,883.0226497661314,9777,-4006,13267,16960.27871233253
1735580192631,137,-165,958,981.7117703277271,9699,-4001,11536,15593.521026375025
1735580192661,137,-165,958,981.7117703277271,9749,-4010,9868,14439.547257445436
1735580192691,137,-165,958,981.7117703277271,9792,-4008,8201,13386.699705304516
1735580192721,217,-17,1043,1065.4703186856027,9845,-3995,6515,12463.11658454658
1735580192751,217,-17,1043,1065.4703186856027,9747,-4001,4877,11610.217009169122
1735580192781,217,-17,1043,1065.4703186856027,9668,-4026,3238,10961.913336639731
1735580192811,217,-17,1043,1065.4703186856027,9609,-4065,1596,10554.82458404686
1735580192841,-32,-156,993,1005.6883214992605,9702,-4081,-180,10526.906715650139
1735580192872,-32,-156,993,1005.6883214992605,9865,-4047,-2046,10857.373070867558
1735580192901,-32,-156,993,1005.6883214992605,9986,-3977,-3903,11435.476990488853
1735580192931,217,-177,1033,1070.2836072742589,9991,-3901,-5634,12115.272923050476
1735580192961,217,-177,1033,1070.2836072742589,9880,-3868,-7169,12805.092151171737
1735580192991,217,-177,1033,1070.2836072742589,9782,-3856,-8706,13651.032781441849
1735580193021,269,-36,998,1034.2441684631342,9712,-3854,-10278,14656.518822694563
1735580193050,269,-36,998,1034.2441684631342,9531,-3875,-11862,15702.312886960315
1735580193081,269,-36,998,1034.2441684631342,9386,-3931,-13448,16864.11755770221
1735580193111,269,-36,998,1034.2441684631342,9278,-4013,-15038,18119.792962393363
1735580193141,138,-96,942,956.8824379201449,9314,-4090,-16735,19584.14973901088
1735580193171,138,-96,942,956.8824379201449,9407,-4145,17513,20307.088491460316
1735580193201,138,-96,942,956.8824379201449,9496,-4180,15759,18867.76343396323
1735580193231,304,-58,1015,1061.1338275637056,9554,-4197,14059,17508.546655847822
1735580193261,304,-58,1015,1061.1338275637056,9521,-4225,12481,16256.55027981029
1735580193291,304,-58,1015,1061.1338275637056,9501,-4259,10901,15074.477868238091
1735580193321,235,-6,898,928.2591233055563,9483,-4296,9331,13980.360009670709
1735580193351,235,-6,898,928.2591233055563,9473,-4330,7697,12951.078642337094
1735580193381,235,-6,898,928.2591233055563,9472,-4365,6061,12062.658496368038
1735580193411,235,-6,898,928.2591233055563,9481,-4400,4423,11349.55021135199
1735580193441,105,-106,979,990.3039937312178,9623,-4426,2690,10928.29835793295
1735580193471,105,-106,979,990.3039937312178,9800,-4406,908,10783.19525929119
1735580193501,105,-106,979,990.3039937312178,9938,-4352,-866,10883.64387509992
1735580193531,257,-94,1020,1056.0705468859549,9984,-4284,-2559,11161.60351383259
1735580193561,257,-94,1020,1056.0705468859549,9927,-4237,-4125,11554.787882085937
1735580193591,257,-94,1020,1056.0705468859549,9870,-4201,-5691,12143.013711595651
1735580193621,63,-109,1045,1052.556411789886,9819,-4179,-7259,12906.195527730084
1735580193651,63,-109,1045,1052.556411789886,9921,-4126,-9052,14049.513194413534
1735580193681,63,-109,1045,1052.556411789886,9990,-4054,-10837,15286.451026971565
1735580193711,63,-109,1045,1052.556411789886,10025,-3968,-12614,16593.933982030903
1735580193741,200,-125,1059,1084.9451599044073,9989,-3909,-14284,17863.17603339339
1735580193771,200,-125,1059,1084.9451599044073,9924,-3871,-15904,19141.77716409843
1735580193801,200,-125,1059,1084.9451599044073,9862,-3846,-17524,20472.941557089445
1735580193831,161,-60,969,984.1148306981254,9809,-3817,16820,19841.833836619033
1735580193861,161,-60,969,984.1148306981254,9745,-3792,15128,18390.233087157976
1735580193891,161,-60,969,984.1148306981254,9686,-3780,13435,16988.41431682192
1735580193921,279,-178,996,1049.543233983241,9607,-3797,11784,15670.810891590772
1735580193951,279,-178,996,1049.543233983241,9515,-3871,10349,14581.552283621933
1735580193981,279,-178,996,1049.543233983241,9452,-3960,8914,13582.389333250612
1735580194011,279,-178,996,1049.543233983241,9416,-4059,7477,12690.235064804749
1735580194041,203,-155,971,1004.0293820401871,9526,-4098,5761,11862.858045176128
1735580194071,203,-155,971,1004.0293820401871,9637,-4110,4016,11220.165996989528
1735580194101,203,-155,971,1004.0293820401871,9730,-4099,2272,10799.846526687312
1735580194131,210,99,1029,1054.8658682505563,9747,-4101,578,10590.38686734342
1735580194161,210,99,1029,1054.8658682505563,9637,-4138,-1091,10544.434266474424
1735580194191,210,99,1029,1054.8658682505563,9555,-4195,-2763,10794.916349838011
1735580194221,-47,-94,1068,1073.1584226012485,9496,-4255,-4468,11324.40130867853
1735580194251,-47,-94,1068,1073.1584226012485,9783,-4222,-6524,12493.796420624118
1735580194282,-47,-94,1068,1073.1584226012485,9999,-4124,-8563,13795.374079741368
1735580194311,-47,-94,1068,1073.1584226012485,10137,-3979,-10579,15182.438901573094
1735580194341,252,-70,985,1019.1314929880245,9964,-3880,-12261,16268.61447696146
1735580194371,252,-70,985,1019.1314929880245,9741,-3847,-13839,17355.241600162182
1735580194401,252,-70,985,1019.1314929880245,9551,-3857,-15421,18544.68363170426
1735580194431,56,-96,819,826.5065033016982,9475,-3869,-17066,19899.576427652926
1735580194461,56,-96,819,826.5065033016982,9518,-3854,17151,19990.058554191382
1735580194491,56,-96,819,826.5065033016982,9549,-3830,15370,18495.653570501367
1735580194521,206,-164,1154,1183.6587346021656,9580,-3830,13601,17071.394231286442
1735580194551,206,-164,1154,1183.6587346021656,9598,-3898,12012,15862.034926200358
1735580194581,206,-164,1154,1183.6587346021656,9629,-3962,10421,14731.338228416318
1735580194611,206,-164,1154,1183.6587346021656,9668,-4019,8828,13695.114785937356
1735580194641,213,-40,1101,1122.1274437424654,9660,-4038,7163,12685.80360087606
1735580194672,213,-40,1101,1122.1274437424654,9627,-4066,5500,11809.381228497961
1735580194701,213,-40,1101,1122.1274437424654,9606,-4101,3834,11126.229954481438
1735580194731,109,-119,993,1006.0273356127059,9616,-4118,2133,10675.910687149832
1735580194761,109,-119,993,1006.0273356127059,9701,-4104,356,10539.40003036226
1735580194791,109,-119,993,1006.0273356127059,9765,-4072,-1416,10674.336747545489
1735580194821,154,-175,963,990.8127976565503,9798,-4034,-3177,11061.974914091968
1735580194851,154,-175,963,990.8127976565503,9814,-4007,-4869,11665.239217435706
1735580194881,154,-175,963,990.8127976565503,9820,-3977,-6560,12461.241069813232
1735580194911,154,-175,963,990.8127976565503,9817,-3946,-8249,13416.050312964691
1735580194941,199,-68,898,922.2955057897658,9744,-3941,-9900,14439.079506672162
1735580194971,199,-68,898,922.2955057897658,9648,-3960,-11536,15551.360069138647
1735580195001,199,-68,898,922.2955057897658,9573,-3998,-13175,16769.226517642368
1735580195031,257,-178,1047,1092.6765303601976,9532,-4039,-14819,18076.92744909931
1735580195061,257,-178,1047,1092.6765303601976,9537,-4080,-16435,19434.762514628266
1735580195091,257,-178,1047,1092.6765303601976,9550,-4119,17947,20742.79320631626
1735580195121,238,-61,1027,1055.9801134491122,9572,-4148,16317,19366.81638783205
1735580195151,238,-61,1027,1055.9801134491122,9520,-4166,14643,17955.595367461363
1735580195182,238,-61,1027,1055.9801134491122,9482,-4194,12967,16602.441055459283
1735580195211,238,-61,1027,1055.9801134491122,9457,-4229,11288,15321.169472334675
1735580195241,93,-121,1026,1037.2878096266243,9531,-4253,9549,14146.072635187478
1735580195271,93,-121,1026,1037.2878096266243,9645,-4247,7755,13084.458681963117
1735580195301,93,-121,1026,1037.2878096266243,9735,-4217,5964,12170.563257302432
1735580195331,167,-153,971,997.0651934552725,9797,-4189,4225,11462.092086525914
1735580195361,167,-153,971,997.0651934552725,9828,-4167,2552,10975.708496493518
1735580195391,167,-153,971,997.0651934552725,9848,-4138,882,10718.398761009033
1735580195421,212,55,881,907.8160606642736,9856,-4094,-792,10701.814612485117
1735580195451,212,55,881,907.8160606642736,9650,-4062,-2431,10748.58618609908
1735580195481,212,55,881,907.8160606642736,9475,-4070,-4073,11087.373629494046
1735580195511,212,55,881,907.8160606642736,9333,-4111,-5719,11692.398000410352
1735580195541,194,-78,979,1001.0799168897556,9308,-4191,-7308,12554.29046183017
1735580195571,194,-78,979,1001.0799168897556,9344,-4265,-8908,13596.06652675692
1735580195601,194,-78,979,1001.0799168897556,9390,-4331,-10512,14745.568995464366
1735580195631,174,-158,838,870.3355674680887,9474,-4367,-12148,16012.534746254261
1735580195661,174,-158,838,870.3355674680887,9602,-4367,-13809,17376.926483126987
1735580195691,174,-158,838,870.3355674680887,9707,-4343,-15467,18770.071576848077
1735580195721,116,-6,1007,1013.676970242493,9806,-4315,-17122,20197.518288146195
1735580195751,116,-6,1007,1013.676970242493,9840,-4300,17154,20237.967190407242
1735580195781,116,-6,1007,1013.676970242493,9863,-4280,15434,18809.718897421088
1735580195810,116,-6,1007,1013.676970242493,9877,-4254,13716,17429.294334539194
1735580195841,108,-77,1041,1049.416028084191,9882,-4198,11959,16071.552787456476
1735580195871,108,-77,1041,1049.416028084191,9890,-4137,10204,14800.2866526294
1735580195901,108,-77,1041,1049.416028084191,9880,-4076,8454,13627.116055864499
1735580195931,79,-9,1003,1006.1466095952418,9848,-4015,6687,12562.615094000133
1735580195961,79,-9,1003,1006.1466095952418,9785,-3964,4897,11637.874805994436
1735580195990,79,-9,1003,1006.1466095952418,9721,-3928,3108,10935.569898272335
1735580196021,96,-18,1041,1045.5720922059845,9673,-3898,1302,10509.830493399977
1735580196051,96,-18,1041,1045.5720922059845,9648,-3864,-520,10405.99827022857
1735580196081,96,-18,1041,1045.5720922059845,9618,-3835,-2342,10615.936746232053
1735580196111,143,-125,955,973.7037537156771,9571,-3811,-4148,11105.569143452307
1735580196141,143,-125,955,973.7037537156771,9556,-3789,-5873,11839.163230566593
1735580196171,143,-125,955,973.7037537156771,9538,-3771,-7599,12764.743867387235
1735580196201,143,-125,955,973.7037537156771,9519,-3757,-9323,13843.581147954455
1735580196231,132,55,928,938.9531404708118,9441,-3779,-11001,14981.165608857009
1735580196261,132,55,928,938.9531404708118,9341,-3827,-12684,16210.615842712454
1735580196291,132,55,928,938.9531404708118,9270,-3895,-14371,17539.37188156976
1735580196321,49,-76,968,972.2144825088752,9226,-3969,-16071,18951.228931127396
1735580196351,49,-76,968,972.2144825088752,9363,-4010,-17887,20583.746937814798
1735580196381,49,-76,968,972.2144825088752,9485,-4020,16295,19278.29478973698
1735580196411,189,10,1040,1057.0813592150796,9575,-4004,14479,17814.434652831394
1735580196471,189,10,1040,1057.0813592150796,9462,-4010,12816,16427.397846281074
1735580196472,189,10,1040,1057.0813592150796,9370,-4039,11151,15114.735260665335
1735580196502,189,10,1040,1057.0813592150796,9302,-4084,9484,13897.932076391797
1735580196532,115,-4,982,988.7188680307462,9307,-4150,7775,12817.697687182359
1735580196561,115,-4,982,988.7188680307462,9347,-4207,6035,11894.809077912936
1735580196591,115,-4,982,988.7188680307462,9395,-4254,4290,11169.89888047336
1735580196621,103,-89,977,986.4375296996765,9431,-4288,2554,10670.221225447953
1735580196651,103,-89,977,986.4375296996765,9517,-4300,826,10475.951746738814
1735580196681,103,-89,977,986.4375296996765,9589,-4294,-900,10545.015742046096
1735580196711,176,27,938,954.7507528145762,9668,-4282,-2640,10898.410342797706
1735580196741,176,27,938,954.7507528145762,9622,-4292,-4322,11387.880926669368
1735580196771,176,27,938,954.7507528145762,9587,-4311,-6006,12106.4993288729
1735580196799,176,27,938,954.7507528145762,9563,-4337,-7691,13015.837237765383
1735580196831,136,-59,899,911.1410428687756,9605,-4344,-9413,14132.619360896973
1735580196861,136,-59,899,911.1410428687756,9672,-4334,-11149,15382.826170765891
1735580196891,136,-59,899,911.1410428687756,9724,-4311,-12883,16706.662922319345
1735580196921,161,-114,989,1008.4830191926883,9768,-4284,-14598,18079.493466355743
1735580196951,161,-114,989,1008.4830191926883,9813,-4251,-16286,19483.320199596372
1735580196981,161,-114,989,1008.4830191926883,9841,-4209,-17971,20916.9262321212
1735580197041,149,-36,884,897.1917297880092,9868,-4169,16339,19537.679135455164
1735580197042,149,-36,884,897.1917297880092,9852,-4140,14627,18114.928456938494
1735580197071,149,-36,884,897.1917297880092,9832,-4114,12916,16745.6345356036
1735580197101,149,-36,884,897.1917297880092,9809,-4093,11206,15444.855648402803
1735580197131,123,-143,950,968.5442684771822,9849,-4042,9438,14227.312079236894
1735580197161,123,-143,950,968.5442684771822,9899,-3975,7666,13136.147913296349
1735580197191,123,-143,950,968.5442684771822,9922,-3898,5900,12184.025935625712
1735580197221,244,-49,1097,1124.8759931654688,9859,-3835,4206,11384.091619448607
1735580197251,244,-49,1097,1124.8759931654688,9696,-3819,2612,10743.357063785974
1735580197281,244,-49,1097,1124.8759931654688,9558,-3835,1015,10348.565794350443
1735580197311,76,-40,881,885.1762536353989,9435,-3874,-572,10215.394510247757
1735580197341,76,-40,881,885.1762536353989,9418,-3906,-2323,10457.145356166759
1735580197371,76,-40,881,885.1762536353989,9412,-3941,-4077,10988.136966747366
1735580197401,76,-40,881,885.1762536353989,9416,-3976,-5834,11768.822710874694
1735580197431,265,-77,1062,1097.268426593967,9398,-4051,-7446,12656.06261836595
1735580197461,265,-77,1062,1097.268426593967,9369,-4139,-8991,13628.923765286825
1735580197491,265,-77,1062,1097.268426593967,9364,-4230,-10540,14719.680567186233
1735580197521,128,8,997,1005.2149023964975,9429,-4303,-12196,16005.13248929855
1735580197551,128,8,997,1005.2149023964975,9537,-4343,-13989,17478.791119525402
1735580197581,128,8,997,1005.2149023964975,9635,-4359,-15783,18998.347164950956
1735580197611,140,-6,989,998.8778704125946,9725,-4354,-17582,20558.688309325575
1735580197641,140,-6,989,998.8778704125946,9806,-4325,16628,19782.660210396378
1735580197671,140,-6,989,998.8778704125946,9863,-4282,14843,18328.36441147982
1735580197701,140,-6,989,998.8778704125946,9897,-4227,13064,16925.904229907483
1735580197731,9,-61,1050,1051.8089180074487,9945,-4143,11221,15555.652188191918
1735580197761,9,-61,1050,1051.8089180074487,9998,-4035,9340,14264.53045143793
1735580197800,9,-61,1050,1051.8089180074487,10009,-3917,7471,13089.64518235693
1735580197820,68,-4,945,947.4518457420409,9961,-3803,5610,12048.088230088622
1735580197850,68,-4,945,947.4518457420409,9844,-3717,3782,11181.410868043442
1735580197882,68,-4,945,947.4518457420409,9728,-3659,1955,10575.646079554666
1735580197911,194,-68,1064,1083.6770736709345,9609,-3636,150,10275.012262766406
1735580197941,194,-68,1064,1083.6770736709345,9468,-3668,-1477,10260.54467365159
1735580197971,194,-68,1064,1083.6770736709345,9359,-3727,-3107,10542.051934988747
1735580198001,194,-68,1064,1083.6770736709345,9283,-3806,-4739,11095.84814243598
1735580198031,113,-39,1016,1023.0083088616632,9248,-3870,-6470,11931.609447178533
1735580198061,113,-39,1016,1023.0083088616632,9244,-3936,-8235,12990.721958382452
1735580198091,113,-39,1016,1023.0083088616632,9257,-4000,-10003,14203.945156188121
1735580198121,59,-89,933,939.0905174688966,9329,-4062,-11802,15582.595708032728
1735580198151,59,-89,933,939.0905174688966,9462,-4096,-13646,17103.21537021621
1735580198181,59,-89,933,939.0905174688966,9579,-4100,-15491,18669.181074701697
1735580198211,89,-129,981,993.4399830890641,9681,-4075,-17337,20270.642688380653
1735580198242,89,-129,981,993.4399830890641,9780,-4020,16846,19889.608241491333
1735580198272,89,-129,981,993.4399830890641,9844,-3945,15038,18401.32617503423
1735580198301,89,-129,981,993.4399830890641,9875,-3859,13236,16958.750012898945
1735580198331,28,-21,1005,1005.6092680559383,9860,-3769,11387,15527.032234139273
1735580198361,28,-21,1005,1005.6092680559383,9808,-3687,9520,14157.020625823783
1735580198391,28,-21,1005,1005.6092680559383,9744,-3619,7656,12909.57137166064
1735580198421,233,-8,1097,1121.4998885421255,9593,-3599,5958,11852.266196808103
1735580198451,233,-8,1097,1121.4998885421255,9368,-3649,4447,10993.199443292204
1735580198481,233,-8,1097,1121.4998885421255,9191,-3740,2935,10347.768165164893
1735580198511,154,-73,933,948.4376626853237,9066,-3857,1414,9953.301010217665
1735580198541,154,-73,933,948.4376626853237,9094,-3967,-215,9923.918077050012
1735580198571,154,-73,933,948.4376626853237,9144,-4068,-1849,10177.433910372496
1735580198601,154,-73,933,948.4376626853237,9208,-4157,-3489,10688.35974319727
1735580198631,107,-147,859,878.0313206258647,9340,-4226,-5173,11482.796044518078
1735580198661,107,-147,859,878.0313206258647,9495,-4260,-6877,12473.802708075833
1735580198691,107,-147,859,878.0313206258647,9630,-4263,-8582,13585.315344150094
1735580198721,140,-80,940,953.7295214053091,9722,-4241,-10284,14773.76123402568
1735580198751,140,-80,940,953.7295214053091,9746,-4213,-11965,15996.721851679487
1735580198781,140,-80,940,953.7295214053091,9758,-4181,-13644,17287.511706431324
1735580198811,45,-80,946,950.4425285097464,9763,-4143,-15331,18641.893117384832
1735580198842,45,-80,946,950.4425285097464,9825,-4075,-17142,20173.85471346515
1735580198871,45,-80,946,950.4425285097464,9857,-3997,17054,20099.138638260098
1735580198901,45,-80,946,950.4425285097464,9860,-3913,15257,18582.443811296725
1735580198931,256,-104,933,973.0575522547472,9740,-3873,13657,17215.73053924811
1735580198961,256,-104,933,973.0575522547472,9598,-3872,12130,15945.246564415365
1735580198991,256,-104,933,973.0575522547472,9481,-3897,10602,14747.147995460004
1735580199021,110,66,978,986.3772097934948,9395,-3949,9014,13605.617295808375
1735580199051,110,66,978,986.3772097934948,9319,-4019,7312,12508.45577999139
1735580199081,110,66,978,986.3772097934948,9274,-4102,5605,11586.608865410104
1735580199111,67,-83,1000,1005.672909051447,9266,-4187,3869,10879.28701707975
1735580199141,67,-83,1000,1005.672909051447,9448,-4235,2030,10550.868637226036
1735580199171,67,-83,1000,1005.672909051447,9609,-4244,190,10506.213256925637
1735580199201,67,-83,1000,1005.672909051447,9742,-4218,-1645,10742.630636859856
1735580199231,235,-35,1005,1032.702764593956,9725,-4199,-3309,11097.599154772171
1735580199261,235,-35,1005,1032.702764593956,9659,-4200,-4909,11620.43725511222
1735580199291,235,-35,1005,1032.702764593956,9604,-4213,-6510,12343.673885841281
1735580199321,81,-113,884,894.8664704859602,9600,-4226,-8152,13284.358471525828
1735580199351,81,-113,884,894.8664704859602,9698,-4210,-9902,14485.334238463398
1735580199381,81,-113,884,894.8664704859602,9773,-4174,-11648,15767.362144632818
1735580199411,82,-168,1042,1058.6368593620762,9836,-4137,-13384,17117.041829708778
1735580199441,82,-168,1042,1058.6368593620762,9947,-4107,-15104,18545.648384459357
1735580199471,82,-168,1042,1058.6368593620762,10029,-4054,-16818,19996.521722539648
1735580199501,82,-168,1042,1058.6368593620762,10081,-3986,17472,20561.74946350626
1735580199531,138,-242,1012,1049.6437490882324,10091,-3903,15808,19156.057893000845
1735580199561,138,-242,1012,1049.6437490882324,10087,-3819,14167,17805.510916567375
1735580199591,138,-242,1012,1049.6437490882324,10065,-3737,12528,16499.096278281428
1735580199621,168,-158,959,986.3412188487308,10014,-3675,10864,15225.383968885646
1735580199651,168,-158,959,986.3412188487308,9913,-3643,9202,14007.705807875893
1735580199681,168,-158,959,986.3412188487308,9822,-3633,7538,12903.17081185861
1735580199711,54,-65,1049,1052.3982136054774,9759,-3629,5844,11939.851674120579
1735580199741,54,-65,1049,1052.3982136054774,9716,-3604,3971,11097.671512529103
1735580199771,54,-65,1049,1052.3982136054774,9675,-3589,2098,10530.344248883794
1735580199801,54,-65,1049,1052.3982136054774,9637,-3584,225,10284.330313637345
1735580199831,240,-120,1051,1084.7124042805078,9475,-3643,-1396,10246.75021653207
1735580199861,240,-120,1051,1084.7124042805078,9334,-3743,-2953,10481.117020623327
1735580199891,240,-120,1051,1084.7124042805078,9238,-3867,-4512,10984.192141436712
1735580199921,135,-166,1011,1033.3934391121322,9244,-3989,-6152,11798.760994273933
1735580199950,135,-166,1011,1033.3934391121322,9356,-4084,-7895,12905.224407192616
1735580199981,135,-166,1011,1033.3934391121322,9473,-4152,-9645,14142.236668929
1735580200011,99,-202,1106,1128.6456485540534,9589,-4194,-11397,15473.531141921032
1735580200071,99,-202,1106,1128.6456485540534,9751,-4198,-13191,16932.44477327477
1735580200072,99,-202,1106,1128.6456485540534,9882,-4169,-14980,18423.75870988328
1735580200101,121,-115,987,1001.0169828729181,9968,-4115,-16743,19915.378429746193
1735580200131,121,-115,987,1001.0169828729181,9916,-4066,17562,20573.84883778434
1735580200161,121,-115,987,1001.0169828729181,9862,-4028,15870,19113.888353759943
1735580200191,121,-115,987,1001.0169828729181,9809,-4001,14178,17698.592203901415
1735580200221,78,-160,891,908.6060752603407,9804,-3964,12445,16331.250319556062
1735580200251,78,-160,891,908.6060752603407,9811,-3921,10699,15036.574177650971
1735580200281,78,-160,891,908.6060752603407,9805,-3878,8955,13833.6160854637
1735580200310,136,-113,1026,1041.1248724336576,9816,-3841,7198,12763.946920917526
1735580200372,136,-113,1026,1041.1248724336576,9791,-3821,5476,11851.172853350845
1735580200372,136,-113,1026,1041.1248724336576,9765,-3807,3755,11133.216022336044
1735580200402,163,-23,883,898.2132263555242,9727,-3796,2037,10638.304094168394
1735580200431,163,-23,883,898.2132263555242,9578,-3807,353,10312.901725508684
1735580200461,163,-23,883,898.2132263555242,9459,-3847,-1332,10297.879102028728
1735580200491,163,-23,883,898.2132263555242,9371,-3911,-3022,10594.52905984971
1735580200521,38,-76,977,980.6880237873817,9467,-3966,-4853,11353.627349882503
1735580200551,38,-76,977,980.6880237873817,9598,-3984,-6731,12381.446644071928
1735580200581,38,-76,977,980.6880237873817,9708,-3973,-8607,13568.730301689986
1735580200611,18,8,937,937.207020887061,9768,-3932,-10489,14862.48865432704
1735580200641,18,8,937,937.207020887061,9766,-3881,-12383,16241.17009331532
1735580200671,18,8,937,937.207020887061,9751,-3833,-14273,17705.717127526917
1735580200701,161,-198,1038,1068.9101926728924,9713,-3797,-16140,19216.117662004468
1735580200732,161,-198,1038,1068.9101926728924,9735,-3789,-17815,20651.89993680969
1735580200761,161,-198,1038,1068.9101926728924,9750,-3776,16510,19542.28175009254
1735580200791,161,-198,1038,1068.9101926728924,9759,-3760,14837,18152.472283410872
1735580200821,135,52,847,859.2659658103537,9624,-3745,13134,16707.733448915205
1735580200851,135,52,847,859.2659658103537,9453,-3772,11418,15295.682953042666
1735580200881,135,52,847,859.2659658103537,9320,-3834,9699,13986.870879506967
1735580200911,204,12,993,1013.8091536379025,9249,-3932,7981,12833.588196603474
1735580200941,204,12,993,1013.8091536379025,9218,-4046,6300,11875.674296645222
1735580200971,204,12,993,1013.8091536379025,9220,-4163,4612,11117.98151644443
1735580201001,85,-76,1097,1102.9097877886477,9255,-4272,2912,10601.167530041208
1735580201031,85,-76,1097,1102.9097877886477,9478,-4330,1059,10473.913547475939
1735580201061,85,-76,1097,1102.9097877886477,9675,-4339,-795,10633.182543340447
1735580201091,85,-76,1097,1102.9097877886477,9837,-4307,-2645,11059.513687319168
1735580201121,10,-60,1019,1020.813890971317,9948,-4260,-4474,11710.122971173274
1735580201151,10,-60,1019,1020.813890971317,10034,-4184,-6321,12575.454385428782
1735580201181,10,-60,1019,1020.813890971317,10082,-4092,-8159,13600.017242636128
1735580201211,197,-154,1054,1083.2548176675698,10048,-4016,-9868,14644.725466870315
1735580201241,197,-154,1054,1083.2548176675698,9962,-3981,-11414,15664.265096071376
1735580201271,197,-154,1054,1083.2548176675698,9884,-3963,-12960,16773.801745579323
1735580201301,136,-76,925,938.0282511737054,9823,-3940,-14543,17986.488762401626
1735580201331,136,-76,925,938.0282511737054,9752,-3887,-16263,19357.051480016267
1735580201361,136,-76,925,938.0282511737054,9682,-3850,-17982,20782.587615597822
1735580201391,136,-76,925,938.0282511737054,9615,-3828,16297,19305.284716885166
1735580201421,101,-102,1046,1055.8034855028657,9614,-3833,14549,17854.811284356943
1735580201451,101,-102,1046,1055.8034855028657,9627,-3834,12788,16459.39333632926
1735580201481,101,-102,1046,1055.8034855028657,9637,-3832,11027,15137.725126319345
1735580201542,130,-59,977,987.3753085833167,9633,-3835,9287,13919.421072731437
1735580201542,130,-59,977,987.3753085833167,9600,-3850,7571,12818.055273714495
1735580201572,130,-59,977,987.3753085833167,9578,-3872,5854,11874.332991793686
1735580201602,7,-58,1143,1144.4920270582927,9562,-3894,4126,11118.406180743714
1735580201631,7,-58,1143,1144.4920270582927,9626,-3887,2244,10620.931268019769
1735580201661,7,-58,1143,1144.4920270582927,9676,-3866,365,10426.128572006006
1735580201691,7,-58,1143,1144.4920270582927,9710,-3835,-1510,10548.527148374791
1735580201721,54,-99,959,965.6075807490329,9697,-3814,-3315,10934.698441200837
1735580201751,54,-99,959,965.6075807490329,9683,-3797,-5103,11585.26249163134
1735580201781,54,-99,959,965.6075807490329,9668,-3784,-6889,12459.823473869925
1735580201811,124,-116,986,1000.5138679698548,9627,-3774,-8650,13481.272380602655
1735580201841,124,-116,986,1000.5138679698548,9568,-3781,-10361,14601.12687432035
1735580201871,124,-116,986,1000.5138679698548,9522,-3801,-12073,15838.983995193632
1735580201901,210,-54,1016,1038.8801663329607,9497,-3833,-13780,17168.96321855225
1735580201931,210,-54,1016,1038.8801663329607,9396,-3899,-15377,18437.43870498286
1735580201961,210,-54,1016,1038.8801663329607,9327,-3983,-16977,19775.6351857532
1735580201991,210,-54,1016,1038.8801663329607,9288,-4078,17419,20157.345782617314
1735580202020,-5,-136,1003,1012.1906934960427,9454,-4136,15565,18674.9521284527
1735580202051,-5,-136,1003,1012.1906934960427,9670,-4134,13630,17215.56725757243
1735580202081,-5,-136,1003,1012.1906934960427,9842,-4083,11702,15826.327969557562
1735580202113,105,-170,929,950.245231506057,9905,-4024,9858,14542.412626521089
1735580202141,105,-170,929,950.245231506057,9894,-3982,8117,13402.73289295881
1735580202171,105,-170,929,950.245231506057,9875,-3942,6378,12398.946447178487
1735580202201,174,-68,1000,1017.3003489628812,9848,-3906,4640,11565.878263236216
1735580202231,174,-68,1000,1017.3003489628812,9693,-3900,2975,10863.465100970316
1735580202261,174,-68,1000,1017.3003489628812,9565,-3925,1308,10421.406526952109
1735580202291,174,-68,1000,1017.3003489628812,9466,-3975,-361,10273.076559629058
1735580202321,56,-83,967,972.169738265906,9495,-4007,-2176,10533.09308797753
1735580202351,56,-83,967,972.169738265906,9554,-4022,-4035,11123.69655285508
1735580202381,56,-83,967,972.169738265906,9607,-4024,-5894,11967.717451544384
1735580202411,148,-156,1060,1081.5914200843126,9646,-4035,-7671,12968.067782056045
1735580202471,148,-156,1060,1081.5914200843126,9681,-4053,-9356,14059.989544804079
1735580202471,148,-156,1060,1081.5914200843126,9714,-4063,-11043,15258.362100828515
1735580202501,-10,-126,982,990.1010049484851,9741,-4063,-12733,16538.57125026222
1735580202531,-10,-126,982,990.1010049484851,9836,-4019,-14605,18061.153949844953
1735580202561,-10,-126,982,990.1010049484851,9899,-3955,-16470,19618.69327962492
1735580202591,-10,-126,982,990.1010049484851,9932,-3879,17672,20639.54575566042
1735580202621,143,-116,930,948.0532685456024,9826,-3846,15986,19154.48219086071
1735580202651,143,-116,930,948.0532685456024,9702,-3849,14352,17746.084328662477
1735580202681,143,-116,930,948.0532685456024,9602,-3877,12717,16399.74457118159
1735580202710,86,-115,829,841.3453512084084,9522,-3922,11057,15109.85827200242
1735580202741,86,-115,829,841.3453512084084,9484,-3976,9351,13899.497580848021
1735580202771,86,-115,829,841.3453512084084,9466,-4036,7642,12817.746135729167
1735580202801,107,-1,1044,1049.4693897394054,9493,-4103,5912,11912.321436227281
1735580202831,107,-1,1044,1049.4693897394054,9480,-4187,4170,11170.956494409957
1735580202861,107,-1,1044,1049.4693897394054,9491,-4271,2421,10685.586694234435
1735580202892,107,-1,1044,1049.4693897394054,9522,-4351,666,10490.149712944996
1735580202921,170,-74,981,998.3671669280797,9608,-4402,-1115,10627.064175961299
1735580202951,170,-74,981,998.3671669280797,9696,-4436,-2874,11043.114959104609
1735580202981,170,-74,981,998.3671669280797,9777,-4452,-4635,11700.139229940813
1735580203041,213,-113,1058,1085.1276422614992,9849,-4434,-6390,12549.711430945335
1735580203041,213,-113,1058,1085.1276422614992,9902,-4397,-8113,13535.286550346838
1735580203071,213,-113,1058,1085.1276422614992,9935,-4350,-9830,14637.473313383018
1735580203101,141,87,965,979.1195024102012,9930,-4289,-11521,15802.970037306279
1735580203131,141,87,965,979.1195024102012,9764,-4224,-13249,16991.582416008227
1735580203161,141,87,965,979.1195024102012,9613,-4194,-14978,18284.96346728645
1735580203191,141,87,965,979.1195024102012,9484,-4195,-16709,19665.57809981695
1735580203221,104,-34,982,988.0769200826421,9462,-4215,17545,20374.55997070857
1735580203251,104,-34,982,988.0769200826421,9488,-4229,15785,18896.3702863804
1735580203281,104,-34,982,988.0769200826421,9513,-4237,14024,17467.739235516427
1735580203311,-81,-138,877,891.4785471339173,9607,-4222,12187,16082.372399618162
1735580203342,-81,-138,877,891.4785471339173,9809,-4142,10216,14755.992037135287
1735580203372,-81,-138,877,891.4785471339173,9943,-4020,8264,13539.473586517313
1735580203401,65,-11,993,995.1859122797107,10019,-3877,6333,12470.700822327508
1735580203431,65,-11,993,995.1859122797107,9868,-3788,4574,11517.284575801712
1735580203461,65,-11,993,995.1859122797107,9724,-3732,2813,10788.74269783092
1735580203491,65,-11,993,995.1859122797107,9593,-3709,1051,10338.613591773319
1735580203521,170,14,939,954.3673297006766,9401,-3736,-592,10133.457504721673
1735580203551,170,14,939,954.3673297006766,9224,-3809,-2202,10219.562661875507
1735580203581,170,14,939,954.3673297006766,9093,-3914,-3815,10609.253979427584
1735580203611,255,-72,992,1026.777970157132,9033,-4044,-5442,11294.440623598852
1735580203640,255,-72,992,1026.777970157132,9029,-4179,-7032,12183.427514455856
1735580203671,255,-72,992,1026.777970157132,9055,-4310,-8628,13229.191547483164
1735580203701,128,-3,1034,1041.8968279057192,9125,-4436,-10253,14424.55302600396
1735580203731,128,-3,1034,1041.8968279057192,9295,-4534,-12085,15906.017917756788
1735580203761,128,-3,1034,1041.8968279057192,9462,-4595,-13927,17452.930928643476
1735580203791,128,-3,1034,1041.8968279057192,9617,-4621,-15772,19041.961926230186
1735580203821,143,-84,997,1010.6997575937179,9796,-4629,-17618,20682.92003078869
1735580203851,143,-84,997,1010.6997575937179,9960,-4599,16545,19851.68572187259
1735580203881,143,-84,997,1010.6997575937179,10083,-4537,14719,18409.24276009201
1735580203911,0,-89,1002,1005.9448295011014,10184,-4431,12863,16994.245673168316
1735580203941,0,-89,1002,1005.9448295011014,10290,-4272,10926,15604.856936223414
1735580203971,0,-89,1002,1005.9448295011014,10324,-4092,9012,14301.94336445226
1735580204001,125,-61,1013,1022.504278719654,10285,-3915,7136,13116.056800730927
1735580204031,125,-61,1013,1022.504278719654,10089,-3804,5436,12075.116272732119
1735580204061,125,-61,1013,1022.504278719654,9904,-3736,3734,11224.511927028276
1735580204091,104,-8,936,941.7940326844293,9744,-3708,2025,10620.519055112138
1735580204121,104,-8,936,941.7940326844293,9589,-3718,287,10288.576869518933
1735580204151,104,-8,936,941.7940326844293,9465,-3761,-1453,10287.981094461635
1735580204181,104,-8,936,941.7940326844293,9375,-3829,-3198,10619.749055415576
1735580204211,141,-92,981,995.3421522270621,9324,-3902,-4926,11244.023123419838
1735580204241,141,-92,981,995.3421522270621,9313,-3980,-6645,12113.149631701905
1735580204271,141,-92,981,995.3421522270621,9324,-4058,-8369,13169.832990588757
1735580204301,19,-43,925,926.1938242074388,9352,-4134,-10098,14370.785086417513
1735580204331,19,-43,925,926.1938242074388,9442,-4194,-11974,15815.10910490345
1735580204361,19,-43,925,926.1938242074388,9532,-4232,-13854,17340.765957707867
1735580204392,87,-68,942,948.449787811669,9602,-4254,-15712,18898.72651794295
1735580204422,87,-68,942,948.449787811669,9613,-4281,-17447,20374.850649759373
1735580204451,87,-68,942,948.449787811669,9629,-4305,16816,19850.15168707786
1735580204481,87,-68,942,948.449787811669,9649,-4325,15077,18415.34020864127
1735580204511,254,35,995,1027.5047445145935,9595,-4381,13459,17099.76219132886
1735580204541,254,35,995,1027.5047445145935,9499,-4465,11901,15868.239568395733
1735580204570,254,35,995,1027.5047445145935,9437,-4564,10339,14723.518125774151
1735580204601,254,-82,984,1019.5567664431442,9448,-4667,8743,13692.539647559908
1735580204631,254,-82,984,1019.5567664431442,9546,-4755,7123,12824.713252154997
1735580204661,254,-82,984,1019.5567664431442,9649,-4824,5497,12107.48470988091
1735580204691,192,-15,973,991.8760003145554,9757,-4876,3872,11574.40318115798
1735580204721,192,-15,973,991.8760003145554,9872,-4903,2182,11236.41032536637
1735580204751,192,-15,973,991.8760003145554,9973,-4910,490,11126.946076979073
1735580204781,192,-15,973,991.8760003145554,10058,-4899,-1198,11251.611840087624
1735580204811,218,-30,919,944.9788357418382,10097,-4851,-2894,11569.651939449173
1735580204841,218,-30,919,944.9788357418382,10112,-4798,-4572,12090.34871291974
1735580204871,218,-30,919,944.9788357418382,10111,-4743,-6244,12795.151659906185
1735580204901,184,7,1051,1067.0079662308056,10124,-4686,-7954,13701.09805818497
1735580204931,184,7,1051,1067.0079662308056,10129,-4621,-9700,14766.187117871696
1735580204961,184,7,1051,1067.0079662308056,10117,-4556,-11438,15935.453209745872
1735580204991,111,-54,937,945.0957623436897,10074,-4490,-13161,17171.415113496034
1735580205021,111,-54,937,945.0957623436897,10097,-4400,-14940,18561.06163450787
1735580205051,111,-54,937,945.0957623436897,10091,-4306,-16710,19989.84784834542
1735580205081,111,-54,937,945.0957623436897,10060,-4215,17527,20643.77760973025
1735580205111,155,39,815,830.5245330512519,9903,-4154,15842,19138.81106547635
1735580205142,155,39,815,830.5245330512519,9728,-4133,14171,17678.60045365583
1735580205171,155,39,815,830.5245330512519,9581,-4147,12497,16283.985353714857
1735580205201,153,-14,932,944.5787420855924,9503,-4189,10787,14973.780384391912
1735580205231,153,-14,932,944.5787420855924,9489,-4238,9055,13783.859764231498
1735580205261,153,-14,932,944.5787420855924,9490,-4288,7319,12728.503643398151
1735580205291,134,-87,1052,1064.062498164464,9495,-4337,5591,11841.616232592576
1735580205321,134,-87,1052,1064.062498164464,9565,-4373,3861,11203.556355015135
1735580205351,134,-87,1052,1064.062498164464,9632,-4395,2129,10799.263400806556
1735580205381,134,-87,1052,1064.062498164464,9693,-4403,398,10653.593853719036
1735580205411,39,37,1052,1053.372678590061,9796,-4385,-1466,10832.31263396695
1735580205441,39,37,1052,1053.372678590061,9865,-4346,-3363,11292.285419701364
1735580205472,39,37,1052,1053.372678590061,9908,-4292,-5252,12007.215830491263
1735580205501,237,-35,1039,1066.262162884907,9871,-4266,-7021,12842.501236129978
1735580205531,237,-35,1039,1066.262162884907,9771,-4286,-8621,13717.283914828036
1735580205561,237,-35,1039,1066.262162884907,9694,-4324,-10223,14737.039763806028
1735580205591,218,51,993,1017.9263234635403,9657,-4375,-11842,15894.377559376146
1735580205621,218,51,993,1017.9263234635403,9617,-4433,-13515,17169.5487127647
1735580205651,218,51,993,1017.9263234635403,9599,-4498,-15193,18525.65934049312
1735580205681,218,51,993,1017.9263234635403,9600,-4565,-16876,19944.889094702932
1735580205710,-1,-195,1060,1077.7875486384132,9875,-4570,17183,20338.535197992995
1735580205741,-1,-195,1060,1077.7875486384132,10206,-4477,15171,18824.59046035265
1735580205771,-1,-195,1060,1077.7875486384132,10435,-4314,13192,17364.58133673254
1735580205801,231,-6,1105,1128.903007348284,10498,-4144,11352,16007.768239201865
1735580205831,231,-6,1105,1128.903007348284,10334,-4042,9700,14738.362188520134
1735580205861,231,-6,1105,1128.903007348284,10178,-3971,8048,13569.48153025752
1735580205891,38,-51,801,803.5210015923666,9982,-3926,6423,12502.348939299367
1735580205921,38,-51,801,803.5210015923666,9872,-3867,4647,11576.039132622176
1735580205951,38,-51,801,803.5210015923666,9767,-3832,2871,10877.552757858728
1735580205981,38,-51,801,803.5210015923666,9674,-3821,1093,10458.535557141831
1735580206011,0,-79,848,851.6718851764451,9621,-3849,-643,10382.28736839816
1735580206041,0,-79,848,851.6718851764451,9599,-3883,-2395,10628.006162963964
1735580206071,0,-79,848,851.6718851764451,9590,-3921,-4150,11160.862018679381
1735580206101,159,-74,899,915.9465049881461,9598,-3983,-5873,11936.415793696196
1735580206131,159,-74,899,915.9465049881461,9573,-4070,-7495,12821.16429970383
1735580206161,159,-74,899,915.9465049881461,9572,-4160,-9122,13861.44537918034
1735580206191,183,-58,1035,1052.6528392589837,9617,-4244,-10784,15059.644119301092
1735580206221,183,-58,1035,1052.6528392589837,9689,-4309,-12487,16381.983121710266
1735580206251,183,-58,1035,1052.6528392589837,9765,-4359,-14194,17771.48676954182
1735580206281,183,-58,1035,1052.6528392589837,9841,-4394,-15904,19211.708227016148
1735580206312,149,4,1053,1063.4970615850332,9830,-4417,-17608,20644.138465918117
1735580206341,149,4,1053,1063.4970615850332,9819,-4443,16672,19852.168496161823
1735580206371,149,4,1053,1063.4970615850332,9818,-4471,14950,18435.982886735386
1735580206401,69,-131,977,988.1553521587584,9890,-4474,13152,17052.972761369205
1735580206431,69,-131,977,988.1553521587584,10058,-4426,11276,15744.872689228072
1735580206461,69,-131,977,988.1553521587584,10178,-4344,9413,14528.130953429625
1735580206491,109,-110,926,938.8594143959999,10250,-4246,7577,13435.10122775411
1735580206521,109,-110,926,938.8594143959999,10242,-4164,5820,12494.39314252597
1735580206551,109,-110,926,938.8594143959999,10213,-4085,4069,11728.143715013046
1735580206581,109,-110,926,938.8594143959999,10170,-4013,2322,11176.974232769797
1735580206611,212,-15,1080,1100.7129507732704,10033,-3973,648,10810.445041717756
1735580206641,212,-15,1080,1100.7129507732704,9870,-3977,-991,10687.165667285222
1735580206671,212,-15,1080,1100.7129507732704,9737,-4013,-2634,10855.933584911065
1735580206701,199,-40,990,1010.5943795608603,9678,-4067,-4312,11348.89937394812
1735580206731,199,-40,990,1010.5943795608603,9675,-4122,-6016,12115.641336718416
1735580206761,199,-40,990,1010.5943795608603,9687,-4177,-7724,13074.611810681035
1735580206791,65,-204,1005,1027.553404938157,9691,-4230,-9418,14160.053142555646
1735580206821,65,-204,1005,1027.553404938157,9896,-4238,-11232,15557.933153218008
1735580206851,65,-204,1005,1027.553404938157,10064,-4204,-13040,16999.97976469384
1735580206881,65,-204,1005,1027.553404938157,10190,-4136,-14840,18470.738913210807
1735580206911,252,25,1010,1041.2631751867536,10090,-4097,-16496,19766.424183448053
1735580206941,252,25,1010,1041.2631751867536,9906,-4111,17914,20879.18947181619
1735580206971,252,25,1010,1041.2631751867536,9757,-4159,16322,19465.456943005473
1735580207001,201,-160,1052,1082.9150474529386,9712,-4229,14721,18136.02012570564
1735580207031,201,-160,1052,1082.9150474529386,9811,-4280,13083,16903.81643298341
1735580207061,201,-160,1052,1082.9150474529386,9905,-4313,11443,15737.002351146803
1735580207091,131,-88,964,976.832124778869,9964,-4316,9797,14624.99097435619
1735580207121,131,-88,964,976.832124778869,9956,-4283,8061,13507.24790621687
1735580207151,131,-88,964,976.832124778869,9941,-4253,6327,12527.666143380418
1735580207181,131,-88,964,976.832124778869,9920,-4225,4594,11720.147652653528
1735580207211,-72,-138,821,835.6249158563907,10038,-4164,2713,11200.924470774722
1735580207271,-72,-138,821,835.6249158563907,10165,-4055,771,10971.084312865341
1735580207272,-72,-138,821,835.6249158563907,10233,-3918,-1154,11018.018379000827
1735580207302,12,2,721,721.1026279247635,10180,-3817,-3031,11286.666912778102
1735580207331,12,2,721,721.1026279247635,10007,-3782,-4844,11743.419817072026
1735580207361,12,2,721,721.1026279247635,9859,-3786,-6661,12486.096187359763
1735580207391,136,43,924,934.9443833726153,9780,-3811,-8502,13507.632101889658
1735580207421,136,43,924,934.9443833726153,9687,-3854,-10257,14625.229365722782
1735580207451,136,43,924,934.9443833726153,9622,-3915,-12015,15883.020304715346
1735580207481,136,43,924,934.9443833726153,9585,-3989,-13777,17250.799256846043
1735580207511,156,-70,947,962.3123193641449,9526,-4094,-15455,18610.81774130304
1735580207541,156,-70,947,962.3123193641449,9527,-4203,-17132,20048.300725996705
1735580207571,156,-70,947,962.3123193641449,9555,-4310,17183,20127.831825609035
1735580207601,334,-190,1176,1237.1871321671592,9612,-4420,15541,18800.255982299816
1735580207631,334,-190,1176,1237.1871321671592,9668,-4536,14026,17628.788840983943
1735580207661,334,-190,1176,1237.1871321671592,9740,-4641,12503,16514.58416067447
1735580207691,118,-132,972,987.9939271068421,9830,-4717,10953,15454.68207372769
1735580207721,118,-132,972,987.9939271068421,10063,-4694,9091,14350.745137448439
1735580207751,118,-132,972,987.9939271068421,10243,-4626,7242,13370.32120033023
1735580207781,118,-132,972,987.9939271068421,10367,-4523,5409,12537.523639060466
1735580207811,161,10,958,971.4859751947014,10319,-4439,3702,11827.564669026333
1735580207841,161,10,958,971.4859751947014,10214,-4379,2014,11294.141534441651
1735580207872,161,10,958,971.4859751947014,10115,-4338,328,11010.860683888432
1735580207901,63,-55,847,851.1186756263781,10091,-4301,-1442,11063.735625908637
1735580207931,63,-55,847,851.1186756263781,10147,-4238,-3306,11482.677780030232
1735580207961,63,-55,847,851.1186756263781,10173,-4164,-5161,12143.506330545557
1735580207991,173,-175,1013,1042.4600711777887,10164,-4092,-6987,12994.980915722808
1735580208021,173,-175,1013,1042.4600711777887,10148,-4053,-8644,13932.962678482994
1735580208051,173,-175,1013,1042.4600711777887,10125,-4016,-10300,14991.12674217652
1735580208081,135,-3,998,1007.0938387260643,10095,-3995,-11945,16141.62553772079
1735580208112,135,-3,998,1007.0938387260643,9949,-4011,-13613,17331.60382076627
1735580208141,135,-3,998,1007.0938387260643,9834,-4056,-15284,18621.475451746566
1735580208171,135,-3,998,1007.0938387260643,9751,-4123,-16959,19992.21876130811
1735580208201,211,-128,1067,1095.1684801892357,9731,-4194,17402,20374.28774215187
1735580208231,211,-128,1067,1095.1684801892357,9746,-4266,15789,19038.79704708257
1735580208261,211,-128,1067,1095.1684801892357,9776,-4334,14173,17754.651812975662
1735580208291,255,-80,1003,1037.995183033139,9786,-4399,12587,16539.333904362655
1735580208321,255,-80,1003,1037.995183033139,9681,-4488,11122,15413.07201696015
1735580208351,255,-80,1003,1037.995183033139,9610,-4593,9654,14375.237911074724
1735580208381,159,-98,1039,1055.654299474975,9622,-4698,8122,13439.530200122324
1735580208411,159,-98,1039,1055.654299474975,9844,-4747,6344,12636.640415870035
1735580208441,159,-98,1039,1055.654299474975,10039,-4753,4565,12008.819883735454
1735580208470,159,-98,1039,1055.654299474975,10198,-4722,2791,11579.558238551244
1735580208501,116,-107,1067,1078.6074355389917,10309,-4673,1021,11364.631582237938
1735580208531,116,-107,1067,1078.6074355389917,10397,-4599,-754,11393.723096512394
1735580208561,116,-107,1067,1078.6074355389917,10446,-4507,-2518,11652.136671014463
1735580208591,243,-44,996,1026.1583698435636,10377,-4430,-4168,12028.268911194162
1735580208621,243,-44,996,1026.1583698435636,10198,-4404,-5692,12481.717990725476
1735580208651,243,-44,996,1026.1583698435636,10045,-4409,-7219,13132.222469940112
1735580208681,64,-109,954,962.3372589690165,9952,-4436,-8788,13998.190740234968
1735580208711,64,-109,954,962.3372589690165,10125,-4411,-10647,15340.506999444315
1735580208741,64,-109,954,962.3372589690165,10255,-4350,-12495,16739.55047186154
1735580208771,64,-109,954,962.3372589690165,10342,-4264,-14333,18181.68168789675
1735580208801,99,-91,1049,1057.5835664381325,10355,-4148,-16150,19627.89925081133
1735580208831,99,-91,1049,1057.5835664381325,10322,-4035,-17946,21092.269318401944
1735580208861,99,-91,1049,1057.5835664381325,10266,-3931,16263,19629.790778304287
1735580208891,22,-140,982,992.1733719466573,10222,-3843,14467,18126.00402736356
1735580208921,22,-140,982,992.1733719466573,10216,-3751,12630,16671.939209342145
1735580208951,22,-140,982,992.1733719466573,10185,-3662,10799,15289.30573963383
1735580208981,62,-178,1052,1068.7525438566217,10137,-3574,8962,13994.630720387016
1735580209011,62,-178,1052,1068.7525438566217,10082,-3489,7150,12842.988164753559
1735580209041,62,-178,1052,1068.7525438566217,10015,-3419,5339,11853.046317297507
1735580209071,62,-178,1052,1068.7525438566217,9943,-3365,3529,11074.308782041433
1735580209101,15,-121,1044,1051.095618866333,9866,-3346,1722,10559.306606022954
1735580209131,15,-121,1044,1051.095618866333,9791,-3345,-101,10347.12071061317
1735580209161,15,-121,1044,1051.095618866333,9730,-3362,-1927,10473.264677262769
1735580209191,179,-152,1081,1106.2124569900666,9667,-3424,-3697,10901.48953125214
1735580209221,179,-152,1081,1106.2124569900666,9595,-3530,-5358,11542.663860651925
1735580209251,179,-152,1081,1106.2124569900666,9560,-3648,-7021,12409.510264309385
1735580209281,134,-140,867,888.3946195244544,9546,-3758,-8682,13439.709967108665
1735580209311,134,-140,867,888.3946195244544,9549,-3840,-10385,14621.122597119553
1735580209341,134,-140,867,888.3946195244544,9571,-3918,-12091,15910.595400549912
1735580209371,134,-140,867,888.3946195244544,9610,-3991,-13801,17284.32185536939
1735580209401,154,-125,834,857.2613370495604,9657,-4082,-15532,18739.35423113614
1735580209431,154,-125,834,857.2613370495604,9712,-4164,-17260,20237.822017203333
1735580209461,154,-125,834,857.2613370495604,9778,-4233,17005,20067.32662812862
1735580209491,166,-147,998,1022.3350722732738,9870,-4310,15291,18703.146286119885
1735580209521,166,-147,998,1022.3350722732738,9981,-4377,13590,17420.29247745284
1735580209551,166,-147,998,1022.3350722732738,10089,-4421,11884,16203.78406422401
1735580209581,34,-197,972,992.3452020340502,10175,-4430,10177,15057.451776446107
1735580209611,34,-197,972,992.3452020340502,10349,-4351,8325,13976.359576084182
1735580209641,34,-197,972,992.3452020340502,10465,-4236,6489,13021.791044245796
1735580209671,34,-197,972,992.3452020340502,10524,-4098,4669,12220.791340989339
1735580209701,-83,-238,1003,1034.1866369277839,10615,-3910,2760,11644.051056226093
1735580209731,-83,-238,1003,1034.1866369277839,10660,-3686,834,11310.073032478615
1735580209761,-83,-238,1003,1034.1866369277839,10629,-3454,-1074,11227.610297832749
1735580209791,5,-94,958,962.6136296562604,10468,-3245,-2935,11345.627968517212
1735580209821,5,-94,958,962.6136296562604,10182,-3116,-4740,11655.47854015441
1735580209851,5,-94,958,962.6136296562604,9920,-3056,-6554,12276.011241441578
1735580209881,143,-111,942,959.2361544479023,9700,-3064,-8370,13173.268235331732
1735580209911,143,-111,942,959.2361544479023,9487,-3150,-10044,14170.660005800717
1735580209941,143,-111,942,959.2361544479023,9332,-3280,-11718,15334.801857213546
1735580209971,143,-111,942,959.2361544479023,9234,-3440,-13392,16626.66593156908
1735580210001,108,-92,833,844.99526625893,9144,-3618,-15042,17971.21097756075
1735580210031,108,-92,833,844.99526625893,9113,-3808,-16708,19408.887062374288
1735580210061,108,-92,833,844.99526625893,9131,-3998,17617,20241.48843341319
1735580210091,72,-171,987,1004.2878073540473,9277,-4180,15851,18835.852250429234
1735580210121,72,-171,987,1004.2878073540473,9529,-4312,14008,17481.969254062886
1735580210151,72,-171,987,1004.2878073540473,9774,-4386,12152,16199.974567881272
1735580210181,9,-73,958,960.8194419348517,10002,-4396,10286,15005.552838866017
1735580210211,9,-73,958,960.8194419348517,10160,-4328,8342,13840.019797673702
1735580210241,9,-73,958,960.8194419348517,10264,-4227,6413,12819.664348180104
1735580210271,9,-73,958,960.8194419348517,10316,-4106,4501,11980.73841630807
1735580210301,-3,-121,992,999.3567931424692,10385,-3967,2558,11407.395758892562
1735580210331,-3,-121,992,999.3567931424692,10411,-3809,628,11103.683442894075
1735580210361,-3,-121,992,999.3567931424692,10385,-3649,-1289,11082.641697718103
1735580210391,100,-59,1058,1064.3519154866026,10238,-3534,-3093,11263.767087435714
1735580210421,100,-59,1058,1064.3519154866026,10007,-3496,-4795,11634.177667544878
1735580210452,100,-59,1058,1064.3519154866026,9810,-3509,-6501,12280.56114353086
1735580210481,228,-157,967,1005.8439242745368,9646,-3562,-8202,13153.1731532737
1735580210511,228,-157,967,1005.8439242745368,9518,-3657,-9752,14109.127435812607
1735580210541,228,-157,967,1005.8439242745368,9432,-3775,-11303,15197.73200184817
1735580210571,228,-157,967,1005.8439242745368,9385,-3908,-12857,16390.64178121162
1735580210601,165,-43,994,1008.5187157410614,9394,-4027,-14530,17764.708413030596
1735580210631,165,-43,994,1008.5187157410614,9414,-4145,-16233,19217.562540551287
1735580210661,165,-43,994,1008.5187157410614,9461,-4255,-17944,20726.858951611553
1735580210691,-43,-197,1106,1124.2304034316098,9653,-4347,16238,19384.25809774519
1735580210721,-43,-197,1106,1124.2304034316098,10025,-4345,14249,17955.880680156013
1735580210751,-43,-197,1106,1124.2304034316098,10320,-4261,12275,16593.195774172014
1735580210781,18,19,954,954.3589471472461,10495,-4125,10360,15313.074479019555
1735580210811,18,19,954,954.3589471472461,10331,-4036,8588,14027.565754613308
1735580210871,18,19,954,954.3589471472461,10177,-3981,6816,12879.345713195216
1735580210872,18,19,954,954.3589471472461,10038,-3959,5043,11910.79233300623
1735580210901,47,-105,955,961.9038413479801,9966,-3915,3235,11185.41934841962
1735580210931,47,-105,955,961.9038413479801,9921,-3882,1438,10750.070185817392
1735580210961,47,-105,955,961.9038413479801,9876,-3859,-357,10609.180269936032
1735580210991,34,-6,932,932.6392657399751,9818,-3863,-2132,10763.889492186363
1735580211021,34,-6,932,932.6392657399751,9733,-3893,-3906,11186.758869306159
1735580211051,34,-6,932,932.6392657399751,9672,-3941,-5684,11890.623238501841
1735580211081,168,-169,1089,1114.767240279333,9647,-3998,-7479,12844.611866459803
1735580211111,168,-169,1089,1114.767240279333,9705,-4057,-9157,13946.215364750395
1735580211172,168,-169,1089,1114.767240279333,9766,-4103,-10838,15154.9202901236
1735580211172,168,-169,1089,1114.767240279333,9829,-4136,-12521,16446.616004515945
1735580211201,301,-165,1067,1120.854584680814,9827,-4162,-14147,17720.885474490264
1735580211231,301,-165,1067,1120.854584680814,9802,-4200,-15723,18998.20867871495
1735580211261,301,-165,1067,1120.854584680814,9791,-4242,-17301,20326.899566830158
1735580211291,1,-125,971,979.0132787659215,9889,-4246,16964,20089.751939732854
1735580211321,1,-125,971,979.0132787659215,10093,-4164,14992,18546.363767596064
1735580211351,1,-125,971,979.0132787659215,10228,-4039,13038,17056.229038096317
1735580211382,-21,-119,961,968.5674989385097,10304,-3897,11112,15647.222405270528
1735580211412,-21,-119,961,968.5674989385097,10346,-3754,9192,14339.633747066206
1735580211441,-21,-119,961,968.5674989385097,10337,-3605,7283,13148.828198740754
1735580211471,-21,-119,961,968.5674989385097,10288,-3461,5383,12116.02880485186
1735580211501,55,-122,981,990.0858548631022,10137,-3379,3628,11284.449211193252
1735580211531,55,-122,981,990.0858548631022,9985,-3340,1895,10697.98345483858
1735580211561,55,-122,981,990.0858548631022,9853,-3335,160,10403.337637508455
1735580211591,311,-46,901,954.2735456880275,9673,-3374,-1517,10356.2586873832
1735580211621,311,-46,901,954.2735456880275,9407,-3493,-3034,10483.217731212111
1735580211651,311,-46,901,954.2735456880275,9209,-3660,-4549,10903.88380348947
1735580211681,119,-158,961,981.1452491858685,9086,-3863,-6078,11593.974685154353
1735580211711,119,-158,961,981.1452491858685,9266,-4050,-7863,12809.684812672012
1735580211741,119,-158,961,981.1452491858685,9466,-4192,-9664,14162.306168135188
1735580211772,-68,-96,1024,1030.7356596140448,9661,-4277,-11475,15598.18178506713
1735580211802,-68,-96,1024,1030.7356596140448,9906,-4266,-13498,17277.835396831397
1735580211831,-68,-96,1024,1030.7356596140448,10097,-4199,-15510,18977.384171692367
1735580211861,-68,-96,1024,1030.7356596140448,10226,-4091,-17504,20680.84555814873
1735580211891,336,-94,1019,1077.0761347277173,10120,-4118,16888,20114.096251136914
1735580211921,336,-94,1019,1077.0761347277173,9956,-4207,15429,18838.121615490225
1735580211951,336,-94,1019,1077.0761347277173,9836,-4324,13967,17621.604949606604
1735580211982,438,-109,1176,1259.6432034508819,9757,-4446,12487,16458.77073174057
1735580212012,438,-109,1176,1259.6432034508819,9639,-4577,11104,15399.937207664192
1735580212041,438,-109,1176,1259.6432034508819,9562,-4724,9718,14428.705555246459
1735580212072,77,-136,986,998.3090703785076,9521,-4860,8311,13540.375253293389
1735580212102,77,-136,986,998.3090703785076,9861,-4878,6390,12722.668941696156
1735580212131,77,-136,986,998.3090703785076,10140,-4829,4478,12090.960466398028
1735580212161,77,-136,986,998.3090703785076,10346,-4726,2588,11665.013330468166
1735580212191,49,-168,917,933.5491417167068,10498,-4610,773,11491.633173748629
1735580212221,49,-168,917,933.5491417167068,10600,-4461,-1028,11546.311315740624
1735580212251,49,-168,917,933.5491417167068,10637,-4291,-2809,11808.849689957104
1735580212281,159,-96,794,815.4342401444767,10597,-4127,-4548,12247.972975149807
1735580212311,159,-96,794,815.4342401444767,10358,-4047,-6116,12691.407683941132
1735580212341,159,-96,794,815.4342401444767,10146,-4010,-7688,13346.413750517402
1735580212371,82,-84,972,979.0628171879473,10006,-4007,-9295,14232.818062492051
1735580212401,82,-84,972,979.0628171879473,10004,-3993,-11051,15432.066161081606
1735580212431,82,-84,972,979.0628171879473,9999,-3981,-12806,16727.880858016655
1735580212461,82,-84,972,979.0628171879473,9991,-3970,-14561,18099.8260212633
1735580212491,-61,-17,958,960.0906207228566,9995,-3921,-16437,19632.86110071581
1735580212521,-61,-17,958,960.0906207228566,9993,-3862,17640,20638.427580607975
1735580212551,-61,-17,958,960.0906207228566,9975,-3806,15723,19005.235857520947
1735580212581,106,-85,1014,1023.0625591819886,9942,-3782,13855,17467.338463543896
1735580212611,106,-85,1014,1023.0625591819886,9889,-3797,12098,16080.14720081878
1735580212671,106,-85,1014,1023.0625591819886,9850,-3823,10339,14782.853242862151
1735580212672,309,16,1062,1106.1559564546042,9838,-3856,8563,13600.733399342846
1735580212700,309,16,1062,1106.1559564546042,9653,-3946,6976,12546.549366260031
1735580212732,309,16,1062,1106.1559564546042,9518,-4069,5385,11668.217944484924
1735580212761,309,16,1062,1106.1559564546042,9433,-4216,3790,11005.464324598031
1735580212791,215,-77,963,989.7085429559553,9420,-4343,2182,10599.960990494257
1735580212821,215,-77,963,989.7085429559553,9484,-4458,527,10492.747447642108
1735580212851,215,-77,963,989.7085429559553,9567,-4558,-1135,10657.911521494256
1735580212882,157,-117,1161,1177.395005934712,9702,-4637,-2848,11123.923633322911
1735580212912,157,-117,1161,1177.395005934712,9892,-4675,-4622,11877.296535828345
1735580212942,157,-117,1161,1177.395005934712,10058,-4676,-6396,12803.794593791326
1735580212972,141,22,865,876.6926485376731,10179,-4636,-8170,13851.116814177838
1735580213001,141,22,865,876.6926485376731,10141,-4567,-9966,14933.804806545451
1735580213031,141,22,865,876.6926485376731,10091,-4507,-11756,16135.205793543508
1735580213061,141,22,865,876.6926485376731,10034,-4457,-13541,17432.862243475683
1735580213091,101,-137,906,921.84922845333,10073,-4447,-15256,18814.53358443945
1735580213121,101,-137,906,921.84922845333,10151,-4415,-16982,20271.244411727665
1735580213151,101,-137,906,921.84922845333,10205,-4368,17296,20551.716838259523
1735580213182,113,29,976,982.9476079629067,10212,-4309,15556,19100.826186319795
1735580213211,113,29,976,982.9476079629067,10124,-4262,13815,17649.766145759553
1735580213240,113,29,976,982.9476079629067,10040,-4234,12074,16263.758237258693
1735580213271,243,26,1001,1030.400892856756,9976,-4228,10329,14969.462281591814
1735580213301,243,26,1001,1030.400892856756,9857,-4275,8720,13837.43018049233
1735580213331,243,26,1001,1030.400892856756,9769,-4342,7107,12837.280631037089
1735580213361,243,26,1001,1030.400892856756,9712,-4425,5490,12001.819403740417
1735580213391,149,-103,924,941.5869582784162,9768,-4458,3744,11371.241093214056
1735580213420,149,-103,924,941.5869582784162,9875,-4462,1960,11012.1146470603
1735580213450,149,-103,924,941.5869582784162,9963,-4446,179,10911.476801973233
1735580213480,123,-123,877,894.0844479130593,10049,-4438,-1580,11098.407318169577
1735580213510,123,-123,877,894.0844479130593,10144,-4420,-3345,11559.678239466703
1735580213540,123,-123,877,894.0844479130593,10216,-4383,-5104,12232.259030939462
1735580213570,170,-63,995,1011.3822225054186,10281,-4327,-6873,13101.908983045181
1735580213600,170,-63,995,1011.3822225054186,10268,-4264,-8610,14062.205374691412
1735580213630,170,-63,995,1011.3822225054186,10241,-4204,-10342,15149.54326044188
1735580213660,170,-63,995,1011.3822225054186,10204,-4150,-12071,16341.761135202045
1735580213690,174,-41,886,903.854523692834,10071,-4099,-13772,17546.932096523313
1735580213720,174,-41,886,903.854523692834,9944,-4076,-15472,18838.25087421866
1735580213750,174,-41,886,903.854523692834,9836,-4079,-17174,20207.211905653883
1735580213781,98,-186,800,827.1638289964087,9827,-4106,17105,20149.694538627627
1735580213811,98,-186,800,827.1638289964087,9942,-4110,15334,18731.444685341277
1735580213840,98,-186,800,827.1638289964087,10037,-4090,13566,17363.92308782782
1735580213870,279,-16,895,937.6150596060197,10113,-4053,11813,16070.051244473367
1735580213900,279,-16,895,937.6150596060197,9922,-4073,10283,14858.516143949233
1735580213930,279,-16,895,937.6150596060197,9768,-4128,8751,13748.971197875135
1735580213960,279,-16,895,937.6150596060197,9652,-4209,7216,12765.086799548211
1735580213990,-88,-117,1015,1025.5037786376022,9794,-4232,5357,11938.580694538192
1735580214020,-88,-117,1015,1025.5037786376022,10016,-4182,3365,11363.652801806293
1735580214050,-88,-117,1015,1025.5037786376022,10176,-4082,1389,11051.833377317991
1735580214081,240,-135,1002,1039.1482088710927,10185,-3998,-425,10949.833514716103
1735580214111,240,-135,1002,1039.1482088710927,10043,-3989,-1986,10987.181895281428
1735580214140,240,-135,1002,1039.1482088710927,9925,-4005,-3550,11275.998847108845
1735580214170,282,-58,1125,1161.2549246397193,9843,-4036,-5127,11809.321487706226
1735580214200,282,-58,1125,1161.2549246397193,9712,-4081,-6681,12474.504639463645
1735580214230,282,-58,1125,1161.2549246397193,9613,-4150,-8237,13322.178425467811
1735580214260,282,-58,1125,1161.2549246397193,9546,-4235,-9797,14319.306896634347
1735580214290,60,-19,979,981.0208968212655,9595,-4298,-11564,15628.913110002244
1735580214320,60,-19,979,981.0208968212655,9692,-4333,-13421,17112.363775936978
1735580214350,60,-19,979,981.0208968212655,9781,-4347,-15279,18655.085392460685
1735580214381,66,-125,938,948.5910604681029,9875,-4349,-17106,20224.85258289909
1735580214411,66,-125,938,948.5910604681029,9998,-4329,17089,20266.57756011113
1735580214440,66,-125,938,948.5910604681029,10092,-4283,15291,18815.079962625725
1735580214470,56,-68,840,844.6064172145509,10167,-4220,13484,17406.738494043046
1735580214500,56,-68,840,844.6064172145509,10194,-4146,11641,16019.358070784234
1735580214530,56,-68,840,844.6064172145509,10194,-4067,9806,14717.872162782227
1735580214560,56,-68,840,844.6064172145509,10173,-3990,7977,13529.322155969234
1735580214591,179,-199,939,976.4030929897754,10170,-3933,6243,12564.729921490552
1735580214620,179,-199,939,976.4030929897754,10163,-3882,4556,11794.644081107323
1735580214650,179,-199,939,976.4030929897754,10145,-3834,2872,11219.13387922615
1735580214680,61,-44,1039,1041.7187720301483,10108,-3792,1159,10857.909973839349
1735580214710,61,-44,1039,1041.7187720301483,10035,-3758,-630,10734.090040613597
1735580214740,61,-44,1039,1041.7187720301483,9967,-3740,-2419,10916.970733678825
1735580214770,151,-62,1015,1028.041827942813,9900,-3748,-4196,11387.006630366033
1735580214800,151,-62,1015,1028.041827942813,9795,-3814,-5852,12030.566279273806
1735580214830,151,-62,1015,1028.041827942813,9724,-3900,-7512,12891.715169053341
1735580214860,151,-62,1015,1028.041827942813,9685,-3998,-9175,13927.090650957938
1735580214890,121,-156,916,937.034150925141,9674,-4053,-10855,15094.505954154312
1735580214920,121,-156,916,937.034150925141,9708,-4102,-12548,16386.70107129559
1735580214950,121,-156,916,937.034150925141,9748,-4142,-14245,17751.047659222822
1735580214981,162,-51,890,906.0601525285173,9729,-4185,-15901,19105.220935650024
1735580215010,162,-51,890,906.0601525285173,9643,-4250,-17516,20441.62921589177
1735580215041,162,-51,890,906.0601525285173,9586,-4331,16863,19874.851596930228
1735580215070,139,-113,949,965.7592867790607,9593,-4418,15200,18509.03490190669
1735580215100,139,-113,949,965.7592867790607,9750,-4479,13429,17189.007592063015
1735580215131,139,-113,949,965.7592867790607,9896,-4507,11654,15939.24656312211
1735580215160,139,-113,949,965.7592867790607,10023,-4507,9880,14777.955812628485
1735580215190,157,-16,1008,1020.2788834431495,10057,-4486,8140,13694.051445792074
1735580215220,157,-16,1008,1020.2788834431495,10050,-4466,6410,12729.326612197521
1735580215250,157,-16,1008,1020.2788834431495,10040,-4447,4681,11936.882758911557
1735580215280,22,-200,963,983.7952022651868,10096,-4413,2879,11388.258251374527
1735580215310,22,-200,963,983.7952022651868,10275,-4320,972,11188.512367602763
1735580215340,22,-200,963,983.7952022651868,10390,-4190,-914,11240.266722814009
1735580215370,205,-70,906,931.5369021139205,10455,-4045,-2785,11550.985888659028
1735580215400,205,-70,906,931.5369021139205,10280,-3975,-4456,11888.438122814956
1735580215432,205,-70,906,931.5369021139205,10122,-3940,-6130,12472.18441172195
1735580215461,205,-70,906,931.5369021139205,9985,-3937,-7805,13270.953959682025
1735580215491,-20,-62,907,909.3365713529837,9980,-3912,-9618,14401.738367294414
1735580215521,-20,-62,907,909.3365713529837,10008,-3867,-11508,15733.65237317769
1735580215551,-20,-62,907,909.3365713529837,10017,-3816,-13394,17155.21439679493
1735580215581,166,-99,1083,1100.111812499075,9974,-3790,-15211,18580.07796000867
1735580215612,166,-99,1083,1100.111812499075,9879,-3810,-16898,19941.242313356506
1735580215642,166,-99,1083,1100.111812499075,9807,-3848,17412,20350.972876007672
1735580215671,30,-36,1033,1034.0623772287627,9748,-3891,15727,18907.72101550052
1735580215701,30,-36,1033,1034.0623772287627,9726,-3905,13907,17414.038876722425
1735580215731,30,-36,1033,1034.0623772287627,9713,-3924,12086,15994.109571964298
1735580215761,30,-36,1033,1034.0623772287627,9707,-3946,10264,14667.871727009342
1735580215791,72,-35,887,890.6054120652984,9705,-4002,8450,13476.109564707464
1735580215821,72,-35,887,890.6054120652984,9710,-4060,6648,12448.4378136375
1735580215851,72,-35,887,890.6054120652984,9730,-4116,4842,11621.502484618759
1735580215881,188,-145,945,974.3685134485822,9780,-4192,3170,11102.70975933353
1735580215911,188,-145,945,974.3685134485822,9842,-4262,1538,10834.89972265549
1735580215941,188,-145,945,974.3685134485822,9910,-4319,-97,10810.70164235421
1735580215971,140,-127,1066,1082.6287452307924,9979,-4346,-1762,11026.00566841864
1735580216002,140,-127,1066,1082.6287452307924,10054,-4318,-3532,11497.959123253135
1735580216031,140,-127,1066,1082.6287452307924,10107,-4275,-5297,12185.45374616801
1735580216061,272,-67,1069,1105.0945660892555,10122,-4245,-7019,13028.479189836395
1735580216091,272,-67,1069,1105.0945660892555,9961,-4300,-8511,13789.439510001848
1735580216121,272,-67,1069,1105.0945660892555,9839,-4383,-10007,14702.267138098125
1735580216151,272,-67,1069,1105.0945660892555,9753,-4486,-11507,15737.09801710595
1735580216181,52,-210,885,911.0592735931072,9963,-4480,-13372,17266.793361826047
1735580216211,52,-210,885,911.0592735931072,10214,-4398,-15311,18923.396127545395
1735580216241,52,-210,885,911.0592735931072,10386,-4264,-17227,20562.592759669194
1735580216271,186,32,1013,1030.4314630289587,10401,-4134,16961,20321.07964651485
1735580216301,186,32,1013,1030.4314630289587,10211,-4067,15268,18812.67748089038
1735580216331,186,32,1013,1030.4314630289587,10041,-4038,13573,17359.534959209017
1735580216361,54,-36,1051,1053.0018993335198,9886,-4051,11894,15987.83390581726
1735580216392,54,-36,1051,1053.0018993335198,9886,-4075,10105,14712.227771483149
1735580216421,54,-36,1051,1053.0018993335198,9892,-4098,8315,13556.713945495789
1735580216451,54,-36,1051,1053.0018993335198,9904,-4120,6523,12554.407393421643
1735580216482,93,-160,977,994.3731693886355,9923,-4129,4756,11753.046668842935
1735580216511,93,-160,977,994.3731693886355,9964,-4131,3004,11196.895685858648
1735580216541,93,-160,977,994.3731693886355,9997,-4124,1253,10886.569432103026
1735580216571,190,-69,942,963.4443419315928,10014,-4109,-486,10835.14065437085
1735580216601,190,-69,942,963.4443419315928,9956,-4111,-2168,10987.37825871122
1735580216631,190,-69,942,963.4443419315928,9908,-4124,-3851,11402.01916328858
1735580216661,55,-116,1068,1075.6881518358375,9881,-4146,-5549,12067.098988572192
1735580216691,55,-116,1068,1075.6881518358375,10005,-4130,-7427,13126.966671702949
1735580216721,55,-116,1068,1075.6881518358375,10101,-4087,-9299,14324.984153568897
1735580216751,55,-116,1068,1075.6881518358375,10165,-4024,-11164,15625.450297511428
1735580216781,132,-53,1000,1010.0658394382021,10118,-3962,-12964,16915.574598576306
1735580216811,132,-53,1000,1010.0658394382021,10034,-3923,-14736,18254.335950672103
1735580216841,132,-53,1000,1010.0658394382021,9956,-3903,-16507,19668.15685314717
1735580216871,239,-94,981,1014.060156006536,9849,-3921,17809,20725.287042644308
1735580216901,239,-94,981,1014.060156006536,9733,-3983,16228,19337.620381008623
1735580216932,239,-94,981,1014.060156006536,9650,-4065,14644,18002.59595169541
1735580216961,305,14,1084,1126.178049866006,9629,-4155,13022,16719.872906215525
1735580216991,305,14,1084,1126.178049866006,9548,-4253,11403,15468.701367600319
1735580217021,305,14,1084,1126.178049866006,9503,-4365,9778,14316.75654608962
1735580217051,305,14,1084,1126.178049866006,9493,-4483,8146,13288.026715806978
1735580217082,272,-114,990,1032.995643746865,9542,-4577,6492,12415.50470178317
1735580217142,272,-114,990,1032.995643746865,9646,-4651,4817,11742.257278734784
1735580217142,272,-114,990,1032.995643746865,9752,-4705,3136,11272.66716442919
1735580217172,106,-171,930,951.5130056914619,9899,-4730,1415,11061.886186360805
1735580217202,106,-171,930,951.5130056914619,10134,-4692,-421,11175.422184418807
1735580217233,106,-171,930,951.5130056914619,10311,-4609,-2243,11514.801387779122
1735580217262,291,16,915,960.2926637228882,10420,-4504,-4021,12042.875777819847
1735580217292,291,16,915,960.2926637228882,10182,-4485,-5523,12421.428178756258
1735580217321,291,16,915,960.2926637228882,9982,-4506,-7028,13012.960616247174
1735580217352,291,16,915,960.2926637228882,9821,-4559,-8537,13788.288182366947
1735580217382,186,-140,1037,1062.8099547896604,9919,-4596,-10234,14974.796592942423
1735580217411,186,-140,1037,1062.8099547896604,10073,-4595,-11974,16308.158387751819
1735580217441,186,-140,1037,1062.8099547896604,10199,-4565,-13710,17686.800897844696
1735580217472,244,-180,1090,1131.3867596891878,10258,-4534,-15383,19037.34248785791
1735580217501,244,-180,1090,1131.3867596891878,10278,-4511,-16989,20362.03639128464
1735580217531,244,-180,1090,1131.3867596891878,10289,-4484,17406,20710.833228047588
1735580217561,207,-10,1007,1028.1040803342821,10307,-4441,15786,19368.90616426235
1735580217591,207,-10,1007,1028.1040803342821,10225,-4371,14091,17950.279858542595
1735580217621,207,-10,1007,1028.1040803342821,10142,-4317,12399,16590.113140060257
1735580217651,207,-10,1007,1028.1040803342821,10061,-4279,10708,15303.425302852953
1735580217682,187,-84,945,966.979834329548,9965,-4278,9088,14149.001837585576
1735580217742,187,-84,945,966.979834329548,9910,-4288,7458,13123.140172992133
1735580217742,187,-84,945,966.979834329548,9867,-4308,5827,12242.160021826214
1735580217772,90,-160,916,934.2141082214505,9952,-4313,4070,11584.868277196767
1735580217802,90,-160,916,934.2141082214505,10135,-4262,2200,11212.62096924711
1735580217832,90,-160,916,934.2141082214505,10266,-4174,342,11087.38003317285
1735580217861,81,-12,1005,1008.3303030257496,10327,-4062,-1478,11195.144349225695
1735580217891,81,-12,1005,1008.3303030257496,10202,-3964,-3258,11419.661290949045
1735580217921,81,-12,1005,1008.3303030257496,10076,-3895,-5037,11919.235294262799
1735580217951,81,-12,1005,1008.3303030257496,9956,-3854,-6816,12666.219167533774
1735580217982,-7,0,875,875.0279995520143,9823,-3833,-8616,13616.852573190326
1735580218012,-7,0,875,875.0279995520143,9722,-3834,-10450,14779.016882052743
1735580218042,-7,0,875,875.0279995520143,9642,-3857,-12286,16086.963946002987
1735580218072,-30,-203,864,888.0343461826237,9642,-3894,-14117,17533.427759568294
1735580218102,-30,-203,864,888.0343461826237,9763,-3903,-15959,19111.23384295216
1735580218132,-30,-203,864,888.0343461826237,9864,-3886,-17798,20716.377482561955
1735580218161,306,-20,1013,1058.3973733905427,9970,-3858,16352,19536.452287966717
1735580218191,306,-20,1013,1058.3973733905427,9753,-3927,14838,18185.394744134646
1735580218222,306,-20,1013,1058.3973733905427,9587,-4035,13322,16901.70044699645
1735580218252,306,-20,1013,1058.3973733905427,9470,-4171,11804,15697.533468669528
1735580218282,191,-24,1055,1072.4187614919836,9483,-4260,10143,14524.301635534839
1735580218342,191,-24,1055,1072.4187614919836,9543,-4334,8431,13451.177123211188
1735580218342,191,-24,1055,1072.4187614919836,9611,-4396,6713,12520.403587744286
1735580218371,55,0,1016,1017.4875920619377,9714,-4426,4889,11741.106975068407
1735580218401,55,0,1016,1017.4875920619377,9857,-4408,2934,11189.247919319689
1735580218432,55,0,1016,1017.4875920619377,9965,-4360,987,10921.766981583154
1735580218462,-31,-109,906,913.0596913674374,10022,-4299,-916,10943.534209751437
1735580218492,-31,-109,906,913.0596913674374,10170,-4211,-2841,11368.056210276232
1735580218521,-31,-109,906,913.0596913674374,10260,-4093,-4750,12024.256692203473
1735580218552,-31,-109,906,913.0596913674374,10297,-3956,-6644,12877.1456852829
1735580218582,185,-28,954,972.1753956977105,10151,-3892,-8310,13683.806670660033
1735580218612,185,-28,954,972.1753956977105,9959,-3884,-9903,14571.772232642123
1735580218641,185,-28,954,972.1753956977105,9800,-3913,-11500,15607.740675703195
1735580218671,141,7,935,945.597694582638,9719,-3962,-13170,16840.585055157673
1735580218701,141,7,935,945.597694582638,9684,-4015,-14905,18222.489017694592
1735580218731,141,7,935,945.597694582638,9668,-4075,-16643,19673.97514484554
1735580218761,120,-103,930,943.349882069214,9658,-4130,17612,20506.496726647387
1735580218791,120,-103,930,943.349882069214,9741,-4157,15837,19051.98937119166
1735580218821,120,-103,930,943.349882069214,9815,-4166,14061,17646.571961715395
1735580218852,120,-103,930,943.349882069214,9877,-4160,12287,16304.327585030915
1735580218882,192,-92,940,963.8091097307599,9846,-4152,10579,15036.557485009658
1735580218942,192,-92,940,963.8091097307599,9800,-4158,8896,13873.27574871919
1735580218943,192,-92,940,963.8091097307599,9765,-4173,7212,12836.747952655298
1735580218972,208,-170,870,910.5295162706149,9717,-4211,5573,11967.077295647421
1735580219002,208,-170,870,910.5295162706149,9703,-4264,3962,11314.917100889426
1735580219032,208,-170,870,910.5295162706149,9703,-4319,2349,10877.489186388557
1735580219062,179,-43,903,921.5741966873856,9686,-4382,783,10659.906613099385
1735580219092,179,-43,903,921.5741966873856,9552,-4478,-718,10573.963873590641
1735580219122,179,-43,903,921.5741966873856,9459,-4596,-2224,10749.049864988068
1735580219152,179,-43,903,921.5741966873856,9406,-4727,-3737,11170.61027876275
1735580219182,34,-156,938,951.4914608129702,9742,-4807,-5599,12221.3998379891
1735580219212,34,-156,938,951.4914608129702,10106,-4799,-7525,13482.850662971834
1735580219241,34,-156,938,951.4914608129702,10394,-4718,-9434,14808.616275668703
1735580219271,101,-74,919,927.490161672888,10538,-4596,-11271,16099.941024736705
1735580219301,101,-74,919,927.490161672888,10537,-4474,-13027,17342.08101699447
1735580219332,101,-74,919,927.490161672888,10503,-4353,-14771,18639.851367433163
1735580219361,200,43,823,848.0436309530306,10463,-4241,-16525,20013.397387750036
1735580219390,200,43,823,848.0436309530306,10278,-4186,17796,20972.779882504845
1735580219422,200,43,823,848.0436309530306,10114,-4167,16116,19477.739627585128
1735580219451,200,43,823,848.0436309530306,9976,-4180,14433,18036.19874031111
1735580219482,237,-50,1042,1069.7817534431965,9862,-4210,12807,16703.364720917758
1735580219512,237,-50,1042,1069.7817534431965,9791,-4260,11191,15467.700604808719
1735580219541,237,-50,1042,1069.7817534431965,9743,-4322,9572,14325.812961224923
1735580219571,220,-142,969,1003.7554483040179,9741,-4392,7961,13324.94900553094
1735580219601,220,-142,969,1003.7554483040179,9808,-4453,6342,12499.881479438114
1735580219631,220,-142,969,1003.7554483040179,9879,-4502,4720,11838.118304865853
1735580219660,103,-105,961,972.1908248898465,9960,-4533,3078,11367.663480240783
1735580219692,103,-105,961,972.1908248898465,10117,-4511,1264,11149.013678348412
1735580219721,103,-105,961,972.1908248898465,10236,-4459,-541,11178.150920434024
1735580219752,81,-76,916,922.7095967854675,10308,-4379,-2339,11441.216106690757
1735580219782,81,-76,916,922.7095967854675,10316,-4275,-4156,11915.024842609435
1735580219811,81,-76,916,922.7095967854675,10293,-4171,-5963,12605.572537572421
1735580219841,81,-76,916,922.7095967854675,10247,-4073,-7763,13485.34415578631
1735580219871,-62,-165,836,854.3798920854821,10290,-3955,-9643,14646.281917264872
1735580219901,-62,-165,836,854.3798920854821,10336,-3806,-11559,15966.496578773942
1735580219931,-62,-165,836,854.3798920854821,10329,-3650,-13462,17356.15697670426
1735580219961,149,-123,946,965.5288706196205,10285,-3511,-15340,18799.573027066333
1735580219991,149,-123,946,965.5288706196205,10088,-3472,-16972,20046.72821185542
1735580220021,149,-123,946,965.5288706196205,9919,-3474,17392,20320.848924196056
1735580220051,270,-94,992,1032.3759005323593,9766,-3515,15763,18873.31846814439
1735580220082,270,-94,992,1032.3759005323593,9531,-3626,14277,17544.815929498945
1735580220112,270,-94,992,1032.3759005323593,9357,-3779,12792,16293.23644952101
1735580220142,270,-94,992,1032.3759005323593,9241,-3960,11309,15131.793086082032
1735580220172,170,-110,979,999.7204609289539,9262,-4106,9664,14001.313366966686
1735580220202,170,-110,979,999.7204609289539,9340,-4235,7971,12988.75151814061
1735580220232,170,-110,979,999.7204609289539,9437,-4346,6270,12134.973629967228
1735580220261,-35,-33,953,954.2132885262079,9571,-4434,4540,11483.727487188122
1735580220291,-35,-33,953,954.2132885262079,9844,-4448,2523,11092.996394121834
1735580220321,-35,-33,953,954.2132885262079,10066,-4402,515,10998.508307947946
1735580220352,77,-133,969,981.1111048194286,10202,-4316,-1440,11170.598014430561
1735580220382,77,-133,969,981.1111048194286,10244,-4246,-3185,11537.429393066725
1735580220411,77,-133,969,981.1111048194286,10259,-4169,-4923,12118.728109830668
1735580220441,77,-133,969,981.1111048194286,10251,-4088,-6654,12886.832853730974
1735580220471,81,-62,996,1001.2097682304143,10182,-4013,-8363,13773.781688410776
1735580220501,81,-62,996,1001.2097682304143,10090,-3957,-10068,14792.923071523086
1735580220531,81,-62,996,1001.2097682304143,10001,-3921,-11774,15938.046241619453
1735580220561,219,-66,985,1011.2081882579868,9903,-3908,-13461,17162.179173986035
1735580220591,219,-66,985,1011.2081882579868,9774,-3937,-15065,18384.375703297625
1735580220621,219,-66,985,1011.2081882579868,9673,-3989,-16672,19683.359316945876
1735580220651,266,-114,1089,1126.7976748289818,9605,-4054,17707,20548.206491078487
1735580220681,266,-114,1089,1126.7976748289818,9572,-4121,16114,19190.279336163923
1735580220712,266,-114,1089,1126.7976748289818,9560,-4192,14518,17881.241232084532
1735580220741,266,-114,1089,1126.7976748289818,9566,-4265,12919,16631.270005624945
1735580220771,95,86,1046,1053.820193391643,9605,-4315,11148,15334.704235817528
1735580220801,95,86,1046,1053.820193391643,9639,-4354,9306,14087.912300976323
1735580220831,95,86,1046,1053.820193391643,9678,-4384,7460,12982.093051584556
1735580220861,126,-89,1039,1050.3894515845063,9722,-4410,5660,12083.086691735683
1735580220891,126,-89,1039,1050.3894515845063,9822,-4419,3899,11454.319971085146
1735580220921,126,-89,1039,1050.3894515845063,9906,-4409,2141,11052.239501567092
1735580220951,129,-133,928,946.316014870297,9968,-4382,385,10895.465708265985
1735580220981,129,-133,928,946.316014870297,10035,-4340,-1365,11018.169085651209
1735580221011,129,-133,928,946.316014870297,10078,-4285,-3111,11384.446846465577
1735580221042,129,-133,928,946.316014870297,10098,-4223,-4850,11971.876753458499
1735580221071,248,-2,987,1017.6821704245388,10019,-4197,-6463,12639.839358156416
1735580221101,248,-2,987,1017.6821704245388,9891,-4205,-8033,13418.010098371517
1735580221131,248,-2,987,1017.6821704245388,9787,-4236,-9606,14352.84992605998
1735580221161,178,-150,985,1012.1309203853027,9715,-4271,-11220,15443.803482303185
1735580221191,178,-150,985,1012.1309203853027,9748,-4294,-12898,16727.831419523573
1735580221222,178,-150,985,1012.1309203853027,9780,-4309,-14576,18074.17099067064
1735580221252,44,-29,907,908.5295812465326,9837,-4321,-16261,19489.93922514896
1735580221281,44,-29,907,908.5295812465326,9932,-4304,17889,20908.977999892773
1735580221311,44,-29,907,908.5295812465326,10003,-4267,16044,19382.394950057125
1735580221341,44,-29,907,908.5295812465326,10050,-4216,14206,17904.959983200184
1735580221371,18,-48,957,958.3720571886474,10108,-4163,12346,16490.17734895535
1735580221402,18,-48,957,958.3720571886474,10149,-4094,10484,15155.10781881805
1735580221432,18,-48,957,958.3720571886474,10162,-4017,8630,13924.059501452872
1735580221462,84,-137,1014,1026.6552488542588,10129,-3923,6821,12826.246956923915
1735580221492,84,-137,1014,1026.6552488542588,10081,-3834,5070,11917.676661161771
1735580221521,84,-137,1014,1026.6552488542588,10019,-3755,3322,11203.395467446466
1735580221551,151,-37,1063,1074.3086148774942,9945,-3701,1589,10729.648037097955
1735580221581,151,-37,1063,1074.3086148774942,9751,-3712,-49,10433.759916731839
1735580221611,151,-37,1063,1074.3086148774942,9594,-3763,-1690,10443.23249765129
1735580221642,151,-37,1063,1074.3086148774942,9476,-3844,-3334,10755.764407981424
1735580221671,113,64,987,995.5069060533934,9386,-3938,-5057,11365.653918714928
1735580221701,113,64,987,995.5069060533934,9318,-4051,-6800,12226.026541767362
1735580221731,113,64,987,995.5069060533934,9290,-4175,-8551,13298.658804556195
1735580221761,164,-79,936,953.53709943557,9353,-4308,-10309,14570.962699835587
1735580221791,164,-79,936,953.53709943557,9503,-4419,-12049,15969.125555270708
1735580221821,164,-79,936,953.53709943557,9656,-4497,-13798,17431.183235799
1735580221851,125,-156,1025,1044.311256283298,9808,-4539,-15562,18946.641628531426
1735580221881,125,-156,1025,1044.311256283298,10042,-4517,-17390,20582.933537277917
1735580221911,125,-156,1025,1044.311256283298,10224,-4450,16793,20157.815481842274
1735580221941,125,-156,1025,1044.311256283298,10350,-4346,14991,18728.061752354406
1735580221971,142,-113,1060,1075.4222426563438,10342,-4219,13252,17331.255840244237
1735580222001,142,-113,1060,1075.4222426563438,10289,-4099,11528,15986.247402064062
1735580222031,142,-113,1060,1075.4222426563438,10216,-3990,9808,14713.382343975161
1735580222061,259,-13,1051,1082.5206695486233,10051,-3914,8170,13531.108491176914
1735580222091,259,-13,1051,1082.5206695486233,9793,-3905,6631,12454.79967723287
1735580222121,259,-13,1051,1082.5206695486233,9578,-3943,5087,11539.623130761247
1735580222152,111,-74,881,891.0432088288424,9419,-4006,3506,10819.317584764762
1735580222181,111,-74,881,891.0432088288424,9465,-4033,1681,10424.829734820612
1735580222211,111,-74,881,891.0432088288424,9509,-4049,-143,10336.146815907754
1735580222241,111,-74,881,891.0432088288424,9550,-4055,-1968,10560.234325051693
1735580222271,134,17,905,915.0245898335191,9446,-4081,-3618,10907.401202853043
1735580222301,134,17,905,915.0245898335191,9339,-4132,-5261,11487.75286990454
1735580222331,134,17,905,915.0245898335191,9263,-4203,-6909,12296.449040271747
1735580222361,168,0,891,906.7000606595326,9242,-4296,-8559,13308.89405623172
1735580222391,168,0,891,906.7000606595326,9253,-4395,-10195,14452.406685393267
1735580222421,168,0,891,906.7000606595326,9287,-4489,-11837,15700.766191495242
1735580222451,35,10,915,915.7237574727435,9366,-4574,-13518,17069.849325638465
1735580222481,35,10,915,915.7237574727435,9606,-4610,-15430,18751.326246428544
1735580222511,35,10,915,915.7237574727435,9810,-4595,-17339,20444.829321860332
1735580222541,35,10,915,915.7237574727435,9969,-4538,16760,20021.788256796644
1735580222571,327,46,980,1034.1397391068579,9941,-4522,15083,18621.730692929697
1735580222601,327,46,980,1034.1397391068579,9835,-4542,13522,17326.323124079154
1735580222631,327,46,980,1034.1397391068579,9752,-4580,11958,16095.703401839884
1735580222661,155,-105,1078,1094.1361889636958,9798,-4592,10276,14922.581680124924
1735580222691,155,-105,1078,1094.1361889636958,10007,-4534,8437,13852.081937383997
1735580222721,155,-105,1078,1094.1361889636958,10158,-4437,6614,12908.018012072962
1735580222751,213,-95,1104,1128.3660753496624,10230,-4321,4836,12112.424901727978
1735580222782,213,-95,1104,1128.3660753496624,10177,-4237,3186,11474.933289566436
1735580222841,213,-95,1104,1128.3660753496624,10114,-4163,1539,11045.002761430167
1735580222842,213,-95,1104,1128.3660753496624,10045,-4101,-104,10850.393633412568
1735580222871,249,-31,978,1009.6761857150044,9927,-4081,-1708,10868.171603356288
1735580222902,249,-31,978,1009.6761857150044,9803,-4090,-3301,11123.107029962446
1735580222931,249,-31,978,1009.6761857150044,9703,-4122,-4896,11623.678806642929
1735580222961,132,-12,988,996.8510420318574,9615,-4146,-6543,12346.999230582303
1735580222991,132,-12,988,996.8510420318574,9573,-4162,-8284,13326.26087843098
1735580223021,132,-12,988,996.8510420318574,9543,-4187,-10027,14461.692397503137
1735580223051,-5,-77,1026,1028.897468166775,9543,-4226,-11774,15733.880671976638
1735580223082,-5,-77,1026,1028.897468166775,9739,-4241,-13686,17324.572087067547
1735580223111,-5,-77,1026,1028.897468166775,9902,-4212,-15593,18945.505984269726
1735580223142,-5,-77,1026,1028.897468166775,10023,-4150,-17491,20581.98508404862
1735580223172,188,42,965,984.0391252384226,9889,-4093,16794,19914.40197445055
1735580223201,188,42,965,984.0391252384226,9699,-4089,15150,18447.57496257977
1735580223231,188,42,965,984.0391252384226,9543,-4121,13502,17039.8208323914
1735580223261,124,-59,1093,1101.5924836344882,9519,-4222,11866,15787.292389767157
1735580223291,124,-59,1093,1101.5924836344882,9633,-4326,10193,14676.723544442744
1735580223321,124,-59,1093,1101.5924836344882,9753,-4407,8513,13675.299887022587
1735580223351,4,130,834,844.0805648751782,9852,-4427,6834,12781.384471175257
1735580223382,4,130,834,844.0805648751782,9827,-4354,5034,11868.7994759369
1735580223411,4,130,834,844.0805648751782,9787,-4288,3240,11165.56818975192
1735580223441,4,130,834,844.0805648751782,9738,-4232,1450,10716.387824262427
1735580223471,101,-225,942,973.7504813862738,9866,-4288,-213,10759.65933475591
1735580223501,101,-225,942,973.7504813862738,10053,-4308,-1842,11091.196373701081
1735580223531,101,-225,942,973.7504813862738,10211,-4293,-3469,11607.253378814474
1735580223561,168,-101,1097,1114.376058608583,10358,-4208,-5223,12339.982050230057
1735580223591,168,-101,1097,1114.376058608583,10391,-4095,-6995,13178.464667782815
1735580223621,168,-101,1097,1114.376058608583,10387,-3975,-8757,14155.403314635723
1735580223651,117,-158,1124,1141.0648535468963,10307,-3855,-10500,15210.038592981939
1735580223682,117,-158,1124,1141.0648535468963,10205,-3735,-12270,16390.39810376795
1735580223711,117,-158,1124,1141.0648535468963,10092,-3639,-14039,17668.738098687183
1735580223742,142,-50,954,965.805363414389,9951,-3565,-15791,19002.29741373395
1735580223772,142,-50,954,965.805363414389,9669,-3541,-17485,20291.709316861405
1735580223801,142,-50,954,965.805363414389,9435,-3578,16814,19609.485077380283
1735580223831,142,-50,954,965.805363414389,9252,-3663,15112,18093.91104764252
1735580223861,178,-25,875,893.2715152740515,9115,-3780,13455,16685.582099525327
1735580223891,178,-25,875,893.2715152740515,9016,-3925,11807,15365.517563687856
1735580223922,178,-25,875,893.2715152740515,8967,-4084,10154,14148.84663143961
1735580223952,138,16,824,835.6291043279907,8979,-4254,8495,13072.260018833775
1735580223982,138,16,824,835.6291043279907,9056,-4427,6780,12148.163029857642
1735580224012,138,16,824,835.6291043279907,9165,-4579,5049,11421.77162265119
1735580224042,60,-30,971,973.3144404559094,9321,-4710,3297,10951.499897274345
1735580224072,60,-30,971,973.3144404559094,9639,-4789,1421,10856.522601643677
1735580224101,60,-30,971,973.3144404559094,9923,-4803,-458,11033.789104382955
1735580224131,60,-30,971,973.3144404559094,10156,-4762,-2331,11456.637421163332
1735580224161,169,-75,1002,1018.9160907552692,10287,-4713,-4095,12033.443522117848
1735580224191,169,-75,1002,1018.9160907552692,10365,-4650,-5804,12757.042799959558
1735580224221,169,-75,1002,1018.9160907552692,10411,-4573,-7504,13623.922562903828
1735580224251,13,-91,1018,1022.1418688225231,10475,-4463,-9261,14676.856441350103
1735580224281,13,-91,1018,1022.1418688225231,10571,-4297,-11121,15933.82851043653
1735580224341,13,-91,1018,1022.1418688225231,10598,-4112,-12957,17236.87898083641
1735580224342,77,-68,1010,1015.2108155452246,10551,-3918,-14772,18571.114909988577
1735580224370,77,-68,1010,1015.2108155452246,10378,-3753,-16504,19853.712725835438
1735580224402,77,-68,1010,1015.2108155452246,10199,-3627,17762,20800.56186741118
1735580224431,77,-68,1010,1015.2108155452246,10024,-3540,16026,19231.350758592074
1735580224461,174,-70,971,988.947420240328,9809,-3510,14342,17726.52095025981
1735580224491,174,-70,971,988.947420240328,9612,-3534,12687,16304.590427238581
1735580224521,174,-70,971,988.947420240328,9456,-3598,11029,14966.642275406999
1735580224551,94,-79,1021,1028.3569419224048,9383,-3689,9307,13721.13912909566
1735580224582,94,-79,1021,1028.3569419224048,9390,-3781,7505,12601.312868110212
1735580224612,94,-79,1021,1028.3569419224048,9420,-3868,5699,11669.465497613848
1735580224641,83,-70,1029,1034.7125204616013,9458,-3944,3898,10963.726738659625
1735580224671,83,-70,1029,1034.7125204616013,9491,-4010,2105,10516.187807375827
1735580224701,83,-70,1029,1034.7125204616013,9535,-4067,308,10370.707690413417
1735580224731,83,-70,1029,1034.7125204616013,9587,-4113,-1492,10538.187794872512
1735580224761,43,-105,997,1003.4355983320504,9671,-4136,-3326,11031.63691389451
1735580224791,43,-105,997,1003.4355983320504,9762,-4134,-5175,11796.91591052509
1735580224821,43,-105,997,1003.4355983320504,9835,-4112,-7021,12764.411854840786
1735580224851,99,-135,1018,1031.6733979317291,9876,-4093,-8822,13860.581120573552
1735580224882,99,-135,1018,1031.6733979317291,9894,-4078,-10570,15041.483304514884
1735580224911,99,-135,1018,1031.6733979317291,9904,-4061,-12316,16317.622161332209
1735580224942,-23,-49,957,958.5296030900663,9914,-4038,-14065,17675.323617970902
1735580224971,-23,-49,957,958.5296030900663,9932,-3986,-15954,19211.0108011005
1735580225002,-23,-49,957,958.5296030900663,9932,-3932,-17839,20792.671040537338
1735580225031,-23,-49,957,958.5296030900663,9916,-3879,16279,19451.98031049795
1735580225061,28,-78,947,950.61927184336,9868,-3837,14456,17918.591713636426
1735580225091,28,-78,947,950.61927184336,9815,-3810,12652,16459.751790352126
1735580225121,28,-78,947,950.61927184336,9765,-3794,10848,15080.741526861337
1735580225152,79,-104,932,941.1062639255995,9714,-3796,9083,13830.122956792538
1735580225182,79,-104,932,941.1062639255995,9666,-3815,7362,12735.180603352275
1735580225212,79,-104,932,941.1062639255995,9631,-3844,5639,11803.847593052022
1735580225241,25,-30,961,961.7931170475281,9633,-3881,3896,11092.144337322698
1735580225271,25,-30,961,961.7931170475281,9660,-3913,2057,10623.48426835565
1735580225301,25,-30,961,961.7931170475281,9692,-3938,216,10463.716548148655
1735580225331,25,-30,961,961.7931170475281,9724,-3956,-1624,10622.78155663572
1735580225362,2,-13,995,995.0869308758909,9787,-3957,-3495,11120.172795420043
1735580225391,2,-13,995,995.0869308758909,9839,-3943,-5373,11883.698877033194
1735580225421,2,-13,995,995.0869308758909,9876,-3917,-7248,12861.250677908429
1735580225451,136,-11,1040,1048.9122937595878,9863,-3902,-9055,13946.232394449764
1735580225482,136,-11,1040,1048.9122937595878,9794,-3917,-10759,15067.229539633356
1735580225512,136,-11,1040,1048.9122937595878,9742,-3946,-12465,16305.020852485899
1735580225541,83,-5,1156,1158.9866263249114,9705,-3979,-14192,17647.44542419667
1735580225571,83,-5,1156,1158.9866263249114,9711,-3999,-16019,19154.735263114446
1735580225601,83,-5,1156,1158.9866263249114,9721,-4017,-17847,20715.92476815843
1735580225631,83,-5,1156,1158.9866263249114,9735,-4032,16322,19427.684705080017
1735580225661,217,-69,1060,1084.1817190858735,9622,-4062,14627,17973.087019207356
1735580225691,217,-69,1060,1084.1817190858735,9526,-4121,12979,16618.717098500714
1735580225721,217,-69,1060,1084.1817190858735,9460,-4197,11327,15342.989865081709
1735580225751,167,-106,976,995.8418549147249,9445,-4277,9658,14169.605428521996
1735580225781,167,-106,976,995.8418549147249,9494,-4346,7949,13122.894231075705
1735580225811,167,-106,976,995.8418549147249,9552,-4404,6235,12227.475005085882
1735580225841,194,-115,971,996.8460262247124,9641,-4453,4498,11533.00021676927
1735580225871,194,-115,971,996.8460262247124,9763,-4491,2753,11093.43314758781
1735580225902,194,-115,971,996.8460262247124,9873,-4504,1006,10898.356802747834
1735580225931,194,-115,971,996.8460262247124,9966,-4497,-738,10958.50395811399
1735580225961,223,-83,1005,1032.7841013493576,10018,-4471,-2463,11243.510750650796
1735580225991,223,-83,1005,1032.7841013493576,10039,-4441,-4174,11744.201888591664
1735580226021,223,-83,1005,1032.7841013493576,10049,-4407,-5881,12449.506456080899
1735580226051,187,-73,940,961.1961298299115,10010,-4374,-7558,13283.649347976632
1735580226082,187,-73,940,961.1961298299115,9961,-4348,-9241,14266.138440376919
1735580226111,187,-73,940,961.1961298299115,9915,-4331,-10923,15374.547635621673
1735580226141,41,-45,986,987.8775227729398,9878,-4322,-12607,16588.88233124824
1735580226171,41,-45,986,987.8775227729398,9936,-4282,-14463,18062.05937870873
1735580226201,41,-45,986,987.8775227729398,9971,-4232,-16312,19580.909299621406
1735580226231,41,-45,986,987.8775227729398,9984,-4175,17844,20869.097177405638
1735580226261,-35,15,920,920.7877062602432,9981,-4105,15976,19279.625566903524
1735580226291,-35,15,920,920.7877062602432,9958,-4033,14086,17715.59338548952
1735580226321,-35,15,920,920.7877062602432,9919,-3969,12201,16217.395691047315
1735580226351,4,-41,931,931.9109399508088,9904,-3932,10363,14864.104715723715
1735580226382,4,-41,931,931.9109399508088,9908,-3907,8570,13670.333317077531
1735580226412,4,-41,931,931.9109399508088,9905,-3881,6778,12613.979150133395
1735580226442,56,-37,976,978.3051671130027,9911,-3855,4977,11741.357459851055
1735580226472,56,-37,976,978.3051671130027,9901,-3832,3214,11092.511933732594
1735580226502,56,-37,976,978.3051671130027,9887,-3813,1453,10695.93132924852
1735580226531,56,-37,976,978.3051671130027,9870,-3796,-308,10579.290146318892
1735580226561,59,-105,963,970.5024471890836,9922,-3780,-2100,10823.330541011856
1735580226591,59,-105,963,970.5024471890836,9975,-3748,-3890,11343.730823675252
1735580226622,59,-105,963,970.5024471890836,10009,-3705,-5676,12088.17943281783
1735580226651,209,-57,1051,1073.0941244830296,9966,-3670,-7395,12941.255000964937
1735580226681,209,-57,1051,1073.0941244830296,9838,-3677,-9005,13834.615932507848
1735580226710,209,-57,1051,1073.0941244830296,9734,-3710,-10617,14873.988873197399
1735580226742,16,-48,979,980.3065846968489,9651,-3755,-12247,16038.417471808121
1735580226772,16,-48,979,980.3065846968489,9691,-3761,-14117,17531.408699816453
1735580226802,16,-48,979,980.3065846968489,9725,-3759,-15986,19085.541700460064
1735580226831,16,-48,979,980.3065846968489,9751,-3749,-17855,20686.663022343648
1735580226861,29,-66,1057,1059.4555205387342,9748,-3766,16340,19395.923798571697
1735580226891,29,-66,1057,1059.4555205387342,9752,-3783,14539,17910.7541438098
1735580226921,29,-66,1057,1059.4555205387342,9760,-3798,12737,16489.802090989448
1735580226951,6,-78,1013,1016.0162400276878,9765,-3803,10920,15134.87475997076
1735580226982,6,-78,1013,1016.0162400276878,9778,-3797,9085,13876.73297285784
1735580227012,6,-78,1013,1016.0162400276878,9788,-3789,7249,12755.762070531106
1735580227042,270,-82,949,990.0631293003493,9788,-3787,5411,11807.846289649946
1735580227072,270,-82,949,990.0631293003493,9625,-3854,3848,11058.980287531034
1735580227101,270,-82,949,990.0631293003493,9503,-3951,2283,10541.79771196545
1735580227131,270,-82,949,990.0631293003493,9423,-4069,714,10288.803914935885
1735580227161,194,-136,969,997.5434827615286,9485,-4188,-888,10406.397695648577
1735580227191,194,-136,969,997.5434827615286,9594,-4284,-2527,10806.62856768937
1735580227221,194,-136,969,997.5434827615286,9709,-4358,-4173,11431.131789984753
1735580227251,89,-129,865,879.0830449963189,9861,-4383,-5918,12307.425969714383
1735580227282,89,-129,865,879.0830449963189,10042,-4349,-7769,13420.615708677453
1735580227312,89,-129,865,879.0830449963189,10177,-4278,-9609,14635.7607933445
1735580227341,-38,-145,914,926.210019380054,10267,-4189,-11428,15923.510730991455
1735580227371,-38,-145,914,926.210019380054,10414,-4057,-13356,17415.320295647736
1735580227401,-38,-145,914,926.210019380054,10490,-3893,-15263,18924.97603697294
1735580227431,85,-65,1013,1018.6358525007845,10497,-3719,-17143,20442.612822239724
1735580227461,85,-65,1013,1018.6358525007845,10319,-3602,17129,20318.92728467721
1735580227491,85,-65,1013,1018.6358525007845,10148,-3525,15399,18775.96149335634
1735580227521,85,-65,1013,1018.6358525007845,9990,-3486,13667,17284.073159993277
1735580227552,144,-141,1006,1025.988791361777,9837,-3481,11962,15873.669204062431
1735580227582,144,-141,1006,1025.988791361777,9717,-3508,10301,14588.925731526637
1735580227611,144,-141,1006,1025.988791361777,9626,-3560,8638,13414.489181478362
1735580227641,127,-125,993,1008.862230435851,9573,-3629,6962,12380.68713763497
1735580227671,127,-125,993,1008.862230435851,9559,-3704,5245,11515.386315708214
1735580227702,127,-125,993,1008.862230435851,9566,-3780,3525,10873.01158833191
1735580227730,160,-96,974,991.7116516407377,9590,-3854,1809,10492.563890679914
1735580227762,160,-96,974,991.7116516407377,9582,-3933,143,10358.74809038235
1735580227792,160,-96,974,991.7116516407377,9595,-4012,-1527,10511.51264090949
1735580227821,160,-96,974,991.7116516407377,9624,-4086,-3202,10934.78742363106
1735580227851,200,-126,947,976.0558385666262,9665,-4139,-4866,11585.400381514659
1735580227882,200,-126,947,976.0558385666262,9710,-4185,-6517,12420.531953181393
1735580227911,200,-126,947,976.0558385666262,9759,-4221,-8171,13409.704060865773
1735580227942,124,-173,989,1011.645194719967,9830,-4254,-9838,14543.440445781735
1735580227972,124,-173,989,1011.645194719967,10032,-4256,-11616,15927.523850241128
1735580228002,124,-173,989,1011.645194719967,10195,-4217,-13389,17348.960631692033
1735580228032,95,-96,1050,1058.6505561326646,10317,-4139,-15162,18800.48015344289
1735580228061,95,-96,1050,1058.6505561326646,10348,-4026,-16972,20281.48327908982
1735580228091,95,-96,1050,1058.6505561326646,10342,-3907,17226,20468.431522713214
1735580228121,95,-96,1050,1058.6505561326646,10305,-3791,15432,18939.676079595447
1735580228151,93,-108,1072,1081.4328458115187,10244,-3691,13653,17463.316580764378
1735580228182,93,-108,1072,1081.4328458115187,10172,-3604,11875,16045.997164402093
1735580228212,93,-108,1072,1081.4328458115187,10092,-3534,10099,14708.07332725806
1735580228241,118,-114,1075,1087.4488493717763,10010,-3476,8322,13473.617183221439
1735580228271,118,-114,1075,1087.4488493717763,9925,-3436,6556,12381.149260064672
1735580228301,118,-114,1075,1087.4488493717763,9847,-3416,4789,11470.265297716527
1735580228332,57,-49,972,974.9020463615819,9769,-3415,3038,10785.408198116565
1735580228362,57,-49,972,974.9020463615819,9666,-3431,1259,10333.847202276604
1735580228392,57,-49,972,974.9020463615819,9587,-3469,-521,10208.622385023358
1735580228422,57,-49,972,974.9020463615819,9533,-3524,-2305,10421.597286404805
1735580228452,85,-86,1018,1025.156085676713,9542,-3587,-4085,10981.965124694214
1735580228481,85,-86,1018,1025.156085676713,9570,-3645,-5857,11797.261292350864
1735580228512,85,-86,1018,1025.156085676713,9608,-3696,-7632,12814.89383490944
1735580228541,209,-91,975,1001.2926645092333,9597,-3748,-9326,13896.912930575625
1735580228571,209,-91,975,1001.2926645092333,9540,-3822,-10913,14990.4253775535
1735580228601,209,-91,975,1001.2926645092333,9510,-3905,-12503,16186.850651068602
1735580228631,152,-130,984,1004.1215065917072,9506,-3992,-14098,17465.786669944184
1735580228662,152,-130,984,1004.1215065917072,9597,-4062,-15766,18898.91555089868
1735580228692,152,-130,984,1004.1215065917072,9689,-4112,-17436,20366.623701536788
1735580228721,152,-130,984,1004.1215065917072,9776,-4144,16890,19950.313581495404
1735580228751,205,-87,982,1006.9349532119738,9820,-4162,15235,18597.3081116596
1735580228782,205,-87,982,1006.9349532119738,9838,-4179,13600,17297.695944836123
1735580228811,205,-87,982,1006.9349532119738,9856,-4192,11963,16056.991281058852
1735580228841,180,-76,1030,1048.368255910107,9889,-4195,10301,14882.907881190422
1735580228871,180,-76,1030,1048.368255910107,9926,-4186,8612,13791.831495490365
1735580228901,180,-76,1030,1048.368255910107,9953,-4169,6925,12821.79375126585
1735580228931,188,-85,1077,1096.584698051181,9955,-4150,5257,11998.357137541789
1735580228962,188,-85,1077,1096.584698051181,9926,-4142,3637,11353.827944794653
1735580228991,188,-85,1077,1096.584698051181,9899,-4139,2016,10917.223914530654
1735580229021,188,-85,1077,1096.584698051181,9877,-4141,395,10717.230752391217
1735580229051,214,-132,1020,1050.5331979523542,9863,-4149,-1229,10770.487964804566
1735580229082,214,-132,1020,1050.5331979523542,9859,-4159,-2844,11071.83354282388
1735580229112,214,-132,1020,1050.5331979523542,9858,-4170,-4459,11595.332897334169
1735580229141,157,-63,996,1010.2643218484952,9844,-4169,-6093,12304.858633889298
1735580229171,157,-63,996,1010.2643218484952,9816,-4163,-7769,13192.489757433963
1735580229201,157,-63,996,1010.2643218484952,9792,-4163,-9446,14228.167450518707
1735580229232,220,-130,982,1014.7038976962689,9777,-4169,-11127,15387.671006360904
1735580229262,220,-130,982,1014.7038976962689,9786,-4189,-12748,16607.980641848062
1735580229291,220,-130,982,1014.7038976962689,9798,-4207,-14370,17894.036800006867
1735580229321,220,-130,982,1014.7038976962689,9812,-4222,-15993,19232.17816577207
1735580229351,217,-104,1060,1086.9705607789017,9831,-4240,-17628,20624.561692312396
1735580229382,217,-104,1060,1086.9705607789017,9846,-4255,16735,19877.34806255603
1735580229411,217,-104,1060,1086.9705607789017,9862,-4268,15098,18531.715301072374
1735580229441,171,-147,922,949.175431624734,9896,-4267,13426,17216.14303495414
1735580229471,171,-147,922,949.175431624734,9964,-4244,11714,15953.3892323857
1735580229501,171,-147,922,949.175431624734,10013,-4209,10005,14767.392288417072
1735580229531,87,-154,1037,1051.9762354730262,10042,-4165,8309,13683.145471710808
1735580229561,87,-154,1037,1051.9762354730262,10112,-4094,6542,12720.500933532452
1735580229591,87,-154,1037,1051.9762354730262,10150,-4010,4783,11915.52302670764
1735580229621,87,-154,1037,1051.9762354730262,10158,-3920,3030,11301.869933776446
1735580229652,207,-162,976,1010.7764342326151,10059,-3850,1390,10859.930064231537
1735580229682,207,-162,976,1010.7764342326151,9943,-3812,-208,10650.720961512417
1735580229711,207,-162,976,1010.7764342326151,9839,-3797,-1808,10700.093177164394
1735580229742,172,-134,987,1010.796220808131,9777,-3796,-3474,11048.43975410103
1735580229772,172,-134,987,1010.796220808131,9737,-3801,-5191,11670.614850983644
1735580229801,172,-134,987,1010.796220808131,9705,-3815,-6910,12509.570336346489
1735580229832,201,-99,966,991.6440893788456,9681,-3837,-8616,13515.908626503806
1735580229862,201,-99,966,991.6440893788456,9619,-3878,-10263,14590.860632601492
1735580229891,201,-99,966,991.6440893788456,9577,-3930,-11913,15782.376183578948
1735580229921,201,-99,966,991.6440893788456,9555,-3990,-13565,17065.384554706055
1735580229952,149,-136,947,968.2489349335738,9592,-4036,-15273,18481.34976131343
1735580229982,149,-136,947,968.2489349335738,9653,-4066,-17002,19969.495962592548
1735580230012,149,-136,947,968.2489349335738,9711,-4084,17267,20227.008330447683
1735580230041,91,-11,910,914.6048327009868,9732,-4089,15524,18773.02109411269
1735580230071,91,-11,910,914.6048327009868,9707,-4094,13743,17316.37184862926
1735580230101,91,-11,910,914.6048327009868,9687,-4104,11960,15928.665512214135
1735580230131,182,-40,1075,1091.0311636245776,9676,-4120,10180,14636.658635084717
1735580230161,182,-40,1075,1091.0311636245776,9635,-4159,8508,13509.869355400888
1735580230191,182,-40,1075,1091.0311636245776,9611,-4204,6834,12519.923841621401
1735580230221,182,-40,1075,1091.0311636245776,9602,-4253,5156,11699.17727876623
1735580230251,66,-38,1004,1006.8843031848297,9684,-4260,3323,11089.17422534248
1735580230282,66,-38,1004,1006.8843031848297,9777,-4238,1449,10754.06778851612
1735580230311,66,-38,1004,1006.8843031848297,9846,-4198,-420,10711.830842577752
1735580230341,116,-91,1039,1049.408404769087,9894,-4161,-2230,10962.57529050542
1735580230371,116,-91,1039,1049.408404769087,9931,-4125,-3981,11466.854276566002
1735580230401,116,-91,1039,1049.408404769087,9952,-4082,-5729,12187.143594788731
1735580230431,30,-80,1008,1011.6145511013569,9956,-4035,-7470,13084.496971607277
1735580230461,30,-80,1008,1011.6145511013569,9992,-3966,-9295,14211.482857182778
1735580230492,30,-80,1008,1011.6145511013569,10002,-3891,-11114,15449.947605089152
1735580230522,30,-80,1008,1011.6145511013569,9989,-3816,-12927,16776.450935761117
1735580230551,35,-127,979,987.823364777327,9961,-3746,-14724,18167.284139353356
1735580230582,35,-127,979,987.823364777327,9931,-3682,-16517,19621.242926991144
1735580230611,35,-127,979,987.823364777327,9890,-3625,17692,20590.278992767435
1735580230641,74,-97,1024,1031.24245451785,9839,-3582,15910,19046.384040021876
1735580230671,74,-97,1024,1031.24245451785,9762,-3560,14153,17557.837366828524
1735580230701,74,-97,1024,1031.24245451785,9695,-3556,12394,16132.247115637672
1735580230731,92,-84,956,964.0829839801136,9636,-3566,10636,14788.28414658036
1735580230761,92,-84,956,964.0829839801136,9563,-3596,8900,13549.619367347557
1735580230791,92,-84,956,964.0829839801136,9511,-3641,7161,12449.735860651823
1735580230821,92,-84,956,964.0829839801136,9479,-3696,5420,11527.71690318599
1735580230851,82,-138,976,989.1127337164354,9516,-3745,3651,10858.594844638048
1735580230882,82,-138,976,989.1127337164354,9574,-3780,1877,10462.934817726813
1735580230912,82,-138,976,989.1127337164354,9630,-3802,101,10353.854596236128
1735580230941,124,-92,953,965.4268486011771,9649,-3821,-1629,10505.088433706782
1735580230971,124,-92,953,965.4268486011771,9625,-3850,-3315,10883.58167149032
1735580231001,124,-92,953,965.4268486011771,9612,-3883,-5004,11511.22274130772
1735580231032,-12,-144,1002,1012.3655466282918,9615,-3911,-6701,12355.06159434262
1735580231061,-12,-144,1002,1012.3655466282918,9758,-3887,-8563,13551.83758757461
1735580231092,-12,-144,1002,1012.3655466282918,9866,-3831,-10418,14850.900343076846
1735580231121,-12,-144,1002,1012.3655466282918,9937,-3753,-12266,16226.020276087418
1735580231151,-32,-103,1059,1064.4782759643335,9973,-3701,-14062,17632.299169422007
1735580231182,-32,-103,1059,1064.4782759643335,9982,-3643,-15862,19092.271132581373
1735580231211,-32,-103,1059,1064.4782759643335,9974,-3584,-17658,20594.43361687813
1735580231241,-52,-162,1084,1097.2711606526439,9970,-3511,16461,19562.529028732457
1735580231271,-52,-162,1084,1097.2711606526439,9981,-3424,14534,17960.548237734838
1735580231301,-52,-162,1084,1097.2711606526439,9964,-3338,12612,16416.03131088632
1735580231331,-31,-97,1055,1059.903297475765,9907,-3256,10704,14944.089165954545
1735580231361,-31,-97,1055,1059.903297475765,9741,-3208,8840,13539.717316103759
1735580231391,-31,-97,1055,1059.903297475765,9595,-3202,6973,12285.746131187963
1735580231422,-31,-97,1055,1059.903297475765,9476,-3231,5104,11237.648908913288
1735580231452,89,-106,907,917.4998637602079,9306,-3298,3346,10424.689731593933
1735580231482,89,-106,907,917.4998637602079,9166,-3406,1628,9912.960001936859
1735580231512,89,-106,907,917.4998637602079,9078,-3541,-92,9744.599991790325
1735580231541,84,-116,933,943.9284930544262,9073,-3688,-1848,9966.733517055625
1735580231571,84,-116,933,943.9284930544262,9128,-3825,-3630,10541.722297613422
1735580231601,84,-116,933,943.9284930544262,9209,-3945,-5420,11390.5709251117
1735580231631,15,-135,1013,1022.0660448327202,9332,-4046,-7242,12486.108440983524
1735580231661,15,-135,1013,1022.0660448327202,9568,-4101,-9198,13891.29328032491
1735580231692,15,-135,1013,1022.0660448327202,9774,-4100,-11153,15386.048388068979
1735580231722,55,-61,1059,1062.1803048447096,9940,-4055,-13097,16934.521959594844
1735580231752,55,-61,1059,1062.1803048447096,9980,-4002,-14983,18441.98180782098
1735580231782,55,-61,1059,1062.1803048447096,9997,-3940,-16862,19994.765640036894
1735580231812,55,-61,1059,1062.1803048447096,9992,-3877,17262,20318.657362138867
1735580231842,90,-142,1054,1067.3237559428724,9976,-3800,15433,18765.34212318017
1735580231872,90,-142,1054,1067.3237559428724,9955,-3726,13620,17276.848699922102
1735580231901,90,-142,1054,1067.3237559428724,9919,-3658,11811,15851.41148289325
1735580231932,116,-166,1005,1025.2009559105961,9852,-3601,10028,14511.715577422265
1735580231962,116,-166,1005,1025.2009559105961,9751,-3569,8322,13306.969827875917
1735580231992,116,-166,1005,1025.2009559105961,9661,-3559,6614,12237.091075905253
1735580232022,29,-83,865,869.4567269277983,9592,-3572,4907,11350.960179650001
1735580232052,29,-83,865,869.4567269277983,9532,-3603,3114,10655.403746456537
1735580232082,29,-83,865,869.4567269277983,9491,-3646,1318,10252.293450735791
1735580232112,29,-83,865,869.4567269277983,9469,-3697,-479,10176.40462049343
1735580232141,62,-172,979,995.926202085275,9497,-3760,-2207,10449.950143421738
1735580232171,62,-172,979,995.926202085275,9551,-3812,-3927,11007.918695193928
1735580232201,62,-172,979,995.926202085275,9609,-3852,-5648,11792.823622864882
1735580232231,10,-119,896,903.9231161996024,9687,-3870,-7432,12808.180706095616
1735580232261,10,-119,896,903.9231161996024,9759,-3863,-9274,14005.996073110973
1735580232292,10,-119,896,903.9231161996024,9816,-3841,-11114,15317.575950521676
1735580232322,159,-125,976,996.7356720816207,9860,-3813,-12950,16717.089130587297
1735580232352,159,-125,976,996.7356720816207,9816,-3821,-14626,18024.25513024047
1735580232382,159,-125,976,996.7356720816207,9782,-3837,-16303,19395.821766555808
1735580232412,159,-125,976,996.7356720816207,9758,-3860,-17982,20819.95408256224
1735580232442,-29,-165,1042,1055.3814476292446,9863,-3839,16168,19324.101893749164
1735580232472,-29,-165,1042,1055.3814476292446,9985,-3774,14259,17811.86071133502
1735580232502,-29,-165,1042,1055.3814476292446,10063,-3683,12359,16357.669118795624
1735580232532,7,-99,1061,1065.6317375153576,10046,-3597,10526,14988.56901108308
1735580232561,7,-99,1061,1065.6317375153576,9954,-3542,8743,13713.786092833736
1735580232591,7,-99,1061,1065.6317375153576,9865,-3509,6959,12572.151247897076
1735580232621,51,-30,964,965.8141643194099,9779,-3493,5167,11598.611080642371
1735580232651,51,-30,964,965.8141643194099,9616,-3510,3406,10788.345192845842
1735580232682,51,-30,964,965.8141643194099,9489,-3563,1641,10267.861072297384
1735580232712,51,-30,964,965.8141643194099,9398,-3642,-125,10079.791317284302
1735580232742,81,-140,1042,1054.4785441155263,9436,-3734,-1926,10329.101025742753
1735580232772,81,-140,1042,1054.4785441155263,9513,-3809,-3720,10901.561814712606
1735580232801,81,-140,1042,1054.4785441155263,9595,-3865,-5518,11723.931678408911
1735580232831,5,-131,1091,1098.8480331692822,9710,-3898,-7356,12790.200936654592
1735580232861,5,-131,1091,1098.8480331692822,9844,-3892,-9252,14058.85855964132
1735580232892,5,-131,1091,1098.8480331692822,9951,-3856,-11144,15429.83710218614
1735580232921,125,-212,1069,1096.963992116423,10017,-3802,-13021,16862.441519542772
1735580232952,125,-212,1069,1096.963992116423,10039,-3769,-14749,18235.12772096757
1735580232982,125,-212,1069,1096.963992116423,10049,-3732,-16476,19656.26620190111
1735580233012,125,-212,1069,1096.963992116423,10047,-3693,17799,20769.806426637682
1735580233042,92,-154,969,985.4648649241636,9975,-3655,16082,19274.085555480964
1735580233072,92,-154,969,985.4648649241636,9898,-3633,14353,17809.483484930155
1735580233102,92,-154,969,985.4648649241636,9831,-3629,12622,16405.276163478626
1735580233132,115,-141,954,971.1961696794319,9744,-3634,10906,15069.582874120968
1735580233161,115,-141,954,971.1961696794319,9649,-3660,9208,13830.620557299662
1735580233191,115,-141,954,971.1961696794319,9578,-3706,7507,12721.146528516996
1735580233222,71,-113,973,982.1094643673891,9525,-3767,5805,11773.442105009053
1735580233251,71,-113,973,982.1094643673891,9493,-3838,4054,11012.820211008622
1735580233282,71,-113,973,982.1094643673891,9486,-3914,2298,10515.911562960198
1735580233312,71,-113,973,982.1094643673891,9499,-3990,538,10317.002713966882
1735580233341,88,-117,1018,1028.4731401451377,9604,-4052,-1277,10501.726000996217
1735580233371,88,-117,1018,1028.4731401451377,9704,-4091,-3091,10975.344094833656
1735580233401,88,-117,1018,1028.4731401451377,9796,-4107,-4905,11699.918375783653
1735580233431,-54,-107,1001,1008.1497904577474,9929,-4098,-6743,12682.534998966097
1735580233462,-54,-107,1001,1008.1497904577474,10097,-4034,-8665,13903.409294126386
1735580233491,-54,-107,1001,1008.1497904577474,10212,-3934,-10574,15217.449720633218
1735580233521,51,-158,1062,1074.8995301887521,10269,-3812,-12466,16594.723890441805
1735580233551,51,-158,1062,1074.8995301887521,10257,-3707,-14233,17931.1513015757
1735580233582,51,-158,1062,1074.8995301887521,10219,-3607,-15996,19321.242868925383
1735580233612,51,-158,1062,1074.8995301887521,10164,-3516,-17756,20759.207306638662
1735580233642,-27,-151,1008,1019.6048254103155,10080,-3414,16416,19563.917092443426
1735580233671,-27,-151,1008,1019.6048254103155,9996,-3327,14563,17974.145709880067
1735580233702,-27,-151,1008,1019.6048254103155,9905,-3261,12711,16441.18812616655
1735580233731,47,-115,993,1000.7412252925328,9765,-3223,10888,14976.36464566752
1735580233761,47,-115,993,1000.7412252925328,9590,-3234,9114,13619.539346101248
1735580233791,47,-115,993,1000.7412252925328,9450,-3286,7337,12406.928104893652
1735580233822,72,30,904,907.3588044428731,9355,-3366,5553,11387.791269600966
1735580233852,72,30,904,907.3588044428731,9179,-3484,3780,10520.489389757493
1735580233882,72,30,904,907.3588044428731,9064,-3636,2003,9969.383180518242
1735580233911,72,30,904,907.3588044428731,9009,-3808,220,9783.217517769908
1735580233941,168,-111,1054,1073.0615080227228,9073,-4021,-1439,10027.885669471905
1735580233971,168,-111,1054,1073.0615080227228,9193,-4210,-3076,10568.686058351814
1735580234001,168,-111,1054,1073.0615080227228,9339,-4372,-4727,11343.537102685388
1735580234031,55,-56,985,988.1224620460765,9536,-4478,-6481,12368.958767818736
1735580234061,55,-56,985,988.1224620460765,9762,-4519,-8355,13620.720612361154
1735580234091,55,-56,985,988.1224620460765,9957,-4514,-10229,14971.656087420657
1735580234122,-11,-177,1054,1068.8152319273897,10121,-4463,-12104,16396.945630208083
1735580234152,-11,-177,1054,1068.8152319273897,10394,-4333,-14056,18010.587469596878
1735580234182,-11,-177,1054,1068.8152319273897,10567,-4146,-15975,19597.230161428426
1735580234212,-11,-177,1054,1068.8152319273897,10646,-3922,-17865,21163.11945342652
1735580234242,33,-160,998,1011.2828486630236,10619,-3725,16340,19840.22142013541
1735580234272,33,-160,998,1011.2828486630236,10534,-3541,14569,18323.744104303576
1735580234301,33,-160,998,1011.2828486630236,10418,-3378,12801,16846.69727275943
1735580234332,113,-79,914,924.3408462250276,10207,-3247,11063,15398.56574489975
1735580234362,113,-79,914,924.3408462250276,9923,-3190,9373,14017.673059391847
1735580234391,113,-79,914,924.3408462250276,9679,-3198,7677,12761.135294322366
1735580234421,54,-127,950,959.9713537392665,9479,-3257,5981,11671.840086293163
1735580234451,54,-127,950,959.9713537392665,9392,-3339,4231,10828.663167722967
1735580234482,54,-127,950,959.9713537392665,9341,-3438,2478,10257.41726751915
1735580234512,54,-127,950,959.9713537392665,9324,-3546,722,10001.618668995534
1735580234541,90,-127,998,1010.0658394382021,9308,-3677,-991,10056.901809205458
1735580234572,90,-127,998,1010.0658394382021,9321,-3809,-2697,10424.170518559258
1735580234601,90,-127,998,1010.0658394382021,9363,-3935,-4410,11072.40235901857
1735580234631,58,-141,997,1008.5901050476353,9479,-4036,-6196,12022.111004312013
1735580234661,58,-141,997,1008.5901050476353,9639,-4095,-8038,13201.847976703868
1735580234691,58,-141,997,1008.5901050476353,9785,-4118,-9883,14504.40753702129
1735580234721,5,-84,997,1000.5448515683842,9906,-4111,-11715,15883.021815762893
1735580234751,5,-84,997,1000.5448515683842,9984,-4078,-13578,17339.908419596686
1735580234782,5,-84,997,1000.5448515683842,10037,-4029,-15436,18847.92577447184
1735580234812,5,-84,997,1000.5448515683842,10066,-3969,-17289,20395.755391747567
1735580234842,104,-88,1005,1014.1917964566662,9969,-3925,16997,20091.903717666974
1735580234872,104,-88,1005,1014.1917964566662,9863,-3910,15318,18633.517998488638
1735580234902,104,-88,1005,1014.1917964566662,9772,-3917,13637,17227.961051732153
1735580234932,55,-177,1024,1040.639226629479,9759,-3927,11896,15879.994521409635
1735580234962,55,-177,1024,1040.639226629479,9824,-3916,10099,14623.12664924981
1735580234992,55,-177,1024,1040.639226629479,9874,-3891,8304,13475.61401198476
1735580235022,45,-97,976,981.8401091827528,9915,-3853,6511,12471.806404847695
1735580235052,45,-97,976,981.8401091827528,9891,-3807,4708,11596.999353281002
1735580235082,45,-97,976,981.8401091827528,9860,-3767,2907,10948.083759270387
1735580235112,45,-97,976,981.8401091827528,9824,-3735,1108,10568.295274073298
1735580235142,177,-67,916,935.3469944357548,9669,-3753,-524,10385.04434270745
1735580235172,177,-67,916,935.3469944357548,9515,-3814,-2113,10466.450687792878
1735580235201,177,-67,916,935.3469944357548,9401,-3904,-3704,10832.341990539257
1735580235231,-71,-81,953,959.0677765413662,9460,-3985,-5452,11623.086035988894
1735580235262,-71,-81,953,959.0677765413662,9672,-4001,-7416,12827.807334069217
1735580235292,-71,-81,953,959.0677765413662,9846,-3968,-9374,14161.94252212598
1735580235322,-34,-83,1016,1019.9514694337178,9974,-3901,-11322,15584.805452747878
1735580235352,-34,-83,1016,1019.9514694337178,10036,-3828,-13219,17032.816590335256
1735580235382,-34,-83,1016,1019.9514694337178,10064,-3742,-15108,18534.78686146674
1735580235412,101,-113,1089,1099.4957935344728,10045,-3646,-16989,20070.41260163826
1735580235442,101,-113,1089,1099.4957935344728,9923,-3576,17271,20237.122967457602
1735580235471,101,-113,1089,1099.4957935344728,9807,-3535,15531,18705.224804850648
1735580235502,101,-113,1089,1099.4957935344728,9703,-3519,13789,17224.055590946053
1735580235532,76,-93,1026,1033.0058083089368,9604,-3525,12046,15804.06773587104
1735580235562,76,-93,1026,1033.0058083089368,9518,-3551,10288,14458.384038335682
1735580235591,76,-93,1026,1033.0058083089368,9455,-3596,8528,13230.836141378217
1735580235622,-60,-80,987,992.0529219754358,9420,-3650,6755,12152.73323166439
1735580235652,-60,-80,987,992.0529219754358,9481,-3683,4814,11252.930551638538
1735580235682,-60,-80,987,992.0529219754358,9540,-3700,2871,10627.522806374023
1735580235742,86,-57,913,918.8111884386259,9583,-3707,947,10318.553532351325
1735580235742,86,-57,913,918.8111884386259,9500,-3745,-783,10241.489833027224
1735580235772,86,-57,913,918.8111884386259,9441,-3800,-2518,10483.930799084856
1735580235802,86,-57,913,918.8111884386259,9407,-3865,-4256,11024.672784259858
1735580235831,-62,-181,867,887.8592230753702,9532,-3908,-6102,11973.549682529405
1735580235862,-62,-181,867,887.8592230753702,9703,-3900,-8001,13167.164083431178
1735580235892,-62,-181,867,887.8592230753702,9837,-3855,-9894,14474.765283071087
1735580235922,25,-93,958,962.8281258874815,9934,-3781,-11781,15867.333676456168
1735580235952,25,-93,958,962.8281258874815,9875,-3723,-13574,17193.88932150024
1735580235982,25,-93,958,962.8281258874815,9812,-3679,-15366,18599.041400029197
1735580236012,234,-127,1059,1091.9551272831682,9755,-3651,-17160,20073.74967463727
1735580236042,234,-127,1059,1091.9551272831682,9622,-3674,17259,20098.612912338005
1735580236071,234,-127,1059,1091.9551272831682,9517,-3722,15677,18713.495183957486
1735580236101,234,-127,1059,1091.9551272831682,9441,-3790,14093,17381.289652957286
1735580236132,185,-70,982,1001.7230156086063,9402,-3852,12436,16058.941559143928
1735580236162,185,-70,982,1001.7230156086063,9379,-3920,10757,14800.171958460483
1735580236192,185,-70,982,1001.7230156086063,9377,-3992,9074,13645.57323823371
1735580236222,257,-86,955,992.7084164043337,9355,-4076,7463,12642.237539296593
1735580236252,257,-86,955,992.7084164043337,9319,-4177,5927,11807.642398040347
1735580236282,257,-86,955,992.7084164043337,9311,-4282,4388,11148.308795507954
1735580236312,146,-98,944,960.2374706290107,9344,-4377,2814,10695.188684637593
1735580236342,146,-98,944,960.2374706290107,9520,-4422,1046,10548.86723776539
1735580236372,146,-98,944,960.2374706290107,9675,-4432,-723,10666.347922320929
1735580236402,146,-98,944,960.2374706290107,9804,-4410,-2489,11034.565555562212
1735580236432,18,-33,1011,1011.6985717099733,9919,-4358,-4343,11672.20519010868
1735580236462,18,-33,1011,1011.6985717099733,10008,-4275,-6235,12542.364769053722
1735580236492,18,-33,1011,1011.6985717099733,10053,-4174,-8115,13577.124511471491
1735580236522,167,-17,1019,1032.7337507799384,9997,-4085,-9905,14653.88204538306
1735580236552,167,-17,1019,1032.7337507799384,9849,-4041,-11572,15723.983782744117
1735580236582,167,-17,1019,1032.7337507799384,9718,-4028,-13240,16910.408274196103
1735580236612,63,-116,995,1003.7180879111426,9615,-4038,-14904,18190.18650261728
