Timestamp,Acc_X,Acc_Y,Acc_Z,Acc_Betrag,Ori_X,Ori_Y,Ori_Z,Ori_Betrag
1735580492050,162,-122,922,944.0402533790601,10315,-4032,-13854,17736.67288416855
1735580492050,162,-122,922,944.0402533790601,10123,-4167,-15452,18936.824496203157
1735580492066,162,-122,922,944.0402533790601,9993,-4338,-17055,20237.374286206203
1735580492095,139,-107,881,898.2933819192925,10152,-4445,17058,20341.988422963965
1735580492126,139,-107,881,898.2933819192925,10316,-4515,15153,18879.048969691245
1735580492156,139,-107,881,898.2933819192925,10471,-4550,13241,17483.375589399206
1735580492186,61,-247,1004,1035.7345219697952,10591,-4551,11406,16216.58774218547
1735580492216,61,-247,1004,1035.7345219697952,10761,-4502,9572,15089.410492129902
1735580492276,61,-247,1004,1035.7345219697952,10883,-4419,7750,14072.304359983122
1735580492277,57,-173,973,989.902520453403,10935,-4319,5973,13187.293695068749
1735580492306,57,-173,973,989.902520453403,10856,-4233,4263,12407.424954437565
1735580492336,57,-173,973,989.902520453403,10771,-4162,2556,11826.65722002629
1735580492366,57,-173,973,989.902520453403,10683,-4107,851,11476.852312372064
1735580492396,63,-137,874,886.9126225282849,10613,-4043,-897,11392.375827719168
1735580492426,63,-137,874,886.9126225282849,10530,-3996,-2643,11568.680348250617
1735580492455,63,-137,874,886.9126225282849,10451,-3967,-4387,12008.591049744346
1735580492485,66,-127,997,1007.2209290915275,10459,-3941,-6192,12777.4420757834
1735580492516,66,-127,997,1007.2209290915275,10489,-3904,-8021,13769.414584505763
1735580492546,66,-127,997,1007.2209290915275,10502,-3860,-9847,14904.865413682875
1735580492576,35,-188,950,969.0557259518155,10491,-3819,-11665,16146.766456476666
1735580492605,35,-188,950,969.0557259518155,10520,-3774,-13503,17528.390827454754
1735580492636,35,-188,950,969.0557259518155,10530,-3723,-15339,18974.365602043195
1735580492666,35,-188,950,969.0557259518155,10524,-3671,-17170,20470.45961867979
1735580492696,49,-166,964,979.4146210875147,10484,-3638,17059,20350.89140553799
1735580492726,49,-166,964,979.4146210875147,10435,-3617,15294,18864.73827011655
1735580492756,49,-166,964,979.4146210875147,10390,-3608,13529,17435.699154321286
1735580492786,120,-256,1057,1094.1594947721287,10357,-3601,11760,16078.938086826505
1735580492846,120,-256,1057,1094.1594947721287,10347,-3600,10025,14849.950639648605
1735580492846,120,-256,1057,1094.1594947721287,10339,-3601,8290,13732.66987879633
1735580492876,105,-225,984,1014.8428449765017,10315,-3612,6565,12749.313471712898
1735580492906,105,-225,984,1014.8428449765017,10249,-3646,4844,11907.965947213655
1735580492935,105,-225,984,1014.8428449765017,10204,-3694,3120,11291.662942188808
1735580492967,105,-225,984,1014.8428449765017,10179,-3751,1394,10937.334135885216
1735580492996,79,-232,899,931.8079201208799,10177,-3805,-394,10872.193430950352
1735580493026,79,-232,899,931.8079201208799,10196,-3854,-2195,11118.89189622779
1735580493056,79,-232,899,931.8079201208799,10226,-3899,-3999,11651.835821019793
1735580493086,166,-205,962,997.5093984519644,10231,-3971,-5747,12388.309448831184
1735580493116,166,-205,962,997.5093984519644,10205,-4075,-7424,13261.350836170499
1735580493146,166,-205,962,997.5093984519644,10210,-4184,-9108,14307.537174510504
1735580493176,145,-192,949,979.025025216414,10251,-4291,-10808,15501.88846560315
1735580493206,145,-192,949,979.025025216414,10336,-4385,-12557,16844.564998835678
1735580493236,145,-192,949,979.025025216414,10432,-4461,-14315,18265.98943391789
1735580493266,107,-280,969,1014.3027161552906,10528,-4512,-16095,19754.6438337926
1735580493296,107,-280,969,1014.3027161552906,10710,-4508,-17952,21384.584821782257
1735580493325,107,-280,969,1014.3027161552906,10855,-4467,16196,20002.388107423572
1735580493356,107,-280,969,1014.3027161552906,10959,-4396,14357,18588.91997938557
1735580493386,114,-330,941,1003.6817224598643,11015,-4307,12558,17250.6184816661
1735580493416,114,-330,941,1003.6817224598643,11046,-4205,10774,15992.97398859887
1735580493446,114,-330,941,1003.6817224598643,11042,-4095,9000,14822.104742579577
1735580493476,163,-230,974,1013.9748517591548,11022,-3985,7226,13768.797514670625
1735580493506,163,-230,974,1013.9748517591548,10891,-3910,5489,12807.462746383453
1735580493536,163,-230,974,1013.9748517591548,10767,-3862,3752,12038.307065364299
1735580493566,89,-233,961,992.8398662422858,10642,-3837,2024,11492.22819996192
1735580493596,89,-233,961,992.8398662422858,10556,-3810,238,11225.055901865255
1735580493626,89,-233,961,992.8398662422858,10480,-3802,-1548,11255.305771057489
1735580493656,89,-233,961,992.8398662422858,10416,-3810,-3336,11581.79830596268
1735580493686,188,-227,899,946.083505828106,10279,-3882,-4955,12053.206627283878
1735580493716,188,-227,899,946.083505828106,10163,-3991,-6542,12728.409719992518
1735580493775,188,-227,899,946.083505828106,10092,-4123,-8134,13601.821532427191
1735580493776,102,-195,850,878.0256260497184,10079,-4264,-9751,14657.760333693548
1735580493806,102,-195,850,878.0256260497184,10169,-4380,-11514,15973.889851880162
1735580493836,102,-195,850,878.0256260497184,10276,-4477,-13288,17384.20688441092
1735580493866,130,-236,1039,1073.3671319730263,10421,-4550,-15096,18899.44329867946
1735580493895,130,-236,1039,1073.3671319730263,10631,-4587,-16925,20506.446669279394
1735580493926,130,-236,1039,1073.3671319730263,10813,-4583,17247,20865.85409227238
1735580493956,130,-236,1039,1073.3671319730263,10958,-4543,15426,19459.65284890766
1735580493986,184,-223,946,989.1920945903278,11023,-4482,13643,18103.21247734777
1735580494045,184,-223,946,989.1920945903278,11044,-4418,11889,16817.757906451145
1735580494046,184,-223,946,989.1920945903278,11043,-4349,10142,15611.592295470697
1735580494076,116,-260,965,1006.1217620149164,11011,-4290,8445,14524.608290759514
1735580494107,116,-260,965,1006.1217620149164,11000,-4225,6737,13573.422339262857
1735580494136,116,-260,965,1006.1217620149164,10974,-4162,5034,12770.750800168329
1735580494166,111,-193,847,875.7733725114049,10943,-4105,3336,12154.388919234072
1735580494196,111,-193,847,875.7733725114049,10862,-4063,1637,11711.993084014352
1735580494226,111,-193,847,875.7733725114049,10786,-4037,-61,11516.895675484779
1735580494256,111,-193,847,875.7733725114049,10717,-4026,-1760,11582.76154464038
1735580494286,148,-208,890,925.8876821731673,10632,-4043,-3387,11868.320942745018
1735580494316,148,-208,890,925.8876821731673,10564,-4079,-5002,12379.674511068537
1735580494376,148,-208,890,925.8876821731673,10516,-4130,-6621,13095.067659237198
1735580494377,230,-242,849,912.2855912487054,10512,-4196,-8253,14007.87524930173
1735580494406,230,-242,849,912.2855912487054,10523,-4278,-9849,15034.547349355085
1735580494436,230,-242,849,912.2855912487054,10552,-4358,-11450,16169.086801671887
1735580494466,107,-281,859,910.1049390042887,10601,-4431,-13063,17397.03799501513
1735580494496,107,-281,859,910.1049390042887,10789,-4442,-14831,18870.411919192436
1735580494526,107,-281,859,910.1049390042887,10945,-4416,-16595,20363.892211460952
1735580494556,107,-281,859,910.1049390042887,11064,-4359,17648,21280.622194851352
1735580494586,131,-198,849,881.5701900586249,11110,-4264,15865,19832.095728893604
1735580494616,131,-198,849,881.5701900586249,11096,-4168,14101,18420.956571253297
1735580494646,131,-198,849,881.5701900586249,11058,-4074,12344,17066.082620214867
1735580494676,182,-205,996,1033.0367854050503,11013,-4002,10612,15808.754441764222
1735580494706,182,-205,996,1033.0367854050503,10952,-3956,8918,14667.207096103879
1735580494736,182,-205,996,1033.0367854050503,10891,-3923,7224,13645.145143969705
1735580494766,333,-289,1004,1096.5518683582643,10809,-3900,5548,12760.281540781143
1735580494796,333,-289,1004,1096.5518683582643,10670,-3940,4064,12078.435163546643
1735580494826,333,-289,1004,1096.5518683582643,10564,-4005,2578,11588.106186948755
1735580494856,333,-289,1004,1096.5518683582643,10489,-4090,1089,11310.753378975249
1735580494886,292,-237,895,970.8027606058813,10418,-4127,-464,11215.264107456409
1735580494916,292,-237,895,970.8027606058813,10362,-4176,-2037,11356.028751284492
1735580494945,292,-237,895,970.8027606058813,10327,-4235,-3613,11731.83374413395
1735580494975,193,-203,948,988.5150479380676,10321,-4264,-5227,12329.893186885278
1735580495006,193,-203,948,988.5150479380676,10345,-4261,-6917,13153.708032338258
1735580495036,193,-203,948,988.5150479380676,10365,-4254,-8605,14127.128724549799
1735580495066,374,-190,947,1035.753349017033,10379,-4236,-10291,15217.490528993274
1735580495096,374,-190,947,1035.753349017033,10249,-4259,-11765,16173.93913058906
1735580495126,374,-190,947,1035.753349017033,10146,-4303,-13242,17228.107528106506
1735580495156,374,-190,947,1035.753349017033,10069,-4365,-14720,18360.7294517402
1735580495186,229,-149,954,992.3497367359957,10132,-4389,-16344,19724.27643793303
1735580495216,229,-149,954,992.3497367359957,10213,-4387,17975,21134.13738480944
1735580495246,229,-149,954,992.3497367359957,10278,-4370,16296,19755.854828379357
1735580495276,271,-188,936,992.4117089192368,10287,-4335,14665,18430.323355817716
1735580495306,271,-188,936,992.4117089192368,10269,-4301,13084,17179.697843675833
1735580495336,271,-188,936,992.4117089192368,10246,-4270,11504,15986.101213241458
1735580495366,296,-145,936,992.339155732555,10221,-4245,9935,14872.561682507825
1735580495396,296,-145,936,992.339155732555,10140,-4237,8412,13839.563324035915
1735580495426,296,-145,936,992.339155732555,10072,-4243,6888,12918.698734779753
1735580495456,296,-145,936,992.339155732555,10017,-4261,5362,12134.556192955719
1735580495485,225,-177,998,1038.2475620005087,10056,-4253,3705,11529.881612575213
1735580495516,225,-177,998,1038.2475620005087,10109,-4229,2023,11143.10778014823
1735580495575,225,-177,998,1038.2475620005087,10146,-4195,344,10984.42884268454
1735580495576,427,-172,994,1095.421836554302,10095,-4180,-1229,10995.083719553935
1735580495606,427,-172,994,1095.421836554302,9946,-4220,-2634,11120.668684930777
1735580495636,427,-172,994,1095.421836554302,9830,-4284,-4041,11459.111527513815
1735580495666,369,-150,897,981.4631934005472,9742,-4371,-5433,11980.387890214573
1735580495696,369,-150,897,981.4631934005472,9710,-4471,-6870,12707.117729839447
1735580495726,369,-150,897,981.4631934005472,9704,-4575,-8311,13570.960246054809
1735580495756,369,-150,897,981.4631934005472,9719,-4680,-9757,14545.116362545883
1735580495786,317,-134,886,950.4951341274715,9743,-4744,-11281,15642.65150158374
1735580495816,317,-134,886,950.4951341274715,9788,-4800,-12832,16837.611707127588
1735580495846,317,-134,886,950.4951341274715,9838,-4848,-14388,18091.54200172003
1735580495876,383,-145,924,1010.6878845617969,9896,-4908,-15894,19355.581003937856
1735580495906,383,-145,924,1010.6878845617969,9936,-4979,-17333,20589.983632824966
1735580495936,383,-145,924,1010.6878845617969,9984,-5043,17221,20534.72536948084
1735580495966,390,-137,947,1033.285052635525,10036,-5095,15763,19368.853605724835
1735580495996,390,-137,947,1033.285052635525,10075,-5133,14294,18225.5795518277
1735580496026,390,-137,947,1033.285052635525,10115,-5164,12821,17127.70159712038
1735580496056,390,-137,947,1033.285052635525,10156,-5191,11347,16088.667626624649
1735580496086,407,-120,895,990.4917970382188,10183,-5211,9876,15112.35871728831
1735580496116,407,-120,895,990.4917970382188,10200,-5231,8413,14219.069238174487
1735580496146,407,-120,895,990.4917970382188,10219,-5248,6948,13425.504422553366
1735580496176,281,-134,931,981.6710243253592,10311,-5249,5405,12770.385546255055
1735580496206,281,-134,931,981.6710243253592,10486,-5202,3740,12288.392897364569
1735580496236,281,-134,931,981.6710243253592,10614,-5127,2088,11970.917633999492
1735580496266,322,-190,973,1042.3593430290728,10697,-5043,463,11835.202871096042
1735580496296,322,-190,973,1042.3593430290728,10755,-4978,-1073,11899.657053881847
1735580496326,322,-190,973,1042.3593430290728,10786,-4903,-2601,12130.226955832277
1735580496356,322,-190,973,1042.3593430290728,10793,-4822,-4122,12519.24187001753
1735580496386,307,-163,940,1002.2065655342715,10767,-4689,-5706,13056.548012395926
1735580496416,307,-163,940,1002.2065655342715,10711,-4558,-7286,13732.686590758562
1735580496447,307,-163,940,1002.2065655342715,10636,-4435,-8859,14535.322562640295
1735580496476,295,-162,907,967.428550333305,10496,-4343,-10360,15373.915083673384
1735580496506,295,-162,907,967.428550333305,10345,-4284,-11834,16291.569506956657
1735580496536,295,-162,907,967.428550333305,10210,-4250,-13311,17305.759763731843
1735580496566,379,-135,971,1051.0504269539117,10102,-4226,-14808,18417.012352713456
1735580496596,379,-135,971,1051.0504269539117,9942,-4218,-16244,19506.471336456525
1735580496626,379,-135,971,1051.0504269539117,9807,-4236,-17683,20659.366737632594
1735580496656,379,-135,971,1051.0504269539117,9699,-4277,16875,19928.09461539161
1735580496686,266,-190,937,992.3834944213854,9700,-4302,15366,18673.809466737097
1735580496716,266,-190,937,992.3834944213854,9746,-4313,13810,17444.27083600802
1735580496746,266,-190,937,992.3834944213854,9786,-4316,12254,16265.121210738025
1735580496776,368,-102,1002,1072.3021962114972,9772,-4310,10729,15138.676461302686
1735580496806,368,-102,1002,1072.3021962114972,9665,-4327,9281,14080.913145105327
1735580496836,368,-102,1002,1072.3021962114972,9580,-4361,7830,13118.826967377838
1735580496866,333,-104,1037,1094.108769729957,9520,-4404,6375,12274.617753722516
1735580496896,333,-104,1037,1094.108769729957,9515,-4443,4868,11574.666215489759
1735580496924,333,-104,1037,1094.108769729957,9519,-4483,3359,11044.977636917152
1735580496956,333,-104,1037,1094.108769729957,9530,-4520,1848,10708.240004781364
1735580496986,298,-109,1020,1068.2158021673335,9593,-4529,268,10611.753577990774
1735580497016,298,-109,1020,1068.2158021673335,9656,-4523,-1325,10744.835503626848
1735580497046,298,-109,1020,1068.2158021673335,9707,-4507,-2917,11092.690701538559
1735580497076,297,-135,953,1007.29489227336,9753,-4473,-4503,11636.397509538767
1735580497106,297,-135,953,1007.29489227336,9797,-4426,-6083,12352.06760020362
1735580497136,297,-135,953,1007.29489227336,9822,-4371,-7660,13200.489574254434
1735580497166,258,-124,919,962.5492195207474,9839,-4305,-9247,14172.013089183907
1735580497196,258,-124,919,962.5492195207474,9872,-4212,-10903,15299.435839271982
1735580497226,258,-124,919,962.5492195207474,9876,-4114,-12553,16493.57999343987
1735580497256,405,-107,899,991.8039120713328,9842,-4024,-14162,17709.31348189421
1735580497286,405,-107,899,991.8039120713328,9659,-3991,-15529,18718.285258003736
1735580497316,405,-107,899,991.8039120713328,9502,-3987,-16899,19792.937477797477
1735580497346,405,-107,899,991.8039120713328,9370,-4010,17729,20449.802957485925
1735580497376,289,-100,971,1018.0186638760608,9395,-4035,16181,19140.84666361444
1735580497406,289,-100,971,1018.0186638760608,9445,-4047,14587,17842.836181504328
1735580497436,289,-100,971,1018.0186638760608,9489,-4050,12993,16591.011723219293
1735580497466,307,-112,945,999.9089958591231,9510,-4043,11413,15396.185176854688
1735580497496,307,-112,945,999.9089958591231,9495,-4036,9882,14286.295706025408
1735580497526,307,-112,945,999.9089958591231,9481,-4031,8350,13261.252655763708
1735580497556,406,-117,950,1039.7235209419857,9470,-4029,6816,12343.889054912961
1735580497586,406,-117,950,1039.7235209419857,9395,-4043,5392,11562.246235053119
1735580497616,406,-117,950,1039.7235209419857,9336,-4069,3968,10929.898489922036
1735580497646,406,-117,950,1039.7235209419857,9291,-4105,2543,10470.938592122484
1735580497676,427,-124,972,1068.872770726245,9197,-4120,1167,10145.003597830806
1735580497706,427,-124,972,1068.872770726245,9118,-4151,-199,10020.395501176588
1735580497736,427,-124,972,1068.872770726245,9057,-4193,-1568,10102.926407729594
1735580497766,342,-88,984,1045.4491857570124,8993,-4240,-2900,10356.719992352791
1735580497795,342,-88,984,1045.4491857570124,8978,-4289,-4321,10847.6285887746
1735580497826,342,-88,984,1045.4491857570124,8975,-4340,-5744,11505.640399386728
1735580497856,370,-92,937,1011.5992289439529,8993,-4376,-7193,12319.199405805557
1735580497886,370,-92,937,1011.5992289439529,9015,-4381,-8657,13244.132096894837
1735580497916,370,-92,937,1011.5992289439529,9034,-4383,-10120,14256.165157573056
1735580497975,370,-92,937,1011.5992289439529,9050,-4382,-11583,15338.523820759285
1735580497976,317,-45,868,925.1691737190556,9058,-4326,-13096,16500.510779972843
1735580498006,317,-45,868,925.1691737190556,9054,-4271,-14628,17725.53923016166
1735580498036,317,-45,868,925.1691737190556,9040,-4217,-16159,18989.943917768687
1735580498066,250,-11,989,1020.1676332838638,9063,-4124,-17734,20338.143991033205
1735580498096,250,-11,989,1020.1676332838638,9088,-4004,16633,19372.156539735064
1735580498126,250,-11,989,1020.1676332838638,9081,-3882,15007,17965.09209550566
1735580498156,252,-4,942,975.1328114672381,9054,-3751,13396,16598.12438198967
1735580498186,252,-4,942,975.1328114672381,9008,-3598,11813,15285.17703528487
1735580498216,252,-4,942,975.1328114672381,8938,-3460,10229,14017.556313423534
1735580498246,252,-4,942,975.1328114672381,8851,-3340,8643,12813.94747921186
1735580498276,132,13,950,959.2147830387103,8837,-3209,6954,11693.945698522804
1735580498306,132,13,950,959.2147830387103,8808,-3084,5224,10694.956568401762
1735580498336,132,13,950,959.2147830387103,8756,-2972,3493,9884.400285298041
1735580498366,278,0,1021,1058.1705911619356,8638,-2843,1808,9271.815194448172
1735580498396,278,0,1021,1058.1705911619356,8464,-2735,211,8897.417715269976
1735580498426,278,0,1021,1058.1705911619356,8299,-2670,-1393,8828.519128370284
1735580498456,166,44,997,1011.682262372925,8159,-2623,-2997,9079.175017588326
1735580498486,166,44,997,1011.682262372925,8055,-2580,-4702,9677.201506634034
1735580498516,166,44,997,1011.682262372925,7961,-2564,-6411,10538.14680102721
1735580498546,166,44,997,1011.682262372925,7881,-2571,-8121,11604.776732018587
1735580498576,229,38,931,959.5029963475882,7774,-2528,-9843,12794.940757971488
1735580498606,229,38,931,959.5029963475882,7671,-2510,-11548,14089.025693780248
1735580498636,229,38,931,959.5029963475882,7583,-2519,-13255,15477.1533235282
1735580498666,216,129,901,935.4667284302526,7532,-2528,-15063,17029.849588296427
1735580498696,216,129,901,935.4667284302526,7469,-2549,-16928,18677.27351622822
1735580498726,216,129,901,935.4667284302526,7424,-2584,17206,18916.63997648631
1735580498756,95,112,1062,1072.1068043809814,7434,-2637,15304,17217.158331153256
1735580498786,95,112,1062,1072.1068043809814,7596,-2703,13218,15482.924433064964
1735580498817,95,112,1062,1072.1068043809814,7744,-2717,11133,13830.95492003354
1735580498846,95,112,1062,1072.1068043809814,7865,-2688,9050,12287.638870018927
1735580498876,177,95,1151,1168.3984765481339,7891,-2566,7080,10907.732899186705
1735580498906,177,95,1151,1168.3984765481339,7871,-2444,5137,9711.567638646193
1735580498936,177,95,1151,1168.3984765481339,7822,-2339,3190,8765.312601385076
1735580498966,198,75,969,991.8618855465714,7714,-2238,1329,8141.294798740554
1735580498996,198,75,969,991.8618855465714,7586,-2164,-484,7903.451651019319
1735580499026,198,75,969,991.8618855465714,7465,-2128,-2302,8096.530923796932
1735580499056,238,113,1001,1035.0913003208943,7354,-2117,-4111,8686.962990596887
1735580499086,238,113,1001,1035.0913003208943,7207,-2116,-5861,9527.309483794468
1735580499116,238,113,1001,1035.0913003208943,7088,-2150,-7612,10620.959843629953
1735580499146,238,113,1001,1035.0913003208943,7000,-2211,-9362,11896.872067900873
1735580499175,238,183,1033,1075.7425342525041,6885,-2282,-11154,13304.978955263326
1735580499206,238,183,1033,1075.7425342525041,6792,-2379,-12944,14810.06552990229
1735580499236,238,183,1033,1075.7425342525041,6740,-2489,-14731,16389.78590464195
1735580499266,285,183,1072,1124.232182424965,6723,-2601,-16511,18016.022063707627
1735580499296,285,183,1072,1124.232182424965,6725,-2701,17734,19157.655963086923
1735580499326,285,183,1072,1124.232182424965,6751,-2790,15980,17570.443961380144
1735580499356,246,145,1011,1050.5531876111747,6796,-2865,14211,16010.820153883436
1735580499386,246,145,1011,1050.5531876111747,6903,-2925,12376,14469.706631442117
1735580499416,246,145,1011,1050.5531876111747,7006,-2954,10540,12996.2206814135
1735580499446,246,145,1011,1050.5531876111747,7096,-2954,8706,11613.516607815223
1735580499476,284,123,963,1011.5107513022291,7207,-2912,6865,10370.574622459451
1735580499506,284,123,963,1011.5107513022291,7284,-2844,5040,9303.042083103785
1735580499536,284,123,963,1011.5107513022291,7329,-2764,3217,8467.76393152289
1735580499566,184,192,1005,1039.5888610407483,7342,-2689,1308,7927.581535373824
1735580499596,184,192,1005,1039.5888610407483,7328,-2637,-692,7818.709420358324
1735580499626,184,192,1005,1039.5888610407483,7302,-2594,-2693,8203.675334872778
1735580499656,240,145,1083,1118.7108652373051,7263,-2561,-4679,9011.266892063513
1735580499686,240,145,1083,1118.7108652373051,7224,-2521,-6586,10095.395633653987
1735580499716,240,145,1083,1118.7108652373051,7182,-2495,-8494,11399.744953287332
1735580499746,240,145,1083,1118.7108652373051,7142,-2482,-10403,12860.43922267043
1735580499776,189,182,1025,1058.050093332069,7046,-2460,-12341,14422.135660157965
1735580499806,189,182,1025,1058.050093332069,6961,-2471,-14296,16091.5188220379
1735580499836,189,182,1025,1058.050093332069,6896,-2503,-16252,17831.07761746328
1735580499866,174,122,978,1000.8216624354211,6884,-2537,17862,19310.019911952448
1735580499896,174,122,978,1000.8216624354211,6921,-2558,16006,17624.85860936195
1735580499925,174,122,978,1000.8216624354211,6957,-2567,14151,15976.236697044771
1735580499956,152,188,961,990.9434898116037,6997,-2565,12271,14356.694431518697
1735580499986,152,188,961,990.9434898116037,7001,-2564,10320,12731.476622921631
1735580500016,152,188,961,990.9434898116037,7003,-2563,8370,11210.168508992181
1735580500046,152,188,961,990.9434898116037,7005,-2561,6420,9840.993140938572
1735580500076,134,112,1133,1146.3808267761635,7069,-2563,4463,8744.032193444853
1735580500106,134,112,1133,1146.3808267761635,7141,-2543,2502,7982.52679293969
1735580500136,134,112,1133,1146.3808267761635,7193,-2505,543,7636.041055416085
1735580500166,96,125,989,1001.4799049406832,7186,-2416,-1397,7708.907899307139
1735580500196,96,125,989,1001.4799049406832,7138,-2326,-3347,8219.715871001868
1735580500226,96,125,989,1001.4799049406832,7075,-2257,-5300,9123.577916585138
1735580500256,312,179,932,999.00400399598,7012,-2228,-7257,10334.22357993091
1735580500287,312,179,932,999.00400399598,6843,-2205,-9024,11537.81825129864
1735580500317,312,179,932,999.00400399598,6701,-2225,-10794,12898.234840473327
1735580500346,312,179,932,999.00400399598,6591,-2278,-12565,14370.448496828483
1735580500376,208,170,1060,1093.5099450850917,6659,-2383,-14454,16091.584322247452
1735580500406,208,170,1060,1093.5099450850917,6758,-2466,-16376,17886.450067020007
1735580500436,208,170,1060,1093.5099450850917,6859,-2514,17702,19150.114386081354
1735580500466,210,195,989,1029.6824753291667,6964,-2529,15802,17452.688646738647
1735580500496,210,195,989,1029.6824753291667,7046,-2517,13915,15799.00724729247
1735580500526,210,195,989,1029.6824753291667,7109,-2484,12029,14191.722164698687
1735580500556,66,125,993,1003.0104685395861,7136,-2432,10139,12634.73153652265
1735580500586,66,125,993,1003.0104685395861,7229,-2383,8109,11121.735970611782
1735580500616,66,125,993,1003.0104685395861,7289,-2313,6081,9770.263609545036
1735580500646,66,125,993,1003.0104685395861,7316,-2235,4054,8657.59764599857
1735580500676,28,224,1188,1209.257623502949,7264,-2158,2041,7847.823965915647
1735580500706,28,224,1188,1209.257623502949,7182,-2115,14,7486.958327652158
1735580500736,28,224,1188,1209.257623502949,7104,-2100,-2015,7677.046372140786
1735580500766,134,263,1006,1048.4087943164154,6943,-2065,-3929,8240.54094098197
1735580500796,134,263,1006,1048.4087943164154,6726,-2054,-5743,9079.649828049538
1735580500826,134,263,1006,1048.4087943164154,6548,-2100,-7560,10219.584335969834
1735580500856,175,162,946,975.5946904324562,6419,-2197,-9382,11578.095439233519
1735580500886,175,162,946,975.5946904324562,6412,-2308,-11180,13093.242837433361
1735580500916,175,162,946,975.5946904324562,6434,-2408,-12976,14682.349811934057
1735580500946,175,162,946,975.5946904324562,6477,-2492,-14772,16320.955149745372
1735580500976,130,122,941,957.7395261760893,6543,-2596,-16712,18133.973888808818
1735580501006,130,122,941,957.7395261760893,6641,-2670,17333,18752.72433541324
1735580501036,130,122,941,957.7395261760893,6741,-2711,15378,17008.041803805634
1735580501066,85,238,1002,1033.379407574972,6886,-2735,13405,15316.371828863388
1735580501096,85,238,1002,1033.379407574972,7000,-2737,11403,13657.217066445126
1735580501126,85,238,1002,1033.379407574972,7092,-2708,9404,12085.733076648681
1735580501156,125,176,1078,1099.402110239925,7150,-2675,7410,10638.901494045333
1735580501186,125,176,1078,1099.402110239925,7212,-2647,5460,9425.028010568456
1735580501216,125,176,1078,1099.402110239925,7254,-2605,3513,8470.401997544155
1735580501246,222,101,1085,1112.0746377829144,7262,-2554,1583,7859.099757605829
1735580501275,222,101,1085,1112.0746377829144,7251,-2476,-224,7665.36059164864
1735580501306,222,101,1085,1112.0746377829144,7223,-2408,-2033,7880.563558528032
1735580501336,222,101,1085,1112.0746377829144,7183,-2353,-3843,8479.430818162265
1735580501366,200,202,915,958.1382989944615,7027,-2318,-5768,9381.986836486181
1735580501396,200,202,915,958.1382989944615,6871,-2337,-7701,10581.947410566734
1735580501426,200,202,915,958.1382989944615,6752,-2395,-9637,12008.217936063618
1735580501456,97,251,1093,1125.637152904967,6719,-2502,-11578,13618.188168769002
1735580501485,97,251,1093,1125.637152904967,6820,-2670,-13627,15470.501898774972
1735580501516,97,251,1093,1125.637152904967,6949,-2791,-15680,17376.44042950109
1735580501546,124,93,1159,1169.318605000365,7034,-2870,-17674,19237.576042734698
1735580501576,124,93,1159,1169.318605000365,7142,-2918,16482,18198.329923374837
1735580501606,124,93,1159,1169.318605000365,7241,-2934,14639,16593.395011268793
1735580501636,124,93,1159,1169.318605000365,7326,-2926,12797,15033.128782791691
1735580501666,-35,22,998,998.8558454551888,7455,-2930,10886,13515.432697475875
1735580501696,-35,22,998,998.8558454551888,7601,-2900,8927,12077.935667985652
1735580501726,-35,22,998,998.8558454551888,7709,-2835,6973,10774.443605124117
1735580501756,-49,55,1047,1049.5880144132745,7808,-2773,4977,9665.656832310984
1735580501786,-49,55,1047,1049.5880144132745,7914,-2735,2878,8854.067144538718
1735580501816,-49,55,1047,1049.5880144132745,7985,-2671,783,8456.213987358646
1735580501846,138,127,948,966.3731163479249,8016,-2614,-1268,8526.258030343675
1735580501876,138,127,948,966.3731163479249,7884,-2597,-3064,8848.161447442062
1735580501904,138,127,948,966.3731163479249,7774,-2612,-4862,9533.974197573643
1735580501936,138,127,948,966.3731163479249,7689,-2653,-6662,10513.865797127144
1735580501966,85,-25,984,987.9807690436085,7661,-2790,-8445,11738.528272317617
1735580501997,85,-25,984,987.9807690436085,7718,-2913,-10246,13154.223998396865
1735580502026,85,-25,984,987.9807690436085,7796,-3012,-12049,14663.838549302158
1735580502056,191,135,942,970.6029054149797,7815,-3112,-13816,16175.309116057102
1735580502086,191,135,942,970.6029054149797,7735,-3227,-15513,17632.269366136625
1735580502116,191,135,942,970.6029054149797,7696,-3352,-17210,19148.065698654787
1735580502146,223,35,954,980.341777136933,7686,-3470,17109,19074.416819394504
1735580502176,223,35,954,980.341777136933,7752,-3554,15503,17693.711566542504
1735580502206,223,35,954,980.341777136933,7825,-3620,13895,16352.554846261792
1735580502236,223,35,954,980.341777136933,7900,-3667,12286,15059.969621483306
1735580502266,133,46,943,953.4432337585704,8030,-3725,10624,13828.445357306076
1735580502296,133,46,943,953.4432337585704,8165,-3753,8928,12667.336657719334
1735580502326,133,46,943,953.4432337585704,8283,-3753,7234,11619.976506000346
1735580502356,-15,-47,919,920.3233127548166,8504,-3755,5408,10754.743372112605
1735580502386,-15,-47,919,920.3233127548166,8821,-3700,3442,10165.99257328078
1735580502416,-15,-47,919,920.3233127548166,9056,-3571,1493,9848.463128833859
1735580502446,58,-13,958,959.842174526625,9196,-3418,-413,9819.353797475676
1735580502476,58,-13,958,959.842174526625,9193,-3303,-2190,10010.852011692112
1735580502506,58,-13,958,959.842174526625,9162,-3194,-3965,10481.655642120666
1735580502536,58,-13,958,959.842174526625,9110,-3096,-5740,11203.790251517565
1735580502566,128,-79,1079,1089.4337978968708,9054,-3061,-7494,12145.150184332839
1735580502596,128,-79,1079,1089.4337978968708,9005,-3038,-9226,13245.321626899062
1735580502626,128,-79,1079,1089.4337978968708,8961,-3028,-10959,14476.46317302676
1735580502656,174,-48,1036,1051.6063902430415,8929,-3058,-12670,15798.965314222321
1735580502686,174,-48,1036,1051.6063902430415,8893,-3113,-14346,17163.44761404305
1735580502716,174,-48,1036,1051.6063902430415,8877,-3173,-16022,18589.60844127708
1735580502746,257,-143,929,974.4429177740479,8829,-3249,-17669,20017.512407889248
1735580502776,257,-143,929,974.4429177740479,8754,-3364,16828,19264.750089217352
1735580502806,257,-143,929,974.4429177740479,8713,-3488,15328,17973.038057045338
1735580502835,257,-143,929,974.4429177740479,8704,-3616,13828,16734.65434360686
1735580502866,34,-93,914,919.3481386286699,8788,-3718,11954,15295.443243005415
1735580502896,34,-93,914,919.3481386286699,8916,-3790,9995,13919.740694423872
1735580502926,34,-93,914,919.3481386286699,9039,-3827,8032,12683.157099082231
1735580502956,136,-198,986,1014.8379180933279,9172,-3852,6100,11669.339655696032
1735580502986,136,-198,986,1014.8379180933279,9308,-3854,4240,10930.223236512602
1735580503017,136,-198,986,1014.8379180933279,9417,-3824,2384,10439.651383068307
1735580503046,96,-89,990,998.6175444082685,9496,-3780,554,10235.689131660847
1735580503076,96,-89,990,998.6175444082685,9484,-3743,-1272,10274.934987628876
1735580503106,96,-89,990,998.6175444082685,9464,-3710,-3098,10626.805728910263
1735580503137,96,-89,990,998.6175444082685,9440,-3683,-4922,11265.175231659736
1735580503167,142,-82,1044,1056.798940196289,9372,-3657,-6749,12114.331760357234
1735580503196,142,-82,1044,1056.798940196289,9300,-3650,-8560,13156.219061721342
1735580503226,142,-82,1044,1056.798940196289,9240,-3660,-10372,14364.942881891317
1735580503256,93,28,1011,1015.6544688032441,9113,-3707,-12122,15611.902574638365
1735580503286,93,28,1011,1015.6544688032441,8955,-3801,-13870,16941.562088544255
1735580503316,93,28,1011,1015.6544688032441,8849,-3924,-15623,18378.811332618876
1735580503346,172,-86,963,982.012729041737,8795,-4069,-17351,19873.75120605066
1735580503376,172,-86,963,982.012729041737,8823,-4220,17067,19670.69439547064
1735580503406,172,-86,963,982.012729041737,8880,-4360,15479,18370.1780339767
1735580503437,172,-86,963,982.012729041737,8959,-4485,13881,17119.026461805588
1735580503467,61,-225,1034,1059.9537725768987,9280,-4578,12096,15918.219121497228
1735580503496,61,-225,1034,1059.9537725768987,9631,-4589,10262,14802.828310833034
1735580503526,61,-225,1034,1059.9537725768987,9917,-4529,8437,13785.561250816014
1735580503556,181,-26,985,1001.8293267817628,10017,-4440,6686,12835.750270241315
1735580503586,181,-26,985,1001.8293267817628,9907,-4383,5038,11947.417377826892
1735580503616,181,-26,985,1001.8293267817628,9804,-4347,3390,11247.529728789339
1735580503645,150,-191,1046,1073.8235423010617,9758,-4341,1708,10815.734325509295
1735580503676,150,-191,1046,1073.8235423010617,9959,-4326,-78,10858.270626577696
1735580503707,150,-191,1046,1073.8235423010617,10117,-4272,-1856,11137.702141824408
1735580503736,150,-191,1046,1073.8235423010617,10230,-4186,-3624,11632.234179210802
1735580503766,82,-161,943,960.15311278983,10398,-4071,-5527,12459.501354388145
1735580503796,82,-161,943,960.15311278983,10501,-3914,-7436,13449.330578136594
1735580503826,82,-161,943,960.15311278983,10536,-3735,-9326,14557.877489524357
1735580503856,228,-179,998,1039.2444370791695,10450,-3611,-11092,15661.235104550344
1735580503886,228,-179,998,1039.2444370791695,10296,-3560,-12730,16755.122082515543
1735580503916,228,-179,998,1039.2444370791695,10159,-3541,-14370,17951.06854758234
1735580503946,209,-128,941,972.3918963051883,10002,-3555,-15968,19174.33318266896
1735580503976,209,-128,941,972.3918963051883,9772,-3620,-17500,20367.778082058925
1735580504006,209,-128,941,972.3918963051883,9594,-3728,16967,19844.946686751264
1735580504036,209,-128,941,972.3918963051883,9469,-3869,15434,18515.924983645833
1735580504066,126,-155,957,977.6246723564212,9440,-4012,13758,17160.778187483225
1735580504096,126,-155,957,977.6246723564212,9475,-4150,12042,15874.756344586836
1735580504126,126,-155,957,977.6246723564212,9540,-4278,10317,14688.545639374921
1735580504156,100,-166,986,1004.8641699254681,9684,-4395,8485,13604.819219673593
1735580504186,100,-166,986,1004.8641699254681,9877,-4473,6579,12682.511541488933
1735580504217,100,-166,986,1004.8641699254681,10058,-4510,4667,11970.14423471998
1735580504246,326,-229,985,1062.5168233962227,10170,-4530,2814,11483.396535868646
1735580504276,326,-229,985,1062.5168233962227,10066,-4641,1351,11166.39771815423
1735580504306,326,-229,985,1062.5168233962227,10000,-4768,-117,11079.14766577285
1735580504336,326,-229,985,1062.5168233962227,9972,-4906,-1594,11227.219424238578
1735580504366,143,-193,891,922.810381389373,10180,-4958,-3391,11820.027284232468
1735580504396,143,-193,891,922.810381389373,10406,-4952,-5269,12671.602148110554
1735580504426,143,-193,891,922.810381389373,10586,-4902,-7137,13675.882750301715
1735580504456,65,-217,901,929.0398269180929,10686,-4841,-8935,14746.528472830478
1735580504486,65,-217,901,929.0398269180929,10776,-4757,-10740,15940.477564991583
1735580504516,65,-217,901,929.0398269180929,10822,-4655,-12528,17196.961737469792
1735580504546,175,-227,980,1021.0553364044478,10834,-4543,-14312,18516.148330578904
1735580504576,175,-227,980,1021.0553364044478,10751,-4465,-15980,19770.701201525455
1735580504606,175,-227,980,1021.0553364044478,10664,-4401,-17645,21081.644195840134
1735580504636,175,-227,980,1021.0553364044478,10578,-4352,16691,20234.215304775225
1735580504666,221,-137,966,1000.3829266835775,10425,-4357,15108,18865.72919343432
1735580504696,221,-137,966,1000.3829266835775,10268,-4399,13538,17551.65146076004
1735580504726,221,-137,966,1000.3829266835775,10147,-4469,11965,16312.41229861482
1735580504756,154,-196,1027,1056.8164457463747,10173,-4542,10274,15155.02454633446
1735580504786,154,-196,1027,1056.8164457463747,10310,-4578,8483,14114.371151418685
1735580504816,154,-196,1027,1056.8164457463747,10432,-4587,6691,13215.016988259986
1735580504846,226,-113,1032,1062.4824704436305,10514,-4571,4915,12473.791003540182
1735580504877,226,-113,1032,1062.4824704436305,10420,-4577,3250,11835.870436938721
1735580504906,226,-113,1032,1062.4824704436305,10345,-4600,1582,11431.611828609297
1735580504936,226,-113,1032,1062.4824704436305,10290,-4636,-88,11286.467117747698
1735580504966,18,-221,934,959.9588532848686,10374,-4629,-1914,11520.022265603482
1735580504995,18,-221,934,959.9588532848686,10514,-4572,-3813,12082.481077990564
1735580505026,18,-221,934,959.9588532848686,10607,-4487,-5699,12849.91124482967
1735580505056,-2,-138,1034,1043.1701682851174,10721,-4389,-7613,13862.212341469885
1735580505086,-2,-138,1034,1043.1701682851174,10786,-4269,-9542,15020.38351707439
1735580505116,-2,-138,1034,1043.1701682851174,10799,-4135,-11455,16276.782575189729
1735580505146,123,-232,846,885.8154435321163,10750,-4006,-13351,17602.833209458073
1735580505176,123,-232,846,885.8154435321163,10646,-3940,-15106,18895.823665561657
1735580505206,123,-232,846,885.8154435321163,10545,-3895,-16861,20264.781543357432
1735580505236,190,-197,1015,1051.2535374494585,10464,-3872,17366,20641.35741660417
1735580505266,190,-197,1015,1051.2535374494585,10347,-3889,15629,19142.89348557318
1735580505296,190,-197,1015,1051.2535374494585,10256,-3930,13888,17706.1283176193
1735580505326,190,-197,1015,1051.2535374494585,10192,-3990,12144,16348.507577145994
1735580505356,184,-160,1012,1040.9610943738483,10104,-4079,10449,15096.710171424766
1735580505386,184,-160,1012,1040.9610943738483,10046,-4186,8745,13961.365871575746
1735580505416,184,-160,1012,1040.9610943738483,10025,-4303,7033,12979.966217213356
1735580505446,294,-182,998,1056.2026320739785,10027,-4425,5330,12187.298880391832
1735580505476,294,-182,998,1056.2026320739785,9971,-4577,3786,11606.186539944978
1735580505506,294,-182,998,1056.2026320739785,9959,-4737,2232,11251.785369442487
1735580505535,63,-150,894,908.6831130817827,9988,-4894,649,11141.480197891122
1735580505566,63,-150,894,908.6831130817827,10236,-4970,-1276,11450.09921354396
1735580505596,63,-150,894,908.6831130817827,10463,-4997,-3210,12031.146163188278
1735580505626,63,-150,894,908.6831130817827,10655,-4980,-5141,12835.86015816626
1735580505656,153,-112,908,927.5866536340419,10717,-4988,-6904,13689.391841860617
1735580505686,153,-112,908,927.5866536340419,10737,-5000,-8630,14654.694435572514
1735580505716,153,-112,908,927.5866536340419,10757,-5008,-10357,15749.93847607031
1735580505746,133,-147,894,915.7150211719801,10840,-5008,-12130,17021.238615329967
1735580505776,133,-147,894,915.7150211719801,10957,-4980,-13933,18411.538175828766
1735580505806,133,-147,894,915.7150211719801,11042,-4931,-15728,19839.61967881441
1735580505836,94,-201,1001,1025.2989807856047,11113,-4857,-17537,21322.185324211026
1735580505866,94,-201,1001,1025.2989807856047,11245,-4723,16576,20579.614427874978
1735580505896,94,-201,1001,1025.2989807856047,11307,-4561,14719,19112.82111568044
1735580505926,94,-201,1001,1025.2989807856047,11305,-4386,12886,17694.321603271484
1735580505956,237,-182,933,979.6846431377803,11176,-4256,11183,16373.026629184966
1735580505986,237,-182,933,979.6846431377803,11008,-4172,9532,15147.299165197735
1735580506016,237,-182,933,979.6846431377803,10852,-4119,7881,14030.047255800673
1735580506046,250,-237,913,975.8268288994723,10697,-4122,6284,13073.077258243371
1735580506076,250,-237,913,975.8268288994723,10583,-4166,4719,12313.586236348856
1735580506106,250,-237,913,975.8268288994723,10498,-4232,3151,11749.324618887675
1735580506136,191,-125,876,905.2524509770741,10464,-4302,1543,11418.552841757137
1735580506166,191,-125,876,905.2524509770741,10438,-4346,-205,11308.474034988098
1735580506196,191,-125,876,905.2524509770741,10429,-4395,-1958,11485.374612958865
1735580506226,191,-125,876,905.2524509770741,10435,-4446,-3717,11936.173172336266
1735580506256,172,-181,1023,1053.030863745218,10508,-4458,-5545,12690.108470773604
1735580506286,172,-181,1023,1053.030863745218,10589,-4448,-7379,13651.419926146877
1735580506316,172,-181,1023,1053.030863745218,10651,-4422,-9210,14758.793480498329
1735580506346,205,-209,1027,1067.9115131882415,10642,-4396,-10920,15868.94388420351
1735580506376,205,-209,1027,1067.9115131882415,10605,-4384,-12551,17006.2659628738
1735580506406,205,-209,1027,1067.9115131882415,10571,-4379,-14183,18223.039565341453
1735580506436,27,-225,936,963.0420551564713,10563,-4371,-15822,19519.689905323805
1735580506466,27,-225,936,963.0420551564713,10719,-4279,-17671,21106.184946598
1735580506496,27,-225,936,963.0420551564713,10817,-4155,16497,20159.923685371432
1735580506526,27,-225,936,963.0420551564713,10858,-4010,14682,18695.919019935875
1735580506556,301,-133,962,1016.7271020288581,10679,-3926,13073,17330.83512125137
1735580506586,301,-133,962,1016.7271020288581,10443,-3917,11556,16060.519107426137
1735580506616,301,-133,962,1016.7271020288581,10247,-3950,10036,14876.989110703818
1735580506646,114,-112,907,920.9717693827537,10117,-4000,8497,13804.08265695334
1735580506676,114,-112,907,920.9717693827537,10081,-4037,6844,12836.053365423502
1735580506705,114,-112,907,920.9717693827537,10060,-4082,5188,12032.525420708655
1735580506736,121,-173,1024,1045.5362260581887,10063,-4121,3511,11426.886321303804
1735580506767,121,-173,1024,1045.5362260581887,10135,-4132,1802,11092.287996621797
1735580506796,121,-173,1024,1045.5362260581887,10196,-4128,94,11000.347085433259
1735580506826,121,-173,1024,1045.5362260581887,10245,-4113,-1612,11156.851616831695
1735580506856,207,-90,982,1007.6075624964315,10123,-4092,-3250,11392.194389142067
1735580506886,207,-90,982,1007.6075624964315,9979,-4108,-4858,11834.537126563084
1735580506916,207,-90,982,1007.6075624964315,9866,-4152,-6470,12507.516140305397
1735580506946,319,-187,921,992.4570519674894,9796,-4237,-8021,13351.03838658252
1735580506976,319,-187,921,992.4570519674894,9763,-4351,-9479,14286.315515205451
1735580507006,319,-187,921,992.4570519674894,9757,-4469,-10941,15325.680767913705
1735580507036,339,-128,958,1024.240694368272,9792,-4574,-12426,16468.461251738125
1735580507066,339,-128,958,1024.240694368272,9805,-4654,-13926,17655.911672864702
1735580507096,339,-128,958,1024.240694368272,9832,-4731,-15430,18898.028600888505
1735580507137,339,-128,958,1024.240694368272,9873,-4804,-16940,20187.078664333778
1735580507156,361,-25,954,1020.3244581994494,9839,-4834,17589,20725.501151962526
1735580507185,361,-25,954,1020.3244581994494,9786,-4876,16126,19483.0451418663
1735580507217,361,-25,954,1020.3244581994494,9750,-4925,14661,18282.86208447682
1735580507247,225,-1,993,1018.1723822614715,9787,-4970,13170,17144.53758489858
1735580507277,225,-1,993,1018.1723822614715,9908,-4984,11574,16030.165189417106
1735580507307,225,-1,993,1018.1723822614715,10010,-4978,9980,14986.026291182063
1735580507336,146,-83,950,964.7305323249597,10076,-4955,8377,14008.99461060643
1735580507366,146,-83,950,964.7305323249597,10230,-4889,6655,13147.024226036856
1735580507396,146,-83,950,964.7305323249597,10335,-4796,4949,12422.01440990953
1735580507426,146,-83,950,964.7305323249597,10394,-4686,3257,11857.566402934457
1735580507456,437,-58,1026,1116.695571765197,10206,-4617,1843,11352.34662966208
1735580507486,437,-58,1026,1116.695571765197,9959,-4609,544,10987.288018432939
1735580507516,437,-58,1026,1116.695571765197,9751,-4635,-756,10822.97380575228
1735580507546,436,-75,777,894.1196787902613,9616,-4659,-2092,10888.076092680469
1735580507576,436,-75,777,894.1196787902613,9528,-4684,-3446,11162.327535061851
1735580507606,436,-75,777,894.1196787902613,9459,-4722,-4803,11612.00990354383
1735580507636,306,-19,1021,1066.0384608446357,9453,-4770,-6173,12256.346845614316
1735580507666,306,-19,1021,1066.0384608446357,9617,-4791,-7745,13244.825215909797
1735580507696,306,-19,1021,1066.0384608446357,9757,-4784,-9316,14313.40494082383
1735580507726,306,-19,1021,1066.0384608446357,9870,-4755,-10884,15443.069027884321
1735580507756,374,-20,835,915.1508072443579,9718,-4694,-12271,16341.682930469555
1735580507786,374,-20,835,915.1508072443579,9564,-4661,-13630,17290.80440581062
1735580507816,374,-20,835,915.1508072443579,9430,-4651,-14992,18311.656533476158
1735580507846,255,223,1002,1057.7135718142224,9447,-4644,-16444,19524.796567442132
1735580507906,255,223,1002,1057.7135718142224,9473,-4623,17983,20844.61913780149
1735580507906,255,223,1002,1057.7135718142224,9489,-4597,16414,19508.790992780665
1735580507935,353,-31,815,888.7041127394426,9461,-4576,14854,18195.922977414473
1735580507966,353,-31,815,888.7041127394426,9494,-4569,13435,17073.69385926783
1735580507996,353,-31,815,888.7041127394426,9519,-4558,12017,15993.59290466029
1735580508026,353,-31,815,888.7041127394426,9538,-4542,10600,14965.400362168732
1735580508057,503,208,944,1089.682981421661,9423,-4493,9133,13870.53232576169
1735580508087,503,208,944,1089.682981421661,9218,-4486,7729,12838.736736922367
1735580508116,503,208,944,1089.682981421661,9047,-4511,6322,11923.297111118216
1735580508146,270,23,956,993.6624175241811,8986,-4524,4849,11168.14993631443
1735580508176,270,23,956,993.6624175241811,9141,-4495,3193,10675.118500513237
1735580508206,270,23,956,993.6624175241811,9260,-4440,1544,10384.851274813713
1735580508236,286,-24,915,958.956203379487,9329,-4352,-83,10294.514753012887
1735580508266,286,-24,915,958.956203379487,9360,-4228,-1659,10403.742836114317
1735580508296,286,-24,915,958.956203379487,9358,-4102,-3228,10715.34189841836
1735580508325,286,-24,915,958.956203379487,9329,-3979,-4793,11217.643736542894
1735580508356,275,37,937,977.2220832543644,9266,-3848,-6359,11878.667475773535
1735580508386,275,37,937,977.2220832543644,9174,-3735,-7929,12687.850172507555
1735580508416,275,37,937,977.2220832543644,9076,-3643,-9501,13635.036706954625
1735580508446,285,12,985,1025.4725739872324,8972,-3565,-11058,14679.420049852106
1735580508476,285,12,985,1025.4725739872324,8874,-3504,-12605,15808.602626418313
1735580508506,285,12,985,1025.4725739872324,8782,-3464,-14154,17013.481007718554
1735580508536,320,74,1017,1068.7211984423252,8693,-3440,-15679,18254.667622282253
1735580508566,320,74,1017,1068.7211984423252,8534,-3435,-17118,19433.329745568564
1735580508596,320,74,1017,1068.7211984423252,8402,-3460,17440,19665.16727617642
1735580508626,320,74,1017,1068.7211984423252,8296,-3507,15998,18359.157633181323
1735580508656,278,-9,1049,1085.2492801195492,8327,-3589,14445,17055.142186449222
1735580508686,278,-9,1049,1085.2492801195492,8399,-3654,12875,15800.650049918833
1735580508716,278,-9,1049,1085.2492801195492,8473,-3703,11304,14604.25807769775
1735580508746,387,8,961,1036.0279918998328,8533,-3730,9712,13455.40534506486
1735580508776,387,8,961,1036.0279918998328,8541,-3745,8173,12400.469144350951
1735580508807,387,8,961,1036.0279918998328,8550,-3759,6634,11456.113520736428
1735580508836,279,80,1020,1060.4909240535724,8550,-3765,5126,10656.153198973821
1735580508867,279,80,1020,1060.4909240535724,8543,-3767,3555,9990.55368835982
1735580508897,279,80,1020,1060.4909240535724,8538,-3771,1984,9542.229351676682
1735580508926,279,80,1020,1060.4909240535724,8535,-3775,413,9341.703217293943
1735580508956,288,16,1041,1080.22266223219,8509,-3761,-1101,9368.052252202695
1735580508986,288,16,1041,1080.22266223219,8499,-3749,-2613,9649.651340851648
1735580509016,288,16,1041,1080.22266223219,8489,-3739,-4125,10151.791319762242
1735580509046,77,0,932,935.1753846204465,8506,-3727,-5722,10907.971809644541
1735580509076,77,0,932,935.1753846204465,8600,-3701,-7475,11980.52695001351
1735580509106,77,0,932,935.1753846204465,8670,-3656,-9224,13176.396017120918
1735580509136,156,50,911,925.6116896409638,8742,-3596,-10993,14498.269862297364
1735580509166,156,50,911,925.6116896409638,8747,-3524,-12722,15835.967573849095
1735580509197,156,50,911,925.6116896409638,8734,-3454,-14448,17232.457050577552
1735580509226,29,0,1070,1070.3929185117024,8749,-3384,-16239,18753.708379944484
1735580509256,29,0,1070,1070.3929185117024,8921,-3273,17715,20102.68626328332
1735580509286,29,0,1070,1070.3929185117024,9023,-3125,15683,18361.281082756726
1735580509316,29,0,1070,1070.3929185117024,9058,-2959,13661,16656.108969384175
1735580509346,121,76,1107,1116.1836766410804,8976,-2817,11732,15038.081293835328
1735580509376,121,76,1107,1116.1836766410804,8843,-2713,9828,13496.243996016077
1735580509406,121,76,1107,1116.1836766410804,8708,-2650,7921,12066.234085247974
1735580509436,106,-61,1068,1074.9795346889168,8548,-2624,6031,10785.482882096656
1735580509466,106,-61,1068,1074.9795346889168,8462,-2626,4167,9791.078030533716
1735580509496,106,-61,1068,1074.9795346889168,8393,-2649,2302,9097.18934616621
1735580509526,291,-39,956,1000.0689976196643,8330,-2681,474,8763.637201527685
1735580509556,291,-39,956,1000.0689976196643,8166,-2713,-1098,8674.648638417582
1735580509586,291,-39,956,1000.0689976196643,8037,-2777,-2670,8912.575273174416
1735580509616,291,-39,956,1000.0689976196643,7945,-2865,-4240,9450.33597286361
1735580509646,115,110,916,929.7209258696935,7963,-2952,-6051,10427.764573483619
1735580509676,115,110,916,929.7209258696935,7990,-3040,-7922,11655.032561087077
1735580509706,115,110,916,929.7209258696935,8036,-3115,-9794,13046.185534477117
1735580509736,185,44,958,976.6908415665624,8055,-3180,-11541,14428.794336326233
1735580509766,185,44,958,976.6908415665624,8077,-3236,-13189,15800.612203329338
1735580509796,185,44,958,976.6908415665624,8107,-3284,-14838,17224.237254520154
1735580509826,250,17,997,1028.0068093159696,8152,-3317,-16507,18706.647000464836
1735580509856,250,17,997,1028.0068093159696,8197,-3321,17851,19921.798387695824
1735580509886,250,17,997,1028.0068093159696,8236,-3316,16211,18483.07531229584
1735580509916,250,17,997,1028.0068093159696,8266,-3303,14571,17074.8530301142
1735580509946,97,12,1007,1011.7321779996918,8397,-3273,12702,15574.432317102284
1735580509977,97,12,1007,1011.7321779996918,8521,-3211,10787,14116.56229398645
1735580510006,97,12,1007,1011.7321779996918,8603,-3122,8877,12749.887136755367
1735580510036,161,111,1085,1102.482199402784,8610,-3033,7051,11534.634367850591
1735580510066,161,111,1085,1102.482199402784,8528,-2967,5296,10467.926681057716
1735580510096,161,111,1085,1102.482199402784,8445,-2923,3538,9611.420186424064
1735580510126,196,117,1015,1040.350902340167,8353,-2907,1789,9023.51256440639
1735580510156,196,117,1015,1040.350902340167,8227,-2925,95,8732.02032750726
1735580510186,196,117,1015,1040.350902340167,8129,-2970,-1600,8801.223835353809
1735580510216,196,117,1015,1040.350902340167,8060,-3034,-3296,9221.29990836433
1735580510246,163,17,1067,1079.5123899242658,8073,-3092,-5085,10029.507365768271
1735580510277,163,17,1067,1079.5123899242658,8128,-3136,-6885,11104.148098796233
1735580510306,163,17,1067,1079.5123899242658,8184,-3164,-8686,12346.471074764642
1735580510336,112,62,965,973.454159167241,8182,-3189,-10457,13655.17096194698
1735580510366,112,62,965,973.454159167241,8157,-3226,-12239,15057.783568639841
1735580510396,112,62,965,973.454159167241,8147,-3266,-14023,16543.424494342155
1735580510426,71,1,1027,1029.4517958603017,8151,-3315,-15793,18078.90690832828
1735580510456,71,1,1027,1029.4517958603017,8246,-3370,-17575,19703.655523785426
1735580510486,71,1,1027,1029.4517958603017,8337,-3399,16641,18920.403034819316
1735580510516,71,1,1027,1029.4517958603017,8418,-3407,14859,17414.369181799266
1735580510546,197,13,922,942.9008431431165,8390,-3395,13139,15954.66847038822
1735580510576,197,13,922,942.9008431431165,8339,-3393,11461,14574.151467581225
1735580510606,197,13,922,942.9008431431165,8298,-3402,9784,13272.417413568637
1735580510636,195,45,865,887.8485231164154,8229,-3436,8185,12104.410848942629
1735580510666,195,45,865,887.8485231164154,8152,-3495,6626,11071.314510933198
1735580510696,195,45,865,887.8485231164154,8100,-3566,5065,10197.086887930298
1735580510726,107,42,997,1003.6045037762634,8096,-3651,3467,9533.892489429489
1735580510756,107,42,997,1003.6045037762634,8217,-3744,1698,9188.026393083555
1735580510786,107,42,997,1003.6045037762634,8339,-3805,-74,9166.374528678172
1735580510816,107,42,997,1003.6045037762634,8454,-3836,-1848,9465.733780325749
1735580510847,194,33,987,1006.4263510063714,8522,-3801,-3673,10028.111188055305
1735580510906,194,33,987,1006.4263510063714,8553,-3755,-5462,10820.687501263494
1735580510907,194,33,987,1006.4263510063714,8566,-3706,-7248,11817.11876897241
1735580510937,156,123,1007,1026.4083008238,8565,-3645,-9055,12986.080047497013
1735580510966,156,123,1007,1026.4083008238,8527,-3588,-10892,14290.526127473404
1735580510997,156,123,1007,1026.4083008238,8481,-3544,-12729,15700.78781462892
1735580511027,225,68,1037,1063.305224288868,8441,-3527,-14548,17185.29935729954
1735580511057,225,68,1037,1063.305224288868,8426,-3542,-16262,18654.64778547159
1735580511086,225,68,1037,1063.305224288868,8418,-3559,-17976,20165.955990232647
1735580511116,225,68,1037,1063.305224288868,8415,-3577,16308,18696.470736478583
1735580511146,265,-91,968,1007.7350842359315,8317,-3570,14684,17249.267955481475
1735580511176,265,-91,968,1007.7350842359315,8267,-3574,13073,15875.14075528151
1735580511206,265,-91,968,1007.7350842359315,8226,-3587,11462,14557.166242095334
1735580511236,206,129,998,1027.1713586349651,8214,-3588,9805,13284.636427091258
1735580511266,206,129,998,1027.1713586349651,8143,-3600,8094,12032.509505502167
1735580511296,206,129,998,1027.1713586349651,8088,-3626,6382,10922.158394749638
1735580511326,80,-8,973,976.3160348985364,8047,-3677,4697,10016.803232568762
1735580511356,80,-8,973,976.3160348985364,8217,-3750,2933,9496.529787243338
1735580511386,80,-8,973,976.3160348985364,8374,-3782,1168,9262.376800800106
1735580511416,80,-8,973,976.3160348985364,8510,-3778,-595,9329.920096120866
1735580511446,77,45,971,975.0871755899572,8557,-3706,-2412,9631.948349114005
1735580511476,77,45,971,975.0871755899572,8564,-3632,-4225,10216.85592538135
1735580511506,77,45,971,975.0871755899572,8550,-3561,-6035,11054.6119787173
1735580511536,192,127,993,1019.3340963589907,8497,-3512,-7767,12035.756810437804
1735580511566,192,127,993,1019.3340963589907,8369,-3494,-9402,13063.146672988098
1735580511596,192,127,993,1019.3340963589907,8261,-3504,-11039,14226.09074904276
1735580511626,265,57,1065,1098.9535931967282,8163,-3544,-12656,15471.549405279357
1735580511656,265,57,1065,1098.9535931967282,8081,-3612,-14155,16694.70365115835
1735580511686,265,57,1065,1098.9535931967282,8027,-3690,-15653,17974.015633686315
1735580511716,265,57,1065,1098.9535931967282,7997,-3775,-17153,19298.394829622488
1735580511746,276,75,932,974.8974305023067,8001,-3856,17265,19415.585543578127
1735580511807,276,75,932,974.8974305023067,8015,-3932,15685,18047.716586870483
1735580511807,276,75,932,974.8974305023067,8042,-4001,14103,16720.537491360737
1735580511837,160,-41,1049,1061.9237260745238,8158,-4088,12500,15476.262727157355
1735580511866,160,-41,1049,1061.9237260745238,8397,-4148,10815,14306.632657617236
1735580511896,160,-41,1049,1061.9237260745238,8608,-4159,9130,13219.373850527112
1735580511926,207,-44,1031,1052.4951306300661,8754,-4121,7454,12213.814842218626
1735580511956,207,-44,1031,1052.4951306300661,8780,-4052,5849,11301.234667061824
1735580511986,207,-44,1031,1052.4951306300661,8785,-3981,4247,10538.576516778725
1735580512016,207,-44,1031,1052.4951306300661,8774,-3912,2648,9964.874509997604
1735580512046,160,154,956,981.4540233755222,8689,-3860,961,9556.246229561062
1735580512107,160,154,956,981.4540233755222,8569,-3839,-743,9419.009024308236
1735580512107,160,154,956,981.4540233755222,8466,-3844,-2450,9615.195889840206
1735580512137,42,-2,1016,1016.8697065012803,8478,-3890,-4200,10229.789049633428
1735580512166,42,-2,1016,1016.8697065012803,8642,-3921,-6036,11246.852937599922
1735580512196,42,-2,1016,1016.8697065012803,8782,-3914,-7872,12426.234506076247
1735580512226,187,-11,924,942.7969028375094,8875,-3880,-9684,13696.710590503108
1735580512256,187,-11,924,942.7969028375094,8822,-3852,-11298,14842.856598377552
1735580512287,187,-11,924,942.7969028375094,8772,-3835,-12911,16073.2426722177
1735580512316,187,-11,924,942.7969028375094,8727,-3828,-14526,17372.932653987926
1735580512346,224,30,993,1018.3933424762753,8690,-3867,-16101,18700.587958671247
1735580512376,224,30,993,1018.3933424762753,8649,-3915,-17664,20053.66106225993
1735580512406,224,30,993,1018.3933424762753,8626,-3969,16770,19271.578477125324
1735580512436,192,-70,989,1009.8935587476534,8670,-4038,15150,17916.384791581142
1735580512466,192,-70,989,1009.8935587476534,8798,-4091,13482,16610.400627317813
1735580512496,192,-70,989,1009.8935587476534,8915,-4117,11813,15361.441436271532
1735580512526,213,-7,950,973.6108051988741,9020,-4131,10133,14181.087757996564
1735580512556,213,-7,950,973.6108051988741,9051,-4155,8455,13064.136060222276
1735580512586,213,-7,950,973.6108051988741,9083,-4173,6775,12075.406535599537
1735580512616,213,-7,950,973.6108051988741,9113,-4183,5096,11247.820855614655
1735580512646,205,-12,1018,1038.5051757213346,9105,-4248,3505,10641.031622920778
1735580512676,205,-12,1018,1038.5051757213346,9116,-4312,1907,10263.111078030872
1735580512706,205,-12,1018,1038.5051757213346,9140,-4372,307,10136.480306299618
1735580512736,110,-41,987,993.9567395012723,9232,-4436,-1395,10337.018187078902
1735580512766,110,-41,987,993.9567395012723,9399,-4472,-3209,10892.09190192591
1735580512796,110,-41,987,993.9567395012723,9545,-4473,-5022,11676.268153823807
1735580512826,239,-42,1013,1041.6592533069536,9647,-4454,-6815,12623.270178523471
1735580512856,239,-42,1013,1041.6592533069536,9602,-4463,-8420,13528.236137797123
1735580512887,239,-42,1013,1041.6592533069536,9566,-4479,-10026,14563.326302737298
1735580512916,239,-42,1013,1041.6592533069536,9541,-4502,-11634,15705.051448498984
1735580512945,63,-54,1011,1014.3993296527754,9679,-4469,-13559,17248.23130062906
1735580512976,63,-54,1011,1014.3993296527754,9821,-4391,-15541,18901.20639006939
1735580513006,63,-54,1011,1014.3993296527754,9909,-4284,-17506,20566.987455628983
1735580513036,187,-38,1003,1020.990695354272,9849,-4227,16746,19882.123779918482
1735580513066,187,-38,1003,1020.990695354272,9698,-4235,15171,18497.180055348977
1735580513095,187,-38,1003,1020.990695354272,9575,-4270,13592,17165.546568635677
1735580513126,159,-30,1006,1018.9293400427725,9504,-4328,11984,15895.718165594155
1735580513156,159,-30,1006,1018.9293400427725,9514,-4391,10284,14681.884518003812
1735580513186,159,-30,1006,1018.9293400427725,9538,-4452,8579,13579.13800651573
1735580513216,144,-111,1019,1035.0932325157962,9597,-4502,6831,12610.827649286148
1735580513247,144,-111,1019,1035.0932325157962,9776,-4515,4985,11866.154642511618
1735580513275,144,-111,1019,1035.0932325157962,9925,-4491,3143,11338.128372884124
1735580513307,144,-111,1019,1035.0932325157962,10038,-4437,1309,11052.687184571903
1735580513337,117,-39,902,910.3922231653784,10036,-4388,-504,10964.937573921705
1735580513366,117,-39,902,910.3922231653784,10008,-4342,-2325,11154.310960341745
1735580513396,117,-39,902,910.3922231653784,9973,-4302,-4142,11624.289096542636
1735580513426,130,-200,1018,1045.573526826306,9943,-4294,-5930,12347.736027304763
1735580513456,130,-200,1018,1045.573526826306,10061,-4324,-7649,13357.690593811492
1735580513486,130,-200,1018,1045.573526826306,10165,-4331,-9368,14486.000483225174
1735580513516,273,-132,912,961.0915669175337,10217,-4327,-11069,15672.6761913848
1735580513546,273,-132,912,961.0915669175337,10039,-4389,-12572,16676.33131117273
1735580513576,273,-132,912,961.0915669175337,9904,-4481,-14079,17787.26561335384
1735580513607,273,-132,912,961.0915669175337,9810,-4595,-15590,18984.157210684913
1735580513637,130,-144,847,868.9332540534975,9897,-4729,-17270,20458.90881743208
1735580513666,130,-144,847,868.9332540534975,10047,-4830,16974,20307.3332813543
1735580513696,130,-144,847,868.9332540534975,10199,-4902,15208,18956.06681250095
1735580513726,171,-155,981,1007.7832108147069,10395,-4948,13384,17654.183215317553
1735580513756,171,-155,981,1007.7832108147069,10579,-4962,11557,16434.747761982842
1735580513786,171,-155,981,1007.7832108147069,10733,-4942,9734,15309.19361037674
1735580513816,181,-197,981,1016.8239769006236,10844,-4890,7906,14283.181438321086
1735580513846,181,-197,981,1016.8239769006236,10930,-4809,6079,13399.463496722547
1735580513876,181,-197,981,1016.8239769006236,10974,-4711,4267,12681.856567553506
1735580513906,181,-197,981,1016.8239769006236,10979,-4604,2470,12158.789290056802
1735580513936,126,-75,1002,1012.6722075775557,10927,-4496,641,11833.183257264294
1735580513966,126,-75,1002,1012.6722075775557,10835,-4398,-1199,11754.881113818208
1735580513996,126,-75,1002,1012.6722075775557,10733,-4319,-3034,11960.610603142299
1735580514026,95,-177,1002,1021.9383543051899,10657,-4255,-4879,12469.214690588979
1735580514056,95,-177,1002,1021.9383543051899,10639,-4188,-6744,13274.381379182987
1735580514086,95,-177,1002,1021.9383543051899,10605,-4126,-8602,14264.792497614537
1735580514116,102,-143,898,915.0174861717124,10541,-4087,-10417,15373.032849766503
1735580514146,102,-143,898,915.0174861717124,10419,-4101,-12143,16517.451710236663
1735580514206,102,-143,898,915.0174861717124,10323,-4140,-13873,17781.002727630406
1735580514206,102,-143,898,915.0174861717124,10255,-4198,-15607,19140.707353700385
1735580514237,141,-223,982,1016.8254520811328,10280,-4274,-17347,20612.22659006057
1735580514267,141,-223,982,1016.8254520811328,10332,-4343,16920,20295.277110697454
1735580514297,141,-223,982,1016.8254520811328,10394,-4402,15183,18919.20529514916
1735580514326,146,-217,898,935.3122473270624,10439,-4470,13462,17611.90123183752
1735580514356,146,-217,898,935.3122473270624,10481,-4543,11748,16386.1439637274
1735580514386,146,-217,898,935.3122473270624,10536,-4608,10027,15257.184832071742
1735580514416,129,-210,992,1022.1570329455254,10631,-4669,8274,14257.517245299057
1735580514446,129,-210,992,1022.1570329455254,10796,-4711,6446,13427.511050079236
1735580514476,129,-210,992,1022.1570329455254,10943,-4720,4616,12780.26232125147
1735580514506,129,-210,992,1022.1570329455254,11065,-4701,2789,12341.480745842453
1735580514537,190,-196,935,974.0333669849304,11124,-4684,950,12107.259475207426
1735580514566,190,-196,935,974.0333669849304,11150,-4667,-862,12118.021001797282
1735580514596,190,-196,935,974.0333669849304,11165,-4644,-2671,12383.787869630196
1735580514626,139,-242,950,990.1439289315468,11201,-4620,-4512,12929.22832190692
1735580514656,139,-242,950,990.1439289315468,11269,-4572,-6394,13739.606289846883
1735580514686,139,-242,950,990.1439289315468,11309,-4511,-8266,14716.295661612674
1735580514716,169,-294,911,972.0689275972152,11304,-4443,-10123,15811.255294884084
1735580514746,169,-294,911,972.0689275972152,11274,-4392,-11930,16991.693264651407
1735580514776,169,-294,911,972.0689275972152,11235,-4347,-13733,18267.92059868884
1735580514806,169,-294,911,972.0689275972152,11191,-4308,-15533,19623.23709279384
1735580514836,156,-209,968,1002.5173315210067,11128,-4267,-17344,21044.096773204594
1735580514866,156,-209,968,1002.5173315210067,11048,-4242,16841,20583.297816433595
1735580514896,156,-209,968,1002.5173315210067,10975,-4233,15026,19082.70394886427
1735580514926,134,-260,926,971.0983472336877,10910,-4253,13250,17682.72063343195
1735580514956,134,-260,926,971.0983472336877,10889,-4284,11479,16391.77897605992
1735580514986,134,-260,926,971.0983472336877,10880,-4320,9704,15205.407459190299
1735580515016,108,-232,938,972.2818521395943,10896,-4369,7934,14168.956665894635
1735580515046,108,-232,938,972.2818521395943,10944,-4429,6149,13311.550548302028
1735580515077,108,-232,938,972.2818521395943,11000,-4480,4357,12651.239030229412
1735580515106,108,-232,938,972.2818521395943,11061,-4520,2561,12220.26358144537
1735580515136,221,-258,925,985.4085447163527,11061,-4595,876,12009.45968809588
1735580515166,221,-258,925,985.4085447163527,11063,-4688,-775,12040.26320310316
1735580515196,221,-258,925,985.4085447163527,11090,-4781,-2437,12320.10673655062
1735580515226,183,-100,904,927.7418822064681,11187,-4844,-4223,12901.435346503116
1735580515256,183,-100,904,927.7418822064681,11258,-4874,-6095,13698.447539776178
1735580515286,183,-100,904,927.7418822064681,11326,-4891,-7969,14686.902941056022
1735580515316,71,-239,950,982.1720826820522,11360,-4875,-9851,15806.879072100222
1735580515346,71,-239,950,982.1720826820522,11521,-4749,-11860,17203.082340092427
1735580515377,71,-239,950,982.1720826820522,11601,-4587,-13834,18628.02528450077
1735580515406,71,-239,950,982.1720826820522,11608,-4407,-15777,20076.87829320086
1735580515436,93,-336,925,988.5190944033403,11610,-4296,-17606,21522.521971181723
1735580515466,93,-336,925,988.5190944033403,11599,-4180,16585,20665.706520707197
1735580515496,93,-336,925,988.5190944033403,11556,-4064,14789,19203.43076119473
1735580515526,306,-206,989,1055.5534093545432,11421,-3999,13088,17824.897923971403
1735580515556,306,-206,989,1055.5534093545432,11160,-4046,11536,16552.79468851106
1735580515586,306,-206,989,1055.5534093545432,10955,-4142,9979,15386.638034346555
1735580515616,31,-287,935,978.5473928226471,10815,-4249,8380,14326.29142520841
1735580515646,31,-287,935,978.5473928226471,10977,-4206,6403,13385.939414176355
1735580515676,31,-287,935,978.5473928226471,11092,-4127,4438,12639.637534359916
1735580515706,31,-287,935,978.5473928226471,11158,-4021,2488,12118.562167187987
1735580515736,221,-281,949,1014.1020658691116,11111,-4056,789,11854.449713082426
1735580515766,221,-281,949,1014.1020658691116,11048,-4130,-848,11825.155728361466
1735580515795,221,-281,949,1014.1020658691116,11014,-4216,-2491,12053.544416477669
1735580515825,157,-330,945,1013.1998815633567,11049,-4274,-4215,12574.327099292432
1735580515856,157,-330,945,1013.1998815633567,11148,-4286,-6013,13371.756391738521
1735580515886,157,-330,945,1013.1998815633567,11232,-4277,-7810,14333.41037576194
1735580515916,62,-243,896,930.4348445753737,11311,-4231,-9630,15445.937394667893
1735580515946,62,-243,896,930.4348445753737,11361,-4094,-11589,16737.325891551493
1735580515976,62,-243,896,930.4348445753737,11356,-3945,-13530,18099.244763249102
1735580516006,62,-243,896,930.4348445753737,11307,-3797,-15457,19523.94189194385
1735580516036,166,-245,1015,1057.2634487203272,11135,-3788,-17171,20812.98657088886
1735580516065,166,-245,1015,1057.2634487203272,10978,-3831,17144,20714.965146000126
1735580516096,166,-245,1015,1057.2634487203272,10860,-3906,15456,19289.488640189506
1735580516126,147,-296,1054,1104.5999275755905,10816,-3983,13722,17920.475133210057
1735580516156,147,-296,1054,1104.5999275755905,10840,-4047,11954,16636.76425871329
1735580516186,147,-296,1054,1104.5999275755905,10877,-4107,10180,15453.445505776373
1735580516216,180,-246,987,1032.9980638897634,10909,-4144,8382,14367.91359244619
1735580516246,180,-246,987,1032.9980638897634,10852,-4170,6577,13357.085497966988
1735580516276,180,-246,987,1032.9980638897634,10813,-4207,4769,12544.44813453346
1735580516306,180,-246,987,1032.9980638897634,10792,-4253,2956,11970.514149358833
1735580516336,98,-334,958,1019.276213790943,10856,-4319,1147,11739.766011296819
1735580516366,98,-334,958,1019.276213790943,10966,-4355,-696,11819.627616807562
1735580516396,98,-334,958,1019.276213790943,11065,-4368,-2541,12164.30556998631
1735580516426,209,-353,1026,1104.973302844915,11166,-4382,-4344,12757.42199662612
1735580516456,209,-353,1026,1104.973302844915,11235,-4410,-6066,13508.133882961036
1735580516486,209,-353,1026,1104.973302844915,11299,-4425,-7791,14420.392054309757
1735580516516,159,-315,924,989.0813919996675,11334,-4426,-9497,15435.091220980847
1735580516546,159,-315,924,989.0813919996675,11323,-4407,-11221,16539.12993479403
1735580516577,159,-315,924,989.0813919996675,11308,-4389,-12944,17739.25931373686
1735580516606,159,-315,924,989.0813919996675,11292,-4373,-14665,19018.27063641697
1735580516636,74,-310,964,1015.3186691871671,11379,-4277,-16579,20558.151935424547
1735580516666,74,-310,964,1015.3186691871671,11429,-4147,17495,21304.80403570988
1735580516696,74,-310,964,1015.3186691871671,11429,-4004,15588,19739.29585876862
1735580516726,108,-302,1005,1054.9374389033692,11352,-3881,13737,18238.290325576025
1735580516757,108,-302,1005,1054.9374389033692,11232,-3793,11929,16818.017540721023
1735580516787,108,-302,1005,1054.9374389033692,11111,-3731,10122,15486.431674210815
1735580516816,331,-300,1008,1102.5538535599974,10996,-3699,8308,14269.459730487346
1735580516846,331,-300,1008,1102.5538535599974,10775,-3785,6701,13241.232986395187
1735580516877,331,-300,1008,1102.5538535599974,10611,-3916,5091,12403.493781995458
1735580516906,331,-300,1008,1102.5538535599974,10506,-4079,3476,11793.932889413947
1735580516935,105,-247,996,1031.5279928339319,10494,-4214,1735,11440.806658623333
1735580516966,105,-247,996,1031.5279928339319,10553,-4326,-101,11405.71286680495
1735580516997,105,-247,996,1031.5279928339319,10635,-4424,-1950,11682.358537555676
1735580517026,147,-237,961,1000.6492892117598,10727,-4503,-3805,12240.243584177564
1735580517056,147,-237,961,1000.6492892117598,10806,-4571,-5644,13019.923694092835
1735580517086,147,-237,961,1000.6492892117598,10892,-4623,-7491,14004.38766958413
1735580517116,197,-296,958,1021.8556649546941,10971,-4658,-9341,15143.120088013566
1735580517146,197,-296,958,1021.8556649546941,11047,-4692,-11132,16369.865515635734
1735580517176,197,-296,958,1021.8556649546941,11119,-4711,-12927,17689.912690570294
1735580517206,205,-232,942,991.5709757753098,11206,-4702,-14745,19107.544714065174
1735580517236,205,-232,942,991.5709757753098,11252,-4649,-16595,20581.902973243265
1735580517266,205,-232,942,991.5709757753098,11272,-4587,17563,21367.206696243662
1735580517296,205,-232,942,991.5709757753098,11270,-4520,15732,19873.075353351833
1735580517326,262,-175,990,1038.926850167999,11172,-4515,14038,18500.385212205718
1735580517356,262,-175,990,1038.926850167999,11064,-4540,12363,17200.79838263329
1735580517386,262,-175,990,1038.926850167999,10983,-4586,10683,15993.254015365354
1735580517416,160,-113,915,935.7317991817955,10908,-4647,9026,14901.266691123947
1735580517446,160,-113,915,935.7317991817955,10851,-4694,7299,13894.359934880053
1735580517477,160,-113,915,935.7317991817955,10818,-4751,5565,13060.258420107926
1735580517506,169,-210,992,1027.9713031014046,10819,-4811,3811,12438.657604420181
1735580517536,169,-210,992,1027.9713031014046,10927,-4853,2036,12128.323626948615
1735580517566,169,-210,992,1027.9713031014046,11028,-4875,258,12060.222759136748
1735580517596,169,-210,992,1027.9713031014046,11117,-4878,-1520,12234.907968595431
1735580517626,34,-296,963,1008.038193720853,11373,-4775,-3497,12820.872162220478
1735580517656,34,-296,963,1008.038193720853,11585,-4590,-5484,13614.498925777621
1735580517686,34,-296,963,1008.038193720853,11685,-4358,-7425,14514.20042578991
1735580517716,119,-214,989,1018.861128908155,11648,-4129,-9288,15459.349565877603
1735580517746,119,-214,989,1018.861128908155,11484,-3950,-11075,16435.947827855867
1735580517776,119,-214,989,1018.861128908155,11304,-3803,-12857,17536.98018474104
1735580517806,222,-255,1019,1073.624701653236,11114,-3689,-14631,18740.22086315954
1735580517836,222,-255,1019,1073.624701653236,10898,-3645,-16291,19936.125752011096
1735580517866,222,-255,1019,1073.624701653236,10711,-3645,-17954,21221.63193536256
1735580517896,222,-255,1019,1073.624701653236,10559,-3684,16378,19831.87386506883
1735580517926,226,-263,932,994.4189258054173,10416,-3761,14749,18443.73004573641
1735580517955,226,-263,932,994.4189258054173,10316,-3866,13118,17130.316284295513
1735580517986,226,-263,932,994.4189258054173,10259,-3990,11482,15906.08389893628
1735580518016,254,-256,1003,1065.8616232888771,10228,-4132,9849,14788.110393150302
1735580518046,254,-256,1003,1065.8616232888771,10219,-4289,8229,13803.619923773618
1735580518076,254,-256,1003,1065.8616232888771,10250,-4447,6598,12975.820320889157
1735580518106,146,-193,901,932.9340812726267,10313,-4587,4949,12324.412318646273
1735580518136,146,-193,901,932.9340812726267,10429,-4665,3148,11850.576779212057
1735580518166,146,-193,901,932.9340812726267,10548,-4719,1339,11632.806454162297
1735580518196,146,-193,901,932.9340812726267,10661,-4751,-474,11681.335454476084
1735580518226,82,-194,940,963.3068047096938,10801,-4755,-2309,12025.103201220354
1735580518256,82,-194,940,963.3068047096938,10930,-4722,-4163,12613.197572384253
1735580518286,82,-194,940,963.3068047096938,11023,-4663,-6007,13391.569997576833
1735580518316,32,-172,989,1004.3550169138401,11089,-4567,-7856,14336.671370998221
1735580518347,32,-172,989,1004.3550169138401,11122,-4437,-9722,15424.108953194022
1735580518376,32,-172,989,1004.3550169138401,11108,-4300,-11571,16606.194777853234
1735580518405,309,-145,930,990.6593763751495,11058,-4164,-13407,17870.811649166917
1735580518436,309,-145,930,990.6593763751495,10794,-4150,-14944,18895.927391901143
1735580518466,309,-145,930,990.6593763751495,10573,-4183,-16486,20026.832350624
1735580518496,309,-145,930,990.6593763751495,10398,-4255,17967,21190.481778383426
1735580518526,211,-200,933,977.2461307163104,10377,-4324,16307,19806.49777219587
1735580518556,211,-200,933,977.2461307163104,10412,-4382,14603,18462.37463058314
1735580518586,211,-200,933,977.2461307163104,10456,-4433,12895,17183.14435718911
1735580518616,60,-185,925,945.2248409770027,10556,-4451,11105,15954.98549043527
1735580518646,60,-185,925,945.2248409770027,10707,-4407,9195,14785.449705707297
1735580518676,60,-185,925,945.2248409770027,10814,-4331,7296,13745.245468888506
1735580518706,193,-57,936,957.3891580752312,10857,-4263,5463,12879.906327299124
1735580518736,193,-57,936,957.3891580752312,10658,-4314,3883,12135.948623820059
1735580518766,193,-57,936,957.3891580752312,10505,-4401,2297,11618.951544782343
1735580518796,193,-57,936,957.3891580752312,10398,-4516,705,11358.243041949754
1735580518826,175,-271,966,1018.4409653976022,10434,-4589,-943,11437.505234971479
1735580518856,175,-271,966,1018.4409653976022,10540,-4642,-2606,11808.09044680807
1735580518886,175,-271,966,1018.4409653976022,10642,-4676,-4272,12384.148093429762
1735580518916,208,-138,906,939.7574155067891,10687,-4688,-5924,13087.516532940846
1735580518946,208,-138,906,939.7574155067891,10641,-4707,-7550,13870.444477377068
1735580518976,208,-138,906,939.7574155067891,10609,-4735,-9179,14806.253644997441
1735580519007,114,-186,945,969.854112740674,10626,-4770,-10831,15905.198426929479
1735580519036,114,-186,945,969.854112740674,10830,-4760,-12637,17310.12042130268
1735580519066,114,-186,945,969.854112740674,10992,-4711,-14433,18743.774273075313
1735580519096,114,-186,945,969.854112740674,11108,-4631,-16216,20193.872362674774
1735580519125,164,-271,954,1005.212912770225,11134,-4533,-17932,21588.669921975277
1735580519156,164,-271,954,1005.212912770225,11140,-4432,16380,20298.931597500396
1735580519186,164,-271,954,1005.212912770225,11118,-4327,14703,18934.38834501923
1735580519216,180,-195,1025,1058.7964865827616,11088,-4231,13031,17625.32456438746
1735580519246,180,-195,1025,1058.7964865827616,11010,-4150,11370,16362.136168605859
1735580519276,180,-195,1025,1058.7964865827616,10928,-4083,9712,15179.427426619226
1735580519306,145,-217,901,938.037845718391,10830,-4023,8054,14083.335719920902
1735580519336,145,-217,901,938.037845718391,10745,-3954,6360,13097.279908439004
1735580519366,145,-217,901,938.037845718391,10658,-3901,4666,12271.19884118907
1735580519397,145,-217,901,938.037845718391,10575,-3866,2973,11645.398662132611
1735580519426,84,-165,933,951.1939865243052,10573,-3813,1194,11302.784347230554
1735580519456,84,-165,933,951.1939865243052,10553,-3757,-602,11217.98832233302
1735580519486,84,-165,933,951.1939865243052,10522,-3705,-2396,11409.659285009348
1735580519516,137,-172,915,941.0515395024865,10438,-3671,-4146,11815.980746429812
1735580519546,137,-172,915,941.0515395024865,10331,-3670,-5849,12426.152340929995
1735580519576,137,-172,915,941.0515395024865,10244,-3692,-7554,13252.672032461982
1735580519606,171,-201,935,971.5281776665049,10188,-3734,-9257,14262.894131276444
1735580519636,171,-201,935,971.5281776665049,10173,-3794,-10918,15397.63257776987
1735580519666,171,-201,935,971.5281776665049,10174,-3856,-12582,16633.87315089303
1735580519696,171,-201,935,971.5281776665049,10191,-3917,-14249,17950.85989583786
1735580519726,133,-173,972,996.193756254274,10251,-3922,-16012,19412.604899909747
1735580519756,133,-173,972,996.193756254274,10300,-3911,-17788,20923.64368364172
1735580519786,133,-173,972,996.193756254274,10337,-3890,16438,19803.876211489507
1735580519816,132,-149,1000,1019.6200272650592,10324,-3865,14683,18360.656034031028
1735580519846,132,-149,1000,1019.6200272650592,10282,-3848,12938,16968.160536722888
1735580519876,132,-149,1000,1019.6200272650592,10244,-3841,11192,15650.996166378676
1735580519906,142,-213,1094,1123.5519569650528,10212,-3836,9433,14421.557786868934
1735580519936,142,-213,1094,1123.5519569650528,10230,-3824,7659,13339.27123196766
1735580519966,142,-213,1094,1123.5519569650528,10241,-3807,5886,12410.331421843657
1735580519996,142,-213,1094,1123.5519569650528,10245,-3788,4115,11672.283152836895
1735580520026,189,-239,1032,1076.0418207486175,10213,-3789,2402,11154.88655253831
1735580520056,189,-239,1032,1076.0418207486175,10185,-3801,704,10893.917660786683
1735580520086,189,-239,1032,1076.0418207486175,10165,-3818,-993,10903.68735795373
1735580520116,88,-168,925,944.2420240595098,10131,-3828,-2718,11165.942369544991
1735580520146,88,-168,925,944.2420240595098,10094,-3832,-4510,11700.989701730363
1735580520176,88,-168,925,944.2420240595098,10066,-3845,-6304,12483.9415650667
1735580520206,165,-205,976,1010.8540943182651,10045,-3866,-8087,13462.821026813066
1735580520236,165,-205,976,1010.8540943182651,10016,-3912,-9766,14525.796226024926
1735580520266,165,-205,976,1010.8540943182651,10003,-3964,-11448,15710.824580524091
1735580520296,165,-205,976,1010.8540943182651,10005,-4018,-13133,16991.763828396393
1735580520326,64,-156,891,906.8147550630173,10053,-4048,-14893,18418.755712588187
1735580520356,64,-156,891,906.8147550630173,10107,-4060,-16690,19929.65501457564
1735580520386,64,-156,891,906.8147550630173,10154,-4060,17513,20646.85169705057
1735580520416,248,-201,950,1002.2000798243831,10166,-4079,15819,19241.27225523302
1735580520446,248,-201,950,1002.2000798243831,10131,-4134,14276,17986.975649063406
1735580520476,248,-201,950,1002.2000798243831,10113,-4196,12731,16791.5915267136
1735580520506,97,-188,926,949.8573577121988,10112,-4252,11161,15649.280143188696
1735580520536,97,-188,926,949.8573577121988,10214,-4251,9377,14502.583425031555
1735580520566,97,-188,926,949.8573577121988,10297,-4229,7595,13475.781053430632
1735580520596,97,-188,926,949.8573577121988,10358,-4191,5818,12597.689034104627
1735580520626,62,-187,957,977.0680631358289,10470,-4125,3976,11935.036698728663
1735580520656,62,-187,957,977.0680631358289,10548,-4031,2133,11491.690650204608
1735580520686,62,-187,957,977.0680631358289,10583,-3921,300,11290.00132860931
1735580520716,185,-153,945,975.0174357415359,10512,-3819,-1467,11280.026329756505
1735580520746,185,-153,945,975.0174357415359,10353,-3766,-3142,11455.982236368909
1735580520776,185,-153,945,975.0174357415359,10211,-3746,-4820,11896.61451842498
1735580520806,304,-97,911,965.269910439562,10075,-3753,-6503,12565.01663349476
1735580520836,304,-97,911,965.269910439562,9816,-3822,-8064,13266.10854772416
1735580520866,304,-97,911,965.269910439562,9617,-3940,-9627,14166.489261634302
1735580520896,304,-97,911,965.269910439562,9476,-4093,-11193,15225.980231170668
1735580520926,121,-166,907,929.9709672887643,9528,-4240,-12901,16589.038097490764
1735580520956,121,-166,907,929.9709672887643,9668,-4354,-14693,18119.37606541682
1735580520986,121,-166,907,929.9709672887643,9815,-4436,-16494,19699.34915168519
1735580521017,30,-173,936,952.3260996108423,10009,-4506,17707,20833.193850199732
1735580521047,30,-173,936,952.3260996108423,10248,-4528,15856,19414.866056710256
1735580521077,30,-173,936,952.3260996108423,10447,-4502,14010,18046.82556573316
1735580521105,89,-263,849,893.2474461200546,10576,-4447,12192,16741.339522272403
1735580521136,89,-263,849,893.2474461200546,10658,-4403,10483,15584.372364647863
1735580521166,89,-263,849,893.2474461200546,10713,-4344,8781,14517.0474270769
1735580521196,234,-127,1019,1053.2074819331658,10777,-4270,7059,13572.255155279096
1735580521226,234,-127,1019,1053.2074819331658,10669,-4240,5448,12707.708880832924
1735580521256,234,-127,1019,1053.2074819331658,10574,-4229,3836,12017.021802426756
1735580521286,234,-127,1019,1053.2074819331658,10494,-4235,2222,11532.412800450737
1735580521316,178,-307,1055,1113.084902422093,10541,-4217,543,11366.205127482082
1735580521346,178,-307,1055,1113.084902422093,10630,-4172,-1153,11477.451502838076
1735580521376,178,-307,1055,1113.084902422093,10691,-4109,-2843,11801.017371396418
1735580521406,91,-257,908,948.0474671660697,10730,-4030,-4535,12326.3954585272
1735580521436,91,-257,908,948.0474671660697,10761,-3909,-6327,13080.914761590644
1735580521466,91,-257,908,948.0474671660697,10752,-3782,-8109,13988.0273448403
1735580521497,-33,-150,994,1005.7957049023424,10727,-3650,-9904,15049.260613066677
1735580521527,-33,-150,994,1005.7957049023424,10670,-3478,-11856,16325.137671701272
1735580521557,-33,-150,994,1005.7957049023424,10574,-3323,-13801,17700.83065847476
1735580521586,-33,-150,994,1005.7957049023424,10454,-3195,-15744,19166.8379499593
1735580521616,169,-373,962,1045.5304873603638,10319,-3189,-17452,20523.73713532699
1735580521676,169,-373,962,1045.5304873603638,10238,-3219,16903,20022.23798679858
1735580521676,169,-373,962,1045.5304873603638,10179,-3267,15257,18629.58343602991
1735580521706,142,-297,922,979.0081715695737,10162,-3293,13552,17255.920636117913
1735580521736,142,-297,922,979.0081715695737,10138,-3308,11802,15906.260151273775
1735580521766,142,-297,922,979.0081715695737,10123,-3328,10051,14648.321200738328
1735580521797,289,-230,992,1058.5296405864126,10091,-3358,8339,13514.56125813931
1735580521826,289,-230,992,1058.5296405864126,9899,-3460,6856,12528.628695910818
1735580521856,289,-230,992,1058.5296405864126,9758,-3597,5375,11706.733019933443
1735580521886,289,-230,992,1058.5296405864126,9668,-3759,3895,11080.22247069074
1735580521916,95,-253,855,896.6933701104297,9736,-3929,2230,10733.10938172159
1735580521946,95,-253,855,896.6933701104297,9879,-4063,484,10692.841811230539
1735580521976,95,-253,855,896.6933701104297,10032,-4166,-1272,10936.844334633277
1735580522006,197,-255,966,1018.3270594460308,10156,-4244,-3005,11409.903461467147
1735580522036,197,-255,966,1018.3270594460308,10233,-4318,-4672,12049.356704820386
1735580522067,197,-255,966,1018.3270594460308,10315,-4377,-6344,12876.478167573616
1735580522097,194,-244,1055,1100.0895418101202,10411,-4415,-8044,13877.574788124904
1735580522127,194,-244,1055,1100.0895418101202,10517,-4418,-9800,15038.816875007156
1735580522157,194,-244,1055,1100.0895418101202,10603,-4401,-11553,16286.933996305137
1735580522186,194,-244,1055,1100.0895418101202,10669,-4367,-13301,17601.558198068717
1735580522216,115,-248,982,1019.3394920241244,10713,-4287,-15098,19002.53514665872
1735580522246,115,-248,982,1019.3394920241244,10742,-4188,-16912,20468.161910635747
1735580522276,115,-248,982,1019.3394920241244,10737,-4082,17283,20752.05970500278
1735580522306,133,-263,924,969.8628769058026,10684,-4000,15540,19277.952588384484
1735580522336,133,-263,924,969.8628769058026,10613,-3943,13836,17877.861001808913
1735580522366,133,-263,924,969.8628769058026,10542,-3900,12134,16540.18500501128
1735580522396,168,-192,965,998.1547976140774,10467,-3867,10440,15280.882762458457
1735580522427,168,-192,965,998.1547976140774,10307,-3863,8800,14092.44542299171
1735580522456,168,-192,965,998.1547976140774,10176,-3890,7156,13034.239985515074
1735580522486,168,-192,965,998.1547976140774,10074,-3944,5510,12140.86949110318
1735580522516,166,-143,920,945.7298768675969,9988,-4027,3889,11449.942969290283
1735580522546,166,-143,920,945.7298768675969,9924,-4130,2262,10984.503630114563
1735580522576,166,-143,920,945.7298768675969,9896,-4243,629,10785.615698697966
1735580522606,192,-185,923,960.7382577996985,9936,-4356,-1062,10900.76492728836
1735580522636,192,-185,923,960.7382577996985,10022,-4455,-2773,11312.693666850526
1735580522666,192,-185,923,960.7382577996985,10119,-4536,-4493,11964.80279820775
1735580522696,282,-240,977,1044.821994408617,10223,-4600,-6222,12821.193899165553
1735580522726,282,-240,977,1044.821994408617,10303,-4667,-7848,13766.764398361729
1735580522756,282,-240,977,1044.821994408617,10386,-4721,-9481,14833.954226705704
1735580522786,282,-240,977,1044.821994408617,10468,-4760,-11118,15995.203906171375
1735580522816,194,-224,1013,1055.452983320432,10621,-4759,-12861,17345.288783989734
1735580522847,194,-224,1013,1055.452983320432,10762,-4717,-14634,18767.650066004535
1735580522907,194,-224,1013,1055.452983320432,10863,-4649,-16396,20210.06645214211
1735580522907,301,-216,974,1042.0810908945618,10839,-4595,17937,21455.393610931496
1735580522937,301,-216,974,1042.0810908945618,10728,-4588,16379,20109.98182495449
1735580522967,301,-216,974,1042.0810908945618,10635,-4599,14818,18810.29372444779
1735580522996,236,-285,977,1044.7248441575418,10575,-4623,13244,17567.193572110486
1735580523026,236,-285,977,1044.7248441575418,10665,-4620,11568,16398.33067723663
1735580523056,236,-285,977,1044.7248441575418,10737,-4600,9894,15307.985007831698
1735580523086,236,-285,977,1044.7248441575418,10790,-4567,8225,14315.453677756776
1735580523116,262,-196,992,1044.568810562521,10787,-4556,6570,13426.891114476202
1735580523146,262,-196,992,1044.568810562521,10752,-4554,4925,12672.807305407907
1735580523176,262,-196,992,1044.568810562521,10724,-4559,3280,12105.662187588088
1735580523206,247,-439,1026,1142.9811896964884,10755,-4562,1592,11790.518775694309
1735580523236,247,-439,1026,1142.9811896964884,10910,-4532,-122,11814.482976415007
1735580523267,247,-439,1026,1142.9811896964884,11027,-4472,-1828,12038.899326765715
1735580523296,218,-281,951,1015.3255635509233,11116,-4395,-3517,12459.966693374425
1735580523326,218,-281,951,1015.3255635509233,11073,-4313,-5219,12978.877416787633
1735580523356,218,-281,951,1015.3255635509233,11016,-4239,-6915,13679.861183506213
1735580523386,218,-281,951,1015.3255635509233,10951,-4175,-8607,14540.820987825962
1735580523416,342,-147,1049,1113.0920896314014,10757,-4182,-10201,15403.329964653747
1735580523446,342,-147,1049,1113.0920896314014,10540,-4249,-11753,16348.657743068696
1735580523476,342,-147,1049,1113.0920896314014,10374,-4356,-13309,17427.681802236348
1735580523506,86,-249,934,970.4395911132233,10370,-4466,-14976,18755.336094029346
1735580523536,86,-249,934,970.4395911132233,10574,-4504,-16852,20398.171388631876
1735580523566,86,-249,934,970.4395911132233,10751,-4499,17272,20836.194134246303
1735580523596,386,-244,1016,1113.9066388167366,10882,-4471,15426,19400.238168641125
1735580523627,386,-244,1016,1113.9066388167366,10747,-4563,13976,18211.193096554656
1735580523656,386,-244,1016,1113.9066388167366,10653,-4679,12520,17091.806516573957
1735580523686,386,-244,1016,1113.9066388167366,10598,-4811,11057,16053.677896357582
1735580523716,125,-316,1029,1083.6613862272661,10825,-4848,9254,15043.94379808699
1735580523746,125,-316,1029,1083.6613862272661,11102,-4797,7351,14152.837665994759
1735580523775,125,-316,1029,1083.6613862272661,11305,-4692,5469,13406.261596731581
1735580523806,267,-291,947,1026.0501937039921,11364,-4603,3697,12806.088942374248
1735580523836,267,-291,947,1026.0501937039921,11302,-4570,2054,12362.807933475307
1735580523866,267,-291,947,1026.0501937039921,11244,-4548,412,12135.962425782307
1735580523896,190,-377,1029,1112.2364856450267,11224,-4530,-1273,12170.439803063815
1735580523926,190,-377,1029,1112.2364856450267,11386,-4452,-3128,12619.258456819085
1735580523956,190,-377,1029,1112.2364856450267,11490,-4340,-4965,13247.902664195566
1735580523986,190,-377,1029,1112.2364856450267,11539,-4204,-6784,14030.138737731711
1735580524016,340,-364,1010,1126.142086949955,11403,-4175,-8379,14753.530933305423
1735580524046,340,-364,1010,1126.142086949955,11255,-4197,-9925,15581.89523132536
1735580524077,340,-364,1010,1126.142086949955,11138,-4245,-11474,16544.719550358055
1735580524106,392,-444,964,1131.413275509882,11016,-4342,-12986,17573.884488069223
1735580524136,392,-444,964,1131.413275509882,10937,-4482,-14452,18669.938323411785
1735580524166,392,-444,964,1131.413275509882,10900,-4639,-15927,19849.424424904617
1735580524196,327,-289,963,1057.2695966497854,10936,-4795,-17436,21132.965172923556
1735580524226,327,-289,963,1057.2695966497854,10983,-4913,16912,20755.230714207926
1735580524256,327,-289,963,1057.2695966497854,11055,-5026,15245,19490.606096271094
1735580524286,327,-289,963,1057.2695966497854,11147,-5128,13562,18288.789927165766
1735580524317,528,-213,880,1048.1187909774349,11006,-5318,12125,17217.107335438202
1735580524346,528,-213,880,1048.1187909774349,10838,-5570,10772,16264.166993731957
1735580524376,528,-213,880,1048.1187909774349,10743,-5850,9400,15427.071951605074
1735580524406,355,-503,955,1136.2477722750439,11013,-6136,7786,14817.505221865116
1735580524436,355,-503,955,1136.2477722750439,11746,-6311,5809,14544.473795913003
1735580524466,355,-503,955,1136.2477722750439,12452,-6379,3760,14487.289083883154
1735580524496,178,-417,803,922.1615910457342,13014,-6324,1719,14570.934527339006
1735580524526,178,-417,803,922.1615910457342,13408,-6028,-427,14706.92275766756
1735580524556,178,-417,803,922.1615910457342,13541,-5658,-2398,14870.173132818596
1735580524586,178,-417,803,922.1615910457342,13480,-5248,-4238,15073.571176068397
1735580524616,290,-369,843,964.8367737602044,13249,-4982,-5873,15324.766034103099
1735580524677,290,-369,843,964.8367737602044,12962,-4768,-7456,15695.196844894937
1735580524677,290,-369,843,964.8367737602044,12677,-4588,-9032,16227.54131099348
1735580524707,416,-347,1067,1196.6428038474974,12392,-4469,-10606,16912.151282435952
1735580524736,416,-347,1067,1196.6428038474974,12086,-4448,-12120,17684.753320303906
1735580524766,416,-347,1067,1196.6428038474974,11829,-4477,-13640,18601.56901984346
1735580524796,162,-332,853,929.5574215722232,11621,-4525,-15173,19640.34610183843
1735580524826,162,-332,853,929.5574215722232,11605,-4431,-16998,21053.308291097626
1735580524856,162,-332,853,929.5574215722232,11563,-4340,17186,21163.581100560463
1735580524886,162,-332,853,929.5574215722232,11503,-4255,15379,19670.73143022394
1735580524917,355,-315,896,1013.9358954095668,11331,-4289,13741,18319.447671804955
1735580524947,355,-315,896,1013.9358954095668,11158,-4388,12166,17081.190356646694
1735580524976,355,-315,896,1013.9358954095668,11037,-4521,10584,15946.029788006794
1735580525007,138,-273,912,961.9339894192325,11061,-4630,8844,14899.62942492195
1735580525036,138,-273,912,961.9339894192325,11210,-4659,6897,13962.05536445118
1735580525066,138,-273,912,961.9339894192325,11338,-4657,4951,13219.315186498883
1735580525096,210,-357,842,938.3565420457194,11428,-4652,3044,12708.509904784274
1735580525126,210,-357,842,938.3565420457194,11505,-4705,1286,12496.233272470548
1735580525156,210,-357,842,938.3565420457194,11584,-4744,-477,12526.855990231546
1735580525186,109,-337,954,1017.6276332726032,11662,-4756,-2250,12793.915741476492
1735580525216,109,-337,954,1017.6276332726032,11779,-4676,-4136,13331.028204906026
1735580525246,109,-337,954,1017.6276332726032,11846,-4572,-6004,14045.601304323001
1735580525277,109,-337,954,1017.6276332726032,11866,-4452,-7852,14908.929002446823
1735580525306,291,-256,989,1062.2325545755034,11731,-4436,-9540,15757.730071301514
1735580525336,291,-256,989,1062.2325545755034,11563,-4482,-11170,16690.12261788391
1735580525366,291,-256,989,1062.2325545755034,11437,-4561,-12806,17765.171713214597
1735580525396,137,-267,899,947.7652662975153,11352,-4650,-14467,18967.986002736296
1735580525426,137,-267,899,947.7652662975153,11418,-4654,-16338,20468.529111785243
1735580525456,137,-267,899,947.7652662975153,11472,-4645,17791,21672.62074600116
1735580525486,187,-236,945,991.8114740211469,11517,-4626,15936,20198.94207625736
1735580525516,187,-236,945,991.8114740211469,11496,-4628,14160,18817.06672146326
1735580525546,187,-236,945,991.8114740211469,11480,-4634,12384,17510.79130136614
1735580525576,187,-236,945,991.8114740211469,11468,-4643,10606,16296.002853460723
1735580525606,250,-232,940,999.9619992779726,11425,-4587,8830,15150.580648938838
1735580525636,250,-232,940,999.9619992779726,11360,-4549,7081,14138.018319410963
1735580525666,250,-232,940,999.9619992779726,11297,-4522,5335,13286.569083100423
1735580525696,202,-288,908,973.7617778491822,11246,-4478,3605,12630.163300607004
1735580525726,202,-288,908,973.7617778491822,11230,-4412,1863,12208.5794832978
1735580525756,202,-288,908,973.7617778491822,11199,-4347,126,12013.737386841782
1735580525786,142,-197,958,988.3000556511165,11172,-4280,-1617,12072.558676602073
1735580525816,142,-197,958,988.3000556511165,11119,-4185,-3440,12368.507832394334
1735580525846,142,-197,958,988.3000556511165,11049,-4100,-5258,12904.920185727613
1735580525876,142,-197,958,988.3000556511165,10970,-4030,-7070,13658.942125948115
1735580525906,198,-231,1043,1086.4685913545775,10887,-4009,-8744,14527.779802846682
1735580525936,198,-231,1043,1086.4685913545775,10813,-4010,-10400,15529.361512953454
1735580525966,198,-231,1043,1086.4685913545775,10753,-4026,-12057,16649.532545990594
1735580525996,263,-250,963,1029.0957195518793,10660,-4055,-13667,17800.71667096581
1735580526026,263,-250,963,1029.0957195518793,10557,-4114,-15219,18973.486922545366
1735580526056,263,-250,963,1029.0957195518793,10485,-4193,-16776,20222.528279124745
1735580526086,164,-145,907,933.0434073503761,10466,-4281,17646,20958.182960361806
1735580526116,164,-145,907,933.0434073503761,10499,-4339,15917,19555.224647137144
1735580526146,164,-145,907,933.0434073503761,10540,-4390,14183,18207.723333794373
1735580526176,164,-145,907,933.0434073503761,10589,-4433,12446,16931.666368080845
1735580526206,213,-248,994,1046.378994437484,10714,-4454,10695,15780.080386360522
1735580526235,213,-248,994,1046.378994437484,10837,-4451,8964,14751.449623681057
1735580526266,213,-248,994,1046.378994437484,10936,-4425,7236,13839.668240243333
1735580526296,248,-237,977,1035.471873109067,10964,-4382,5555,13048.725799862606
1735580526326,248,-237,977,1035.471873109067,10940,-4345,3917,12405.866112448579
1735580526356,248,-237,977,1035.471873109067,10911,-4312,2281,11951.829399719525
1735580526386,315,-184,964,1030.7167409138167,10893,-4289,648,11724.882685980274
1735580526416,315,-184,964,1030.7167409138167,10811,-4306,-902,11671.887636539344
1735580526446,315,-184,964,1030.7167409138167,10748,-4339,-2456,11848.137448561272
1735580526476,315,-184,964,1030.7167409138167,10703,-4383,-4013,12242.102229600927
1735580526506,212,-143,894,929.8542896604822,10661,-4379,-5651,12836.135049149336
1735580526536,212,-143,894,929.8542896604822,10636,-4371,-7329,13636.142343052892
1735580526566,212,-143,894,929.8542896604822,10615,-4367,-9006,14589.617883961184
1735580526596,245,-176,963,1009.1432009383009,10606,-4363,-10663,15659.584094093943
1735580526626,245,-176,963,1009.1432009383009,10604,-4361,-12292,16809.414058794555
1735580526656,245,-176,963,1009.1432009383009,10603,-4359,-13920,18033.049936158885
1735580526686,343,-223,971,1053.6693029598994,10600,-4355,-15542,19310.095520219467
1735580526716,343,-223,971,1053.6693029598994,10562,-4373,-17036,20515.95157432382
1735580526746,343,-223,971,1053.6693029598994,10535,-4397,17467,20866.62222306236
1735580526776,343,-223,971,1053.6693029598994,10517,-4427,15970,19627.697725408347
1735580526806,284,-110,933,981.4504572315406,10476,-4417,14411,18355.745313116546
1735580526836,284,-110,933,981.4504572315406,10425,-4413,12828,17108.850867314264
1735580526866,284,-110,933,981.4504572315406,10382,-4418,11244,15928.973099355777
1735580526896,136,-197,929,959.3466526756634,10427,-4413,9604,14847.010271431755
1735580526926,136,-197,929,959.3466526756634,10582,-4355,7856,13880.255220996478
1735580526956,136,-197,929,959.3466526756634,10690,-4266,6120,13035.691619549765
1735580526986,238,-166,989,1030.6895749933633,10766,-4143,4365,12333.873276469156
1735580527016,238,-166,989,1030.6895749933633,10729,-4019,2669,11763.81583500864
1735580527046,238,-166,989,1030.6895749933633,10668,-3901,979,11400.985308296822
1735580527076,238,-166,989,1030.6895749933633,10589,-3796,-707,11271.041921668111
1735580527106,308,-127,957,1013.3321271922647,10344,-3734,-2276,11230.372567283777
1735580527136,308,-127,957,1013.3321271922647,10108,-3729,-3826,11433.0827426377
1735580527166,308,-127,957,1013.3321271922647,9913,-3769,-5379,11891.449491125966
1735580527196,305,-113,1050,1099.2242719299825,9773,-3844,-6888,12559.156380903934
1735580527226,305,-113,1050,1099.2242719299825,9672,-3942,-8377,13388.841510750659
1735580527256,305,-113,1050,1099.2242719299825,9607,-4058,-9869,14358.237148062432
1735580527286,242,-142,907,949.4087633890895,9567,-4170,-11377,15438.669567031999
1735580527316,242,-142,907,949.4087633890895,9605,-4248,-12993,16706.872178837068
1735580527346,242,-142,907,949.4087633890895,9655,-4317,-14614,18039.526324158294
1735580527376,242,-142,907,949.4087633890895,9713,-4375,-16238,19420.495307792746
1735580527406,376,-87,1031,1100.8660227293783,9712,-4471,-17726,20700.817882392956
1735580527436,376,-87,1031,1100.8660227293783,9682,-4581,16837,19955.23124396207
1735580527466,376,-87,1031,1100.8660227293783,9679,-4694,15395,18780.91323658144
1735580527496,156,-130,916,938.23877557901,9753,-4769,13861,17606.58090033383
1735580527526,156,-130,916,938.23877557901,9963,-4778,12137,16413.330618737928
1735580527556,156,-130,916,938.23877557901,10137,-4748,10419,15292.410993692263
1735580527586,345,-62,868,936.1052291275805,10276,-4684,8712,14263.063345579027
1735580527616,345,-62,868,936.1052291275805,10178,-4650,7252,13334.379925590842
1735580527646,345,-62,868,936.1052291275805,10090,-4631,5791,12521.579053777523
1735580527676,345,-62,868,936.1052291275805,10014,-4627,4329,11850.298139709397
1735580527706,325,-42,971,1024.8072989591751,9962,-4582,2812,11320.049116501217
1735580527736,325,-42,971,1024.8072989591751,9909,-4545,1286,10977.208297194693
1735580527766,325,-42,971,1024.8072989591751,9858,-4517,-237,10846.180064889206
1735580527796,395,-74,945,1026.901163695903,9789,-4493,-1721,10907.493341735304
1735580527826,395,-74,945,1026.901163695903,9701,-4486,-3141,11139.994524235639
1735580527856,395,-74,945,1026.901163695903,9628,-4492,-4562,11562.365328945458
1735580527886,275,-62,966,1006.2927009573308,9578,-4495,-5989,12157.764185901946
1735580527924,275,-62,966,1006.2927009573308,9640,-4455,-7577,13045.59519531401
1735580527945,275,-62,966,1006.2927009573308,9682,-4404,-9160,14037.162818746529
1735580527976,275,-62,966,1006.2927009573308,9705,-4346,-10739,15112.936908490025
1735580528007,345,-18,959,1019.3282101462707,9620,-4299,-12219,16134.737741903336
1735580528036,345,-18,959,1019.3282101462707,9514,-4275,-13672,17196.37767089337
1735580528066,345,-18,959,1019.3282101462707,9422,-4268,-15126,18324.458627746688
1735580528096,369,-94,1005,1074.719498287809,9381,-4259,-16629,19561.847637684943
1735580528126,369,-94,1005,1074.719498287809,9382,-4244,17860,20615.84487718124
1735580528156,369,-94,1005,1074.719498287809,9379,-4229,16350,19317.675377746673
1735580528186,383,-4,863,944.1790084512576,9379,-4199,14841,18051.385625485927
1735580528216,383,-4,863,944.1790084512576,9295,-4149,13352,16789.494632060847
1735580528246,383,-4,863,944.1790084512576,9216,-4115,11863,15575.578640936586
1735580528276,383,-4,863,944.1790084512576,9144,-4095,10372,14420.82331214137
1735580528306,406,103,898,990.8829396048758,8964,-4106,9042,13377.97802360282
1735580528336,406,103,898,990.8829396048758,8782,-4151,7720,12407.768735755837
1735580528367,406,103,898,990.8829396048758,8637,-4223,6397,11547.86157693276
1735580528396,345,-45,953,1014.5240263295887,8591,-4311,5032,10849.47123135501
1735580528426,345,-45,953,1014.5240263295887,8680,-4387,3605,10372.280077205784
1735580528456,345,-45,953,1014.5240263295887,8769,-4447,2176,10070.061866741435
1735580528486,390,-48,907,988.4599131983047,8864,-4490,730,9963.106744384504
1735580528516,390,-48,907,988.4599131983047,8929,-4519,-686,10030.90215284747
1735580528546,390,-48,907,988.4599131983047,8990,-4537,-2103,10287.22887856589
1735580528576,390,-48,907,988.4599131983047,9043,-4545,-3520,10715.562234432686
1735580528606,341,61,936,998.0470930772756,9090,-4523,-5070,11348.591498507645
1735580528637,341,61,936,998.0470930772756,9110,-4497,-6639,12136.368072862655
1735580528667,341,61,936,998.0470930772756,9120,-4468,-8205,13056.011986820478
1735580528696,249,-62,997,1029.4921077890788,9204,-4422,-9826,14171.02593322022
1735580528726,249,-62,997,1029.4921077890788,9380,-4332,-11522,15476.017187894307
1735580528756,249,-62,997,1029.4921077890788,9499,-4212,-13204,16802.30820452952
1735580528786,196,-21,988,1007.472580272039,9538,-4084,-14825,18095.113290609705
1735580528816,196,-21,988,1007.472580272039,9496,-3976,-16403,19365.975343369617
1735580528845,196,-21,988,1007.472580272039,9439,-3878,-17980,20673.993445873006
1735580528876,196,-21,988,1007.472580272039,9371,-3793,16443,19302.195186040368
1735580528906,416,58,838,937.3707910960316,9126,-3713,14984,17932.944571374774
1735580528966,416,58,838,937.3707910960316,8846,-3693,13601,16639.626378017027
1735580528966,416,58,838,937.3707910960316,8611,-3721,12214,15400.550574573625
1735580528996,126,-54,853,863.9450213989314,8618,-3763,10645,14203.736057812395
1735580529026,126,-54,853,863.9450213989314,8856,-3757,8824,13053.994063121065
1735580529056,126,-54,853,863.9450213989314,9046,-3699,7010,12027.169949742956
1735580529086,252,-252,1054,1112.6203305710353,9177,-3621,5208,11155.816151228022
1735580529116,252,-252,1054,1112.6203305710353,9343,-3551,3556,10608.788149454205
1735580529146,252,-252,1054,1112.6203305710353,9461,-3448,1911,10249.446131377052
1735580529176,280,47,1176,1209.7871713652778,9501,-3310,299,10065.510518597654
1735580529206,280,47,1176,1209.7871713652778,9190,-3187,-1233,9804.762006290617
1735580529267,280,47,1176,1209.7871713652778,8913,-3131,-2777,9846.647094315913
1735580529268,280,47,1176,1209.7871713652778,8675,-3132,-4327,10187.638489856225
1735580529297,-4,-36,697,697.9405418801805,8646,-3131,-6222,11102.691610596054
1735580529326,-4,-36,697,697.9405418801805,8687,-3123,-8213,12355.989114595399
1735580529356,-4,-36,697,697.9405418801805,8717,-3104,-10202,13773.224350165796
1735580529386,275,-53,1058,1094.4395826175148,8732,-3096,-12114,15250.640511139196
1735580529417,275,-53,1058,1094.4395826175148,8612,-3127,-13588,16388.362242762392
1735580529446,275,-53,1058,1094.4395826175148,8519,-3179,-15063,17594.69724093029
1735580529476,287,-16,1029,1068.3941220354968,8497,-3250,-16600,18929.382161074354
1735580529506,287,-16,1029,1068.3941220354968,8542,-3323,17749,19975.862784871144
1735580529567,287,-16,1029,1068.3941220354968,8595,-3383,16099,18560.617311932274
1735580529567,287,-16,1029,1068.3941220354968,8653,-3429,14447,17185.699258395045
1735580529597,279,-15,1064,1100.0736338991132,8629,-3433,12790,15805.98715677069
1735580529627,279,-15,1064,1100.0736338991132,8612,-3441,11128,14485.834770561205
1735580529656,279,-15,1064,1100.0736338991132,8600,-3453,9467,13247.916741888137
1735580529686,269,32,978,1014.82461538928,8559,-3458,7844,12113.73522081443
1735580529716,269,32,978,1014.82461538928,8497,-3473,6234,11096.102649128658
1735580529746,269,32,978,1014.82461538928,8449,-3499,4623,10246.986435045184
1735580529776,152,91,968,984.0777408314854,8407,-3543,3027,9612.139564113704
1735580529806,152,91,968,984.0777408314854,8395,-3616,1335,9237.62447818702
1735580529836,152,91,968,984.0777408314854,8402,-3688,-358,9182.761676097229
1735580529897,152,91,968,984.0777408314854,8424,-3755,-2055,9449.170651438146
1735580529897,214,16,1020,1042.3300820757308,8433,-3777,-3661,9939.021028250218
1735580529927,214,16,1020,1042.3300820757308,8451,-3794,-5244,10644.875433747451
1735580529956,214,16,1020,1042.3300820757308,8469,-3806,-6827,11524.648628049361
1735580529986,114,-26,1060,1066.429556979738,8560,-3815,-8519,12664.958981378502
1735580530016,114,-26,1060,1066.429556979738,8717,-3794,-10317,14029.291286447795
1735580530046,114,-26,1060,1066.429556979738,8838,-3740,-12110,15451.535328244892
1735580530076,214,84,912,940.5296380231725,8907,-3646,-13900,16906.74318134631
1735580530106,214,84,912,940.5296380231725,8762,-3535,-15586,18226.142351029743
1735580530136,214,84,912,940.5296380231725,8620,-3459,-17276,19614.516486520894
1735580530166,214,84,912,940.5296380231725,8487,-3416,17031,19332.6973286192
1735580530196,205,73,1074,1095.8238909605868,8412,-3428,15376,17858.731869872507
1735580530226,205,73,1074,1095.8238909605868,8358,-3454,13716,16429.088106160976
1735580530256,205,73,1074,1095.8238909605868,8319,-3490,12056,15057.655760442925
1735580530287,311,-38,1109,1152.4087816395709,8320,-3510,10365,13746.84418330258
1735580530316,311,-38,1109,1152.4087816395709,8348,-3509,8717,12569.338646086357
1735580530346,311,-38,1109,1152.4087816395709,8370,-3502,7068,11501.19680728923
1735580530376,238,222,936,990.971240753232,8374,-3473,5451,10578.232650116937
1735580530406,238,222,936,990.971240753232,8181,-3446,3815,9662.189296427596
1735580530436,238,222,936,990.971240753232,8017,-3461,2177,8999.452149992243
1735580530466,238,222,936,990.971240753232,7886,-3509,536,8648.084932515407
1735580530496,183,83,1050,1069.0547226405204,7851,-3580,-1070,8694.797352440137
1735580530526,183,83,1050,1069.0547226405204,7884,-3646,-2698,9095.60201416047
1735580530556,183,83,1050,1069.0547226405204,7925,-3702,-4327,9758.758015239438
1735580530586,204,3,892,915.034972009267,8006,-3760,-5944,10656.67734333737
1735580530616,204,3,892,915.034972009267,8127,-3798,-7543,11720.485570145975
1735580530647,204,3,892,915.034972009267,8235,-3811,-9142,12880.803934537627
1735580530677,264,133,926,972.0396082464953,8334,-3790,-10777,14140.841028736586
1735580530707,264,133,926,972.0396082464953,8282,-3739,-12418,15387.60439444685
1735580530737,264,133,926,972.0396082464953,8227,-3702,-14059,16704.604574787158
1735580530767,264,133,926,972.0396082464953,8174,-3677,-15701,18079.159438425228
1735580530796,212,100,1029,1055.3601281079364,8304,-3678,-17543,19754.517179622486
1735580530826,212,100,1029,1055.3601281079364,8427,-3646,16598,18968.42768918921
1735580530856,212,100,1029,1055.3601281079364,8517,-3589,14745,17402.161790995968
1735580530886,120,10,1000,1007.2239075796404,8622,-3511,12859,15875.134204157142
1735580530916,120,10,1000,1007.2239075796404,8765,-3395,10914,14403.702510118708
1735580530945,120,10,1000,1007.2239075796404,8845,-3252,8979,13016.603627674924
1735580530977,219,16,1070,1092.2989517526785,8848,-3104,7073,11745.179819823961
1735580531007,219,16,1070,1092.2989517526785,8722,-2986,5306,10636.875293054816
1735580531037,219,16,1070,1092.2989517526785,8592,-2904,3535,9734.059019751216
1735580531066,219,16,1070,1092.2989517526785,8468,-2858,1760,9108.940004193682
1735580531096,341,89,1041,1099.0373060092181,8267,-2841,151,8742.846847566301
1735580531126,341,89,1041,1099.0373060092181,8063,-2874,-1419,8676.716314366859
1735580531156,341,89,1041,1099.0373060092181,7902,-2947,-2990,8947.989327217596
1735580531186,230,-4,995,1021.2448286282776,7829,-3047,-4648,9601.112123082408
1735580531216,230,-4,995,1021.2448286282776,7876,-3148,-6407,10629.719140221909
1735580531246,230,-4,995,1021.2448286282776,7940,-3231,-8169,11841.26353055281
1735580531276,47,86,1022,1026.6883655715594,8026,-3293,-9944,13196.350290894827
1735580531307,47,86,1022,1026.6883655715594,8166,-3347,-11933,14841.915442421843
1735580531336,47,86,1022,1026.6883655715594,8294,-3361,-13923,16551.032777443226
1735580531366,47,86,1022,1026.6883655715594,8400,-3343,-15910,18299.28274550672
1735580531396,155,78,1065,1079.0430945981723,8473,-3281,-17780,19967.10019006265
1735580531426,155,78,1065,1079.0430945981723,8500,-3206,16389,18738.40326708762
1735580531456,155,78,1065,1079.0430945981723,8503,-3131,14561,17150.12801701492
1735580531486,209,71,971,995.7725643940989,8434,-3064,12800,15632.032881234609
1735580531516,209,71,971,995.7725643940989,8329,-3022,11097,14200.286405562389
1735580531546,209,71,971,995.7725643940989,8235,-3006,9391,12846.872849063308
1735580531576,235,175,908,954.1037679414121,8157,-3006,7650,11579.94753874127
1735580531606,235,175,908,954.1037679414121,8003,-3028,5864,10373.200518644186
1735580531636,235,175,908,954.1037679414121,7884,-3084,4076,9395.86547370704
1735580531666,235,175,908,954.1037679414121,7800,-3164,2287,8722.457509211496
1735580531696,432,145,1058,1151.9605027951263,7798,-3282,676,8487.479248870068
1735580531726,432,145,1058,1151.9605027951263,7793,-3387,-865,8541.126565038127
1735580531756,432,145,1058,1151.9605027951263,7811,-3487,-2406,8885.92853898792
1735580531786,301,21,1092,1132.9192380748066,7854,-3558,-4039,9521.460024597069
1735580531817,301,21,1092,1132.9192380748066,7998,-3600,-5792,10510.721573707488
1735580531847,301,21,1092,1132.9192380748066,8125,-3607,-7544,11659.245687436216
1735580531877,308,100,959,1012.1981031398942,8197,-3571,-9257,12869.922260837475
1735580531907,308,100,959,1012.1981031398942,8117,-3510,-10890,14028.467093734796
1735580531936,308,100,959,1012.1981031398942,8039,-3469,-12524,15281.035894205603
1735580531966,308,100,959,1012.1981031398942,7965,-3447,-14159,16607.236826155036
1735580531996,389,108,998,1076.5635141504656,7892,-3447,-15680,17889.32287706832
1735580532027,389,108,998,1076.5635141504656,7815,-3461,-17172,19181.51010739248
1735580532057,389,108,998,1076.5635141504656,7753,-3488,17334,19306.545755261348
1735580532086,375,35,942,1014.5018481994008,7750,-3529,15785,17935.51131136216
1735580532116,375,35,942,1014.5018481994008,7807,-3563,14201,16592.547091992838
1735580532146,375,35,942,1014.5018481994008,7862,-3583,12616,15290.925053769637
1735580532176,291,28,963,1006.3965421244252,7915,-3592,11028,14041.597950375875
1735580532206,291,28,963,1006.3965421244252,8025,-3597,9342,12830.120732089781
1735580532236,291,28,963,1006.3965421244252,8116,-3579,7657,11717.864395870094
1735580532266,291,28,963,1006.3965421244252,8186,-3543,5975,10736.110562023847
1735580532296,223,72,986,1013.4638622072323,8187,-3496,4284,9879.35428051854
1735580532326,223,72,986,1013.4638622072323,8180,-3454,2569,9243.499175095976
1735580532356,223,72,986,1013.4638622072323,8164,-3416,855,8891.061635147964
1735580532386,223,73,977,1004.7820659227552,8135,-3402,-792,8853.196767270001
1735580532416,223,73,977,1004.7820659227552,8106,-3404,-2407,9115.267467277085
1735580532446,223,73,977,1004.7820659227552,8083,-3412,-4023,9652.003004558173
1735580532476,202,116,948,976.1987502552951,8090,-3419,-5675,10456.73400254592
1735580532506,202,116,948,976.1987502552951,8120,-3415,-7420,11517.50949641458
1735580532536,202,116,948,976.1987502552951,8143,-3405,-9165,12723.981255880566
1735580532597,202,116,948,976.1987502552951,8160,-3391,-10908,14038.124696696494
1735580532598,153,101,947,964.5822930159977,8170,-3373,-12677,15454.201952867059
1735580532627,153,101,947,964.5822930159977,8185,-3352,-14462,16952.273387366073
1735580532656,153,101,947,964.5822930159977,8193,-3330,-16246,18497.206951321055
1735580532686,211,57,1012,1035.3327967373582,8153,-3293,17996,20029.260445657997
1735580532716,211,57,1012,1035.3327967373582,8095,-3260,16281,18472.346521219224
1735580532746,211,57,1012,1035.3327967373582,8040,-3241,14565,16949.48099500395
1735580532776,187,92,1115,1134.3094815789914,8026,-3237,12825,15471.763635733323
1735580532806,187,92,1115,1134.3094815789914,8063,-3239,11017,14031.299975412114
1735580532836,187,92,1115,1134.3094815789914,8092,-3231,9209,12677.756347240627
1735580532867,187,92,1115,1134.3094815789914,8114,-3218,7402,11444.74219893135
1735580532897,71,2,1101,1103.2887201453661,8215,-3205,5514,10400.117595489004
1735580532926,71,2,1101,1103.2887201453661,8333,-3160,3590,9607.944056872937
1735580532956,71,2,1101,1103.2887201453661,8415,-3090,1672,9118.986182685003
1735580532987,-26,77,989,992.3336132571545,8464,-2990,-293,8981.383245358145
1735580533016,-26,77,989,992.3336132571545,8470,-2885,-2328,9245.740046096906
1735580533046,-26,77,989,992.3336132571545,8443,-2786,-4361,9902.745376914425
1735580533076,176,-9,1032,1046.938871185897,8373,-2706,-6376,10866.59748955486
1735580533107,176,-9,1032,1046.938871185897,8241,-2645,-8164,11897.941082389003
1735580533136,176,-9,1032,1046.938871185897,8121,-2621,-9956,13112.673945462077
1735580533166,162,33,981,994.8336544367606,7998,-2620,-11737,14442.6304044658
1735580533196,162,33,981,994.8336544367606,7833,-2650,-13505,15835.51116952023
1735580533226,162,33,981,994.8336544367606,7706,-2717,-15274,17322.228522912403
1735580533256,162,33,981,994.8336544367606,7619,-2808,-17043,18878.502959715846
1735580533286,234,109,1058,1089.0367303263927,7537,-2929,17307,19102.818090533136
1735580533316,234,109,1058,1089.0367303263927,7466,-3060,15684,17637.817665459635
1735580533346,234,109,1058,1089.0367303263927,7436,-3197,14061,16224.260414576684
1735580533376,142,-84,1034,1047.0797486342672,7434,-3322,12428,14857.833758660783
1735580533406,142,-84,1034,1047.0797486342672,7654,-3410,10678,13573.190487133083
1735580533436,142,-84,1034,1047.0797486342672,7856,-3442,8927,12379.637676442715
1735580533466,216,-4,950,974.2545868508909,8026,-3426,7176,11298.19135968231
1735580533496,216,-4,950,974.2545868508909,8051,-3377,5499,10318.029414573308
1735580533527,216,-4,950,974.2545868508909,8059,-3326,3824,9520.122530724066
1735580533557,216,-4,950,974.2545868508909,8055,-3277,2150,8957.915717397658
1735580533587,207,99,982,1008.4512878666972,7997,-3220,449,8632.613161725712
1735580533617,207,99,982,1008.4512878666972,7914,-3186,-1255,8623.051490046897
1735580533646,207,99,982,1008.4512878666972,7838,-3173,-2962,8959.666121011429
1735580533677,245,118,972,1009.3230404583064,7760,-3148,-4678,9592.246243711637
1735580533707,245,118,972,1009.3230404583064,7666,-3129,-6380,10452.87505904476
1735580533736,245,118,972,1009.3230404583064,7585,-3131,-8084,11518.960109315423
1735580533767,148,135,1026,1045.3731391230597,7529,-3136,-9769,12726.10301702764
1735580533796,148,135,1026,1045.3731391230597,7534,-3135,-11509,14108.382685481707
1735580533826,148,135,1026,1045.3731391230597,7538,-3133,-13250,15562.764311008505
1735580533856,148,135,1026,1045.3731391230597,7541,-3130,-14991,17070.25664716263
1735580533886,166,112,1053,1071.871727400252,7577,-3101,-16803,18691.386759681583
1735580533916,166,112,1053,1071.871727400252,7601,-3064,17392,19226.153047346732
1735580533945,166,112,1053,1071.871727400252,7612,-3025,15588,17609.05769767366
1735580533977,202,221,1018,1061.1168644404818,7554,-2948,13824,16026.746269907688
1735580534006,202,221,1018,1061.1168644404818,7411,-2883,12093,14473.260137232384
1735580534036,202,221,1018,1061.1168644404818,7279,-2856,10358,12978.009901367775
1735580534066,147,147,990,1011.5918149135055,7166,-2842,8617,11562.05902942897
1735580534096,147,147,990,1011.5918149135055,7149,-2819,6814,10270.616242465687
1735580534126,147,147,990,1011.5918149135055,7130,-2802,5010,9153.589678372087
1735580534156,147,147,990,1011.5918149135055,7110,-2791,3206,8283.7320695445
1735580534186,213,129,980,1011.1429176926474,7106,-2737,1406,7743.593545634998
1735580534216,213,129,980,1011.1429176926474,7084,-2686,-372,7585.2512153520665
1735580534246,213,129,980,1011.1429176926474,7054,-2644,-2152,7834.587162065402
1735580534276,171,222,963,1002.9426703456185,7030,-2621,-3930,8469.677738851697
1735580534307,171,222,963,1002.9426703456185,6984,-2622,-5727,9404.768418201482
1735580534336,171,222,963,1002.9426703456185,6947,-2634,-7525,10574.705196836458
1735580534367,85,145,907,922.4418680870898,6923,-2665,-9365,11947.10755789869
1735580534396,85,145,907,922.4418680870898,7022,-2724,-11370,13638.385534952442
1735580534426,85,145,907,922.4418680870898,7118,-2751,-13374,15397.980419522555
1735580534457,85,145,907,922.4418680870898,7201,-2749,-15377,17200.684027096133
1735580534486,166,178,1005,1034.0527065870483,7192,-2713,-17199,18838.546493824837
1735580534516,166,178,1005,1034.0527065870483,7156,-2680,17003,18641.15728703559
1735580534546,166,178,1005,1034.0527065870483,7119,-2660,15205,16998.464224746895
1735580534576,92,170,1069,1086.3355835099944,7090,-2665,13350,15349.033357185723
1735580534607,92,170,1069,1086.3355835099944,7092,-2689,11432,13719.24957860305
1735580534667,92,170,1069,1086.3355835099944,7100,-2711,9514,12176.851686704573
1735580534667,189,162,985,1015.9675191658442,7097,-2727,7627,10769.172066598248
1735580534697,189,162,985,1015.9675191658442,7035,-2722,5894,9572.865036132078
1735580534726,189,162,985,1015.9675191658442,6983,-2732,4160,8575.063439998563
1735580534756,189,162,985,1015.9675191658442,6944,-2754,2426,7854.242675140615
1735580534786,117,214,1028,1056.536322139471,6957,-2847,615,7542.113960952857
1735580534816,117,214,1028,1056.536322139471,6990,-2935,-1217,7678.242897955235
1735580534846,117,214,1028,1056.536322139471,7039,-3006,-3053,8240.410548024898
1735580534876,80,125,1031,1041.6266125632544,7142,-3067,-4919,9198.435410438016
1735580534907,80,125,1031,1041.6266125632544,7306,-3091,-6819,10460.91191053629
1735580534937,80,125,1031,1041.6266125632544,7445,-3073,-8716,11867.603380632503
1735580534966,67,136,1042,1052.9715095860856,7548,-3042,-10601,13364.403054382938
1735580534998,67,136,1042,1052.9715095860856,7619,-3029,-12476,14928.984493260083
1735580535025,67,136,1042,1052.9715095860856,7673,-3000,-14350,16546.825345062418
1735580535057,67,136,1042,1052.9715095860856,7709,-2960,-16223,18203.736154976537
1735580535086,6,38,1019,1019.7259435750373,7835,-2929,17798,19665.580845731456
1735580535116,6,38,1019,1019.7259435750373,7959,-2860,15806,17926.374898456186
1735580535146,6,38,1019,1019.7259435750373,8037,-2764,13818,16222.521043290404
1735580535177,145,82,997,1010.8204588352968,7993,-2713,12033,14698.350485683759
1735580535207,145,82,997,1010.8204588352968,7867,-2708,10412,13327.89169373761
1735580535236,145,82,997,1010.8204588352968,7762,-2731,8789,12039.664696327718
1735580535266,40,12,1006,1006.8664260963318,7709,-2797,7075,10830.859384185542
1735580535296,40,12,1006,1006.8664260963318,7845,-2907,5074,9784.689570957271
1735580535326,40,12,1006,1006.8664260963318,7985,-2971,3071,9056.384874772053
1735580535356,40,12,1006,1006.8664260963318,8116,-2992,1068,8715.626426138284
1735580535386,181,-38,995,1012.0424892266135,8129,-2986,-717,8689.702296396581
1735580535417,181,-38,995,1012.0424892266135,8129,-2973,-2457,8997.567393468082
1735580535447,181,-38,995,1012.0424892266135,8125,-2962,-4196,9612.257019035644
1735580535476,19,90,930,934.5378537009617,8127,-2991,-5980,10524.001615355253
1735580535507,19,90,930,934.5378537009617,8131,-3050,-7865,11716.393899148321
1735580535536,19,90,930,934.5378537009617,8150,-3103,-9752,13082.530833137753
1735580535566,-21,-35,1026,1026.8115698607996,8168,-3152,-11623,14551.476110690626
1735580535596,-21,-35,1026,1026.8115698607996,8294,-3187,-13503,16164.108821707432
1735580535626,-21,-35,1026,1026.8115698607996,8406,-3189,-15383,17817.610558096727
1735580535657,-21,-35,1026,1026.8115698607996,8496,-3164,-17260,19496.166597564763
1735580535686,141,-7,954,964.3889256933636,8458,-3135,16952,19202.507466474268
1735580535716,141,-7,954,964.3889256933636,8387,-3121,15219,17655.038119471734
1735580535746,141,-7,954,964.3889256933636,8327,-3123,13485,16153.553262363052
1735580535776,-38,15,1067,1067.7818129187256,8303,-3137,11698,14684.133682311667
1735580535807,-38,15,1067,1067.7818129187256,8333,-3155,9795,13241.410008001414
1735580535836,-38,15,1067,1067.7818129187256,8361,-3164,7892,11924.801088487808
1735580535896,162,29,952,966.1205928868301,8377,-3169,6013,10787.625271578541
1735580535897,162,29,952,966.1205928868301,8262,-3181,4382,9878.32622461923
1735580535927,162,29,952,966.1205928868301,8170,-3217,2749,9200.814637845933
1735580535957,162,29,952,966.1205928868301,8103,-3269,1116,8808.54278527385
1735580535986,16,27,958,958.5139539933677,8139,-3346,-632,8822.61078139572
1735580536016,16,27,958,958.5139539933677,8214,-3410,-2433,9220.48724309079
1735580536046,16,27,958,958.5139539933677,8291,-3452,-4235,9929.361006630788
1735580536076,-34,-13,992,992.6676180877464,8402,-3461,-6115,10952.86948703398
1735580536106,-34,-13,992,992.6676180877464,8539,-3431,-8057,12231.1704672938
1735580536136,-34,-13,992,992.6676180877464,8640,-3369,-9994,13633.774128978373
1735580536166,111,0,939,945.5379421260683,8689,-3297,-11900,15098.971157002718
1735580536197,111,0,939,945.5379421260683,8602,-3247,-13608,16423.004505875288
1735580536226,111,0,939,945.5379421260683,8520,-3220,-15316,17819.61436170828
1735580536256,111,0,939,945.5379421260683,8446,-3211,-17027,19275.999740610085
1735580536286,-74,-29,1020,1023.0918824817251,8509,-3246,17102,19375.70646453956
1735580536316,-74,-29,1020,1023.0918824817251,8607,-3257,15170,17743.094374995584
1735580536346,-74,-29,1020,1023.0918824817251,8688,-3243,13240,16164.652579007072
1735580536376,65,-45,1037,1040.009134575269,8646,-3236,11473,14725.988625555841
1735580536406,65,-45,1037,1040.009134575269,8536,-3259,9858,13441.151029580762
1735580536436,65,-45,1037,1040.009134575269,8451,-3303,8242,12258.049355423562
1735580536466,39,26,1055,1056.0407189119178,8420,-3368,6570,11198.42506783878
