Timestamp,Acc_X,Acc_Y,Acc_Z,Acc_Betrag,Ori_X,Ori_Y,Ori_Z,Ori_Betrag
1735580792123,77,-139,946,959.2528342413173,9999,-4670,325,11040.585401146081
1735580792123,77,-139,946,959.2528342413173,10170,-4647,-1488,11279.966888249273
1735580792130,95,-109,1006,1016.337542354901,10313,-4606,-3298,11766.478190180782
1735580792160,95,-109,1006,1016.337542354901,10405,-4549,-5090,12444.49782032204
1735580792190,95,-109,1006,1016.337542354901,10463,-4476,-6872,13294.108808039748
1735580792220,208,-124,927,958.1069877628489,10485,-4389,-8642,14278.750295456532
1735580792250,208,-124,927,958.1069877628489,10406,-4332,-10272,15250.083409607962
1735580792280,208,-124,927,958.1069877628489,10329,-4289,-11901,16331.489919783804
1735580792310,208,-124,927,958.1069877628489,10255,-4260,-13529,17502.755954420434
1735580792340,171,-62,863,881.9603165675879,10189,-4221,-15221,18796.57955586601
1735580792371,171,-62,863,881.9603165675879,10118,-4195,-16927,20161.72805093849
1735580792401,171,-62,863,881.9603165675879,10054,-4183,17366,20497.764780580346
1735580792430,113,-116,989,1002.1706441519827,10039,-4178,15639,19047.717081057246
1735580792460,113,-116,989,1002.1706441519827,10083,-4159,13871,17645.64566684937
1735580792490,113,-116,989,1002.1706441519827,10112,-4130,12106,16305.35740178669
1735580792520,29,-146,1004,1014.9743839132099,10118,-4097,10344,15038.53945700845
1735580792550,29,-146,1004,1014.9743839132099,10173,-4038,8494,13854.364258240073
1735580792580,29,-146,1004,1014.9743839132099,10199,-3968,6651,12806.265107360538
1735580792610,29,-146,1004,1014.9743839132099,10201,-3894,4814,11933.073074443146
1735580792640,123,-88,987,998.5199046588906,10115,-3862,3082,11257.308426084806
1735580792670,123,-88,987,998.5199046588906,10007,-3861,1381,10814.551816880808
1735580792701,123,-88,987,998.5199046588906,9918,-3882,-322,10655.530582753729
1735580792731,143,-116,940,957.8648130085999,9870,-3915,-2056,10815.325284058728
1735580792761,143,-116,940,957.8648130085999,9852,-3953,-3796,11273.762858957074
1735580792791,143,-116,940,957.8648130085999,9846,-3994,-5539,11982.331701300878
1735580792821,167,-65,979,995.2662960233306,9835,-4039,-7264,12876.585028647929
1735580792851,167,-65,979,995.2662960233306,9748,-4107,-8927,13841.325153322568
1735580792881,167,-65,979,995.2662960233306,9693,-4192,-10593,14957.899652023341
1735580792911,167,-65,979,995.2662960233306,9668,-4285,-12266,16195.252545113337
1735580792941,38,-69,1021,1024.034179117084,9742,-4362,-14041,17637.55337341322
1735580792971,38,-69,1021,1024.034179117084,9854,-4411,-15872,19195.79696183516
1735580793001,38,-69,1021,1024.034179117084,9959,-4435,-17705,20792.256515347246
1735580793031,150,-147,955,977.821047022409,10033,-4453,16520,19834.331297021334
1735580793062,150,-147,955,977.821047022409,10083,-4477,14840,18491.51205283116
1735580793091,150,-147,955,977.821047022409,10130,-4490,13159,17202.798638593664
1735580793121,179,-43,960,977.4916879441994,10187,-4492,11463,15979.781037298351
1735580793151,179,-43,960,977.4916879441994,10155,-4493,9771,14791.332428148587
1735580793181,179,-43,960,977.4916879441994,10130,-4500,8079,13716.309306806988
1735580793211,179,-43,960,977.4916879441994,10111,-4512,6385,12781.184999834719
1735580793241,248,-113,1064,1098.3483054113572,10104,-4533,4740,12046.01614642783
1735580793271,248,-113,1064,1098.3483054113572,10105,-4560,3121,11517.172656516008
1735580793301,248,-113,1064,1098.3483054113572,10113,-4586,1499,11204.96166883225
1735580793331,120,-138,1022,1038.233114478632,10173,-4603,-185,11167.442097454546
1735580793361,120,-138,1022,1038.233114478632,10305,-4580,-1975,11448.582881736937
1735580793391,120,-138,1022,1038.233114478632,10404,-4531,-3758,11953.900660453892
1735580793421,79,-91,961,968.5261999553755,10461,-4461,-5533,12647.020637288451
1735580793451,79,-91,961,968.5261999553755,10462,-4370,-7346,13509.776460030713
1735580793481,79,-91,961,968.5261999553755,10438,-4279,-9151,14525.92461773088
1735580793511,79,-91,961,968.5261999553755,10393,-4195,-10948,15667.519842017115
1735580793541,123,-85,920,932.0697398800156,10300,-4142,-12668,16844.12027978903
1735580793571,123,-85,920,932.0697398800156,10202,-4114,-14373,18099.41791881717
1735580793601,123,-85,920,932.0697398800156,10115,-4105,-16078,19433.639237157822
1735580793661,134,-15,907,916.9678293157291,10015,-4105,-17782,20817.07890170953
1735580793661,134,-15,907,916.9678293157291,9891,-4129,16517,19689.891086544892
1735580793691,134,-15,907,916.9678293157291,9795,-4178,14814,18244.24032400363
1735580793721,55,-123,973,982.2845819822278,9742,-4251,13096,16866.61735500038
1735580793751,55,-123,973,982.2845819822278,9888,-4313,11263,15595.822581704371
1735580793781,55,-123,973,982.2845819822278,10024,-4343,9425,14428.196352974963
1735580793811,55,-123,973,982.2845819822278,10143,-4344,7588,13391.360237108103
1735580793841,202,-111,1055,1079.8842530567802,10214,-4328,5796,12516.029562125523
1735580793871,202,-111,1055,1079.8842530567802,10234,-4315,4062,11825.980931829714
1735580793901,202,-111,1055,1079.8842530567802,10246,-4299,2329,11352.803970825886
1735580793931,105,-138,1003,1017.8791676815083,10277,-4268,556,11141.888933210563
1735580793961,105,-138,1003,1017.8791676815083,10344,-4206,-1285,11240.10662760812
1735580793991,105,-138,1003,1017.8791676815083,10380,-4131,-3118,11598.77084005025
1735580794021,116,-99,923,935.5137625925125,10376,-4054,-4923,12179.171605655289
1735580794051,116,-99,923,935.5137625925125,10296,-4000,-6672,12904.38685098986
1735580794081,116,-99,923,935.5137625925125,10218,-3964,-8420,13820.89794477913
1735580794111,203,-101,946,972.7928864871494,10140,-3945,-10160,14886.511512103834
1735580794141,203,-101,946,972.7928864871494,10012,-3968,-11792,15969.860112098666
1735580794171,203,-101,946,972.7928864871494,9912,-4016,-13427,17165.672984185618
1735580794201,203,-101,946,972.7928864871494,9841,-4083,-15066,18452.656339941954
1735580794231,121,-87,883,895.4881350414421,9818,-4153,-16758,19861.296458187215
1735580794261,121,-87,883,895.4881350414421,9830,-4220,17513,20521.755992117243
1735580794291,121,-87,883,895.4881350414421,9858,-4284,15780,19092.96257787146
1735580794321,132,-51,936,946.6366779287606,9922,-4347,14024,17720.470338001753
1735580794351,132,-51,936,946.6366779287606,10001,-4411,12240,16410.195672203303
1735580794381,132,-51,936,946.6366779287606,10084,-4458,10451,15191.583887139615
1735580794411,130,-134,1036,1052.6879879622452,10154,-4486,8664,14081.647914928139
1735580794441,130,-134,1036,1052.6879879622452,10266,-4486,6888,13151.406616784381
1735580794471,130,-134,1036,1052.6879879622452,10356,-4464,5115,12382.942178658512
1735580794501,130,-134,1036,1052.6879879622452,10423,-4424,3347,11807.33306043325
1735580794531,-10,-190,1019,1036.6103414494764,10610,-4329,1428,11547.793079199158
1735580794561,-10,-190,1019,1036.6103414494764,10767,-4172,-517,11558.596887165846
1735580794591,-10,-190,1019,1036.6103414494764,10842,-3982,-2437,11804.416842860133
1735580794621,248,-59,956,989.4043662729612,10703,-3797,-4208,12111.097472979069
1735580794651,248,-59,956,989.4043662729612,10368,-3715,-5787,12441.302906046456
1735580794681,248,-59,956,989.4043662729612,10077,-3698,-7373,13022.375436148353
1735580794711,81,-176,889,909.8670232512002,9835,-3739,-8963,13821.820249156766
1735580794741,81,-176,889,909.8670232512002,9839,-3778,-10733,15042.489621070044
1735580794771,81,-176,889,909.8670232512002,9852,-3815,-12505,16370.435363789198
1735580794801,81,-176,889,909.8670232512002,9873,-3848,-14279,17781.25625483194
1735580794830,174,-101,846,869.5935832329951,9844,-3899,-15982,19171.09441320448
1735580794861,174,-101,846,869.5935832329951,9796,-3969,-17655,20577.016353203395
1735580794890,174,-101,846,869.5935832329951,9774,-4047,16668,19741.618702629225
1735580794921,206,-150,1028,1059.1128362927154,9797,-4143,14994,18383.843286973482
1735580794951,206,-150,1028,1059.1128362927154,9859,-4239,13335,17116.986504639186
1735580794981,206,-150,1028,1059.1128362927154,9934,-4321,11670,15923.07435767352
1735580795011,276,-132,1060,1103.2678731840242,10024,-4393,9988,14816.854220785193
1735580795041,276,-132,1060,1103.2678731840242,10063,-4476,8363,13828.894171263297
1735580795071,276,-132,1060,1103.2678731840242,10115,-4551,6732,12974.76974747529
1735580795101,276,-132,1060,1103.2678731840242,10177,-4617,5095,12281.980418483006
1735580795131,55,-164,1106,1119.4449517506432,10410,-4590,3208,11820.637207866588
1735580795160,55,-164,1106,1119.4449517506432,10643,-4486,1251,11617.342467191023
1735580795191,55,-164,1106,1119.4449517506432,10793,-4333,-677,11649.981416294191
1735580795221,137,-212,1066,1095.4766086046748,10817,-4162,-2513,11859.380337943463
1735580795250,137,-212,1066,1095.4766086046748,10764,-4008,-4260,12250.524886714038
1735580795280,137,-212,1066,1095.4766086046748,10682,-3864,-5999,12846.151991939065
1735580795310,173,-99,922,943.2995282517637,10562,-3731,-7728,13608.75413107313
1735580795341,173,-99,922,943.2995282517637,10292,-3641,-9409,14412.197126045703
1735580795371,173,-99,922,943.2995282517637,10053,-3609,-11097,15402.308236105393
1735580795401,173,-99,922,943.2995282517637,9850,-3628,-12789,16545.19280637128
1735580795431,144,-143,901,923.5724118876657,9717,-3714,-14398,17762.77818923605
1735580795461,144,-143,901,923.5724118876657,9642,-3819,-16021,19084.689308448276
1735580795490,144,-143,901,923.5724118876657,9604,-3938,-17646,20472.566424364093
1735580795521,116,-62,857,867.0346013856656,9606,-4065,16689,19680.502585045942
1735580795550,116,-62,857,867.0346013856656,9620,-4193,14987,18295.786892068896
1735580795581,116,-62,857,867.0346013856656,9663,-4316,13275,16977.250955322535
1735580795611,179,-117,970,993.2925047537608,9741,-4427,11529,15729.057536928269
1735580795640,179,-117,970,993.2925047537608,9850,-4528,9797,14611.861380399145
1735580795671,179,-117,970,993.2925047537608,9968,-4606,8056,13618.935200668222
1735580795701,179,-117,970,993.2925047537608,10086,-4660,6308,12776.300716561112
1735580795731,138,-190,932,961.128503375069,10287,-4672,4492,12158.454548173464
1735580795761,138,-190,932,961.128503375069,10482,-4636,2665,11767.202088856977
1735580795790,138,-190,932,961.128503375069,10627,-4562,851,11596.08442535669
1735580795821,161,-132,1050,1070.4414977008319,10689,-4462,-915,11619.009854544405
1735580795850,161,-132,1050,1070.4414977008319,10668,-4363,-2643,11824.865411496234
1735580795880,161,-132,1050,1070.4414977008319,10624,-4267,-4363,12252.037952928484
1735580795910,215,-189,1035,1073.8579980611962,10537,-4188,-6045,12849.503414529294
1735580795940,215,-189,1035,1073.8579980611962,10413,-4157,-7603,13546.83826580948
1735580795971,215,-189,1035,1073.8579980611962,10304,-4149,-9162,14398.918744127977
1735580796001,215,-189,1035,1073.8579980611962,10212,-4160,-10723,15380.938625454559
1735580796031,85,-95,908,916.9045751876255,10186,-4152,-12441,16606.389764184147
1735580796061,85,-95,908,916.9045751876255,10166,-4141,-14207,17953.670543930562
1735580796091,85,-95,908,916.9045751876255,10146,-4134,-15972,19368.429363270527
1735580796121,63,-216,1036,1060.1514042814829,10173,-4128,-17754,20874.26235822478
1735580796151,63,-216,1036,1060.1514042814829,10268,-4098,16447,19817.397331637672
1735580796181,63,-216,1036,1060.1514042814829,10335,-4049,14654,18383.316947711042
1735580796210,55,-165,942,957.9217087006641,10376,-3982,12859,16996.222550908187
1735580796240,55,-165,942,957.9217087006641,10353,-3903,11046,15634.325505118537
1735580796271,55,-165,942,957.9217087006641,10313,-3830,9237,14364.854263096442
1735580796301,55,-165,942,957.9217087006641,10261,-3766,7430,13216.496396549275
1735580796360,255,-108,994,1031.8551254900078,10078,-3790,5836,12247.00289866872
1735580796361,255,-108,994,1031.8551254900078,9883,-3872,4310,11456.09763401133
1735580796391,255,-108,994,1031.8551254900078,9737,-3990,2782,10884.337049173
1735580796421,121,-167,1041,1061.2308891094342,9738,-4105,1130,10628.10279400797
1735580796451,121,-167,1041,1061.2308891094342,9878,-4177,-664,10745.376168380519
1735580796481,121,-167,1041,1061.2308891094342,10012,-4219,-2463,11140.30852355535
1735580796510,115,-118,1069,1081.6237793244009,10113,-4236,-4248,11758.484978941802
1735580796541,115,-118,1069,1081.6237793244009,10132,-4247,-6011,12523.040924631685
1735580796571,115,-118,1069,1081.6237793244009,10150,-4255,-7774,13474.51672602769
1735580796601,115,-118,1069,1081.6237793244009,10166,-4260,-9537,14575.648356076652
1735580796631,59,-186,940,960.0401033290224,10228,-4236,-11342,15849.184332324487
1735580796661,59,-186,940,960.0401033290224,10299,-4189,-13162,17229.491170664325
1735580796691,59,-186,940,960.0401033290224,10343,-4128,-14976,18662.759951304095
1735580796721,145,-93,1024,1038.388174046681,10321,-4073,-16746,20088.32710804959
1735580796750,145,-93,1024,1038.388174046681,10210,-4054,17549,20703.777843669013
1735580796780,145,-93,1024,1038.388174046681,10115,-4058,15843,19229.696773480337
1735580796811,71,-170,942,959.846341869364,10041,-4079,14127,17805.393873767578
1735580796841,71,-170,942,959.846341869364,10100,-4085,12312,16440.27277754235
1735580796870,71,-170,942,959.846341869364,10148,-4078,10499,15160.507544274367
1735580796901,71,-170,942,959.846341869364,10186,-4061,8688,13990.270226125012
1735580796931,90,-93,990,998.4232569406624,10173,-4045,6908,12944.976554633075
1735580796960,90,-93,990,998.4232569406624,10136,-4039,5135,12059.031553155502
1735580796991,90,-93,990,998.4232569406624,10104,-4041,3361,11389.329128618594
1735580797021,166,-140,1024,1046.7721815180225,10069,-4045,1594,10967.571381121712
1735580797051,166,-140,1024,1046.7721815180225,10031,-4062,-129,10823.005405154337
1735580797081,166,-140,1024,1046.7721815180225,10005,-4086,-1855,10965.238073110862
1735580797111,118,-206,928,957.8851705710867,9984,-4118,-3585,11379.385088834984
1735580797139,118,-206,928,957.8851705710867,10052,-4140,-5373,12126.47652865415
1735580797171,118,-206,928,957.8851705710867,10114,-4148,-7162,13068.78510038328
1735580797201,118,-206,928,957.8851705710867,10166,-4144,-8950,14164.137531102979
1735580797231,175,-68,995,1012.5581464785121,10141,-4151,-10708,15320.964264693002
1735580797261,175,-68,995,1012.5581464785121,10077,-4178,-12447,16550.81333348908
1735580797291,175,-68,995,1012.5581464785121,10032,-4217,-14190,17882.399531382805
1735580797321,154,-130,923,944.7459976099396,10009,-4264,-15915,19278.200175327573
1735580797350,154,-130,923,944.7459976099396,10035,-4306,-17645,20750.63579748823
1735580797381,154,-130,923,944.7459976099396,10068,-4342,16621,19911.685739786073
1735580797411,123,-115,1040,1053.5435444251937,10108,-4376,14896,18525.97786892773
1735580797440,123,-115,1040,1053.5435444251937,10170,-4404,13155,17201.108714266065
1735580797471,123,-115,1040,1053.5435444251937,10228,-4420,11413,15950.076896366361
1735580797501,123,-115,1040,1053.5435444251937,10280,-4424,9670,14790.50627936718
1735580797531,78,-165,994,1010.6161486934592,10390,-4405,7874,13760.668624743494
1735580797561,78,-165,994,1010.6161486934592,10495,-4356,6068,12881.78500829757
1735580797590,78,-165,994,1010.6161486934592,10565,-4286,4271,12174.993305952985
1735580797621,208,-97,945,972.4700509527273,10562,-4213,2510,11644.96942889933
1735580797651,208,-97,945,972.4700509527273,10459,-4177,836,11293.223897541393
1735580797681,208,-97,945,972.4700509527273,10365,-4160,-837,11199.972946395897
1735580797711,41,-110,934,941.348500822092,10282,-4156,-2514,11371.545893149269
1735580797741,41,-110,934,941.348500822092,10324,-4108,-4378,11942.67658441775
1735580797771,41,-110,934,941.348500822092,10343,-4050,-6236,12738.439661120196
1735580797801,41,-110,934,941.348500822092,10342,-3990,-8089,13722.572098553535
1735580797832,141,-178,818,848.9340374846564,10288,-3982,-9791,14750.01522033113
1735580797861,141,-178,818,848.9340374846564,10241,-3992,-11459,15878.376050465615
1735580797891,141,-178,818,848.9340374846564,10205,-4012,-13129,17105.812170136793
1735580797921,188,-155,1023,1051.6168503785018,10184,-4042,-14815,18426.498446530746
1735580797951,188,-155,1023,1051.6168503785018,10154,-4088,-16486,19788.9781444116
1735580797981,188,-155,1023,1051.6168503785018,10140,-4140,17840,20933.819527262578
1735580798011,60,-153,972,985.7956177626273,10142,-4189,16146,19521.81346596673
1735580798041,60,-153,972,985.7956177626273,10239,-4191,14275,18060.377266269938
1735580798071,60,-153,972,985.7956177626273,10319,-4173,12406,16667.469094016644
1735580798101,89,-231,1049,1077.8139913732796,10387,-4141,10542,15367.869533543028
1735580798130,89,-231,1049,1077.8139913732796,10495,-4098,8717,14245.164723512326
1735580798161,89,-231,1049,1077.8139913732796,10570,-4033,6899,13250.893932108882
1735580798191,89,-231,1049,1077.8139913732796,10612,-3951,5090,12415.033024523133
1735580798221,142,-153,1002,1023.5120907932646,10530,-3884,3335,11708.48329204086
1735580798251,142,-153,1002,1023.5120907932646,10419,-3846,1598,11220.55618051084
1735580798281,142,-153,1002,1023.5120907932646,10320,-3832,-138,11009.344576313342
1735580798311,154,-94,960,976.8070433816497,10235,-3834,-1880,11090.04873749435
1735580798341,154,-94,960,976.8070433816497,10111,-3859,-3615,11410.189612797853
1735580798371,154,-94,960,976.8070433816497,10015,-3909,-5354,12010.23821578906
1735580798401,72,-181,954,973.6842403982926,9933,-3978,-7079,12829.700464157377
1735580798431,72,-181,954,973.6842403982926,9975,-4035,-8859,13937.85245294267
1735580798461,72,-181,954,973.6842403982926,10024,-4083,-10643,15179.753423557315
1735580798491,72,-181,954,973.6842403982926,10077,-4119,-12430,16523.225774648243
1735580798521,97,-165,933,952.4300499249275,10145,-4141,-14221,17952.875730645494
1735580798551,97,-165,933,952.4300499249275,10198,-4152,-16003,19425.095031942572
1735580798581,97,-165,933,952.4300499249275,10243,-4153,-17786,20940.58867367391
1735580798611,167,-92,920,939.5493600657711,10256,-4163,16470,19843.81528335718
1735580798641,167,-92,920,939.5493600657711,10208,-4198,14783,18448.94460396041
1735580798671,167,-92,920,939.5493600657711,10178,-4242,13093,17117.619489870664
1735580798701,101,-161,1012,1029.6921870151293,10178,-4286,11374,15853.37049336828
1735580798731,101,-161,1012,1029.6921870151293,10314,-4284,9528,14680.39631617621
1735580798761,101,-161,1012,1029.6921870151293,10423,-4255,7687,13632.091659022837
1735580798791,101,-161,1012,1029.6921870151293,10502,-4203,5852,12735.898751167897
1735580798821,179,-229,1020,1060.6045445876612,10506,-4129,4087,12005.342394117712
1735580798851,179,-229,1020,1060.6045445876612,10491,-4059,2355,11492.718868918704
1735580798881,179,-229,1020,1060.6045445876612,10462,-3993,628,11215.697793717518
1735580798911,90,-134,1054,1066.2888914360874,10397,-3929,-1081,11167.05919210604
1735580798941,90,-134,1054,1066.2888914360874,10304,-3870,-2829,11364.530654628901
1735580798971,90,-134,1054,1066.2888914360874,10215,-3832,-4577,11831.288095554093
1735580799001,111,-244,1004,1039.1693798414194,10145,-3815,-6338,12555.69567965073
1735580799031,111,-244,1004,1039.1693798414194,10181,-3805,-8101,13555.699428653617
1735580799061,111,-244,1004,1039.1693798414194,10208,-3787,-9862,14690.257894264485
1735580799091,111,-244,1004,1039.1693798414194,10225,-3763,-11622,15930.526607742759
1735580799121,167,-86,925,943.8802890197464,10116,-3726,-13369,17174.01214044057
1735580799151,167,-86,925,943.8802890197464,9969,-3729,-15099,18473.39175679442
1735580799181,167,-86,925,943.8802890197464,9851,-3763,-16832,19862.492139708953
1735580799211,147,-110,929,946.9688484844684,9780,-3816,17435,20351.6456582754
1735580799241,147,-110,929,946.9688484844684,9759,-3875,15690,18879.348664612346
1735580799271,147,-110,929,946.9688484844684,9756,-3937,13941,17465.136300641916
1735580799301,112,-83,916,926.5468147913521,9751,-4001,12217,16135.212765873279
1735580799331,112,-83,916,926.5468147913521,9728,-4070,10506,14885.39283996227
1735580799361,112,-83,916,926.5468147913521,9727,-4142,8791,13749.6317768877
1735580799391,112,-83,916,926.5468147913521,9745,-4213,7070,12755.363342531642
1735580799421,20,-73,954,956.9979101335592,9845,-4269,5271,11955.409946965432
1735580799451,20,-73,954,956.9979101335592,9959,-4295,3434,11376.337811440024
1735580799481,20,-73,954,956.9979101335592,10059,-4296,1598,11054.080739708752
1735580799511,185,-40,1013,1030.5309311223996,10105,-4302,-189,10984.259192134898
1735580799541,185,-40,1013,1030.5309311223996,10063,-4340,-1863,11116.219591209954
1735580799571,185,-40,1013,1030.5309311223996,10037,-4386,-3539,11510.989792367987
1735580799601,227,-35,1100,1123.7232755442951,10038,-4429,-5239,12158.31427460238
1735580799631,227,-35,1100,1123.7232755442951,10029,-4469,-6930,12983.74760999304
1735580799661,227,-35,1100,1123.7232755442951,10033,-4509,-8625,13977.939583500853
1735580799691,227,-35,1100,1123.7232755442951,10046,-4549,-10323,15105.622992779874
1735580799721,34,-105,1016,1021.9770056121615,10183,-4540,-12177,16510.130768712886
1735580799751,34,-105,1016,1021.9770056121615,10349,-4476,-14098,18052.423133751327
1735580799781,34,-105,1016,1021.9770056121615,10462,-4379,-16003,19614.41036585092
1735580799811,120,-84,950,961.226300097953,10472,-4279,-17832,21117.59572015716
1735580799841,120,-84,950,961.226300097953,10396,-4208,16421,19885.50529908657
1735580799871,120,-84,950,961.226300097953,10316,-4152,14677,18413.942788007134
1735580799901,212,-207,915,961.7785607924518,10245,-4118,12935,17006.827276126493
1735580799931,212,-207,915,961.7785607924518,10234,-4119,11292,15786.392273093938
1735580799961,212,-207,915,961.7785607924518,10224,-4121,9650,14650.43743374238
1735580799991,212,-207,915,961.7785607924518,10217,-4125,8007,13620.380427873519
1735580800021,57,-133,1001,1011.4044690429245,10229,-4098,6262,12674.331895606963
1735580800051,57,-133,1001,1011.4044690429245,10243,-4055,4464,11886.52051695533
1735580800081,57,-133,1001,1011.4044690429245,10242,-4010,2670,11318.461202831417
1735580800111,166,-56,912,928.6743239693881,10175,-3987,937,10968.352793377864
1735580800140,166,-56,912,928.6743239693881,10030,-4014,-708,10826.558086483441
1735580800171,166,-56,912,928.6743239693881,9917,-4068,-2357,10975.015353064433
1735580800201,257,-82,979,1015.4870752500989,9846,-4144,-4024,11415.297981218011
1735580800231,257,-82,979,1015.4870752500989,9779,-4246,-5617,12050.230122283972
1735580800261,257,-82,979,1015.4870752500989,9747,-4359,-7216,12887.030146624164
1735580800291,257,-82,979,1015.4870752500989,9747,-4477,-8823,13888.587653177698
1735580800321,190,-146,943,972.9671114688307,9835,-4561,-10513,15101.427581523543
1735580800351,190,-146,943,972.9671114688307,9962,-4617,-12237,16440.87290869922
1735580800381,190,-146,943,972.9671114688307,10081,-4648,-13965,17839.61014148011
1735580800411,234,-68,990,1019.5489198660357,10146,-4676,-15661,19237.287048853846
1735580800441,234,-68,990,1019.5489198660357,10141,-4716,-17316,20613.694307425827
1735580800471,234,-68,990,1019.5489198660357,10147,-4757,17024,20381.541502055235
1735580800501,41,-172,1052,1066.7562983174741,10186,-4785,15328,19015.74097951484
1735580800562,41,-172,1052,1066.7562983174741,10502,-4703,13338,17615.68780944985
1735580800562,41,-172,1052,1066.7562983174741,10722,-4557,11379,16285.244057121157
1735580800592,41,-172,1052,1066.7562983174741,10847,-4365,9455,15036.876637121155
1735580800621,103,-136,966,980.9490302762932,10831,-4188,7629,13894.299046731361
1735580800651,103,-136,966,980.9490302762932,10749,-4026,5837,12877.121029174185
1735580800681,103,-136,966,980.9490302762932,10639,-3881,4052,12027.85043139463
1735580800711,112,-59,1021,1028.8177681202828,10495,-3759,2277,11378.041791099206
1735580800741,112,-59,1021,1028.8177681202828,10307,-3678,508,10955.363846080147
1735580800771,112,-59,1021,1028.8177681202828,10135,-3639,-1262,10842.194888490061
1735580800801,145,-143,1002,1022.4861857257534,9979,-3639,-3023,11043.608604075029
1735580800831,145,-143,1002,1022.4861857257534,9885,-3674,-4726,11556.235416432117
1735580800861,145,-143,1002,1022.4861857257534,9817,-3729,-6431,12314.085065484971
1735580800891,145,-143,1002,1022.4861857257534,9775,-3796,-8139,13274.168975871899
1735580800921,112,-135,899,915.9530555656223,9745,-3868,-9855,14389.144310903272
1735580800951,112,-135,899,915.9530555656223,9743,-3942,-11587,15643.656286175556
1735580800981,112,-135,899,915.9530555656223,9760,-4015,-13323,16996.474752136102
1735580801011,64,-131,917,928.5181742970893,9841,-4076,-15111,18487.871105132683
1735580801041,64,-131,917,928.5181742970893,9960,-4107,-16952,20085.79978492268
1735580801071,64,-131,917,928.5181742970893,10064,-4111,17207,20353.50746186023
1735580801101,99,-94,1005,1014.2297570077502,10132,-4103,15399,18884.417756446717
1735580801131,99,-94,1005,1014.2297570077502,10104,-4122,13690,17507.07856839627
1735580801161,99,-94,1005,1014.2297570077502,10086,-4145,11978,16198.175977559942
1735580801191,99,-94,1005,1014.2297570077502,10077,-4172,10265,14977.37420244283
1735580801221,166,-96,949,968.1802518126467,10042,-4221,8588,13871.277843082808
1735580801251,166,-96,949,968.1802518126467,10011,-4283,6932,12908.01433218913
1735580801281,166,-96,949,968.1802518126467,10001,-4350,5272,12113.483602993814
1735580801311,172,-145,1000,1024.9921950922358,10062,-4407,3567,11549.41479036925
1735580801341,172,-145,1000,1024.9921950922358,10168,-4440,1842,11246.990175153529
1735580801371,172,-145,1000,1024.9921950922358,10262,-4453,116,11187.104585190933
1735580801401,83,-137,933,946.6504106585493,10343,-4446,-1618,11373.763185507249
1735580801431,83,-137,933,946.6504106585493,10463,-4393,-3473,11867.373213984634
1735580801461,83,-137,933,946.6504106585493,10543,-4316,-5317,12571.920855621069
1735580801491,83,-137,933,946.6504106585493,10584,-4223,-7150,13452.77982425937
1735580801521,105,-76,972,980.6044054561452,10560,-4133,-8962,14453.813787371138
1735580801551,105,-76,972,980.6044054561452,10496,-4056,-10760,15569.031826032086
1735580801581,105,-76,972,980.6044054561452,10425,-3992,-12555,16800.140297033235
1735580801611,127,-207,943,973.7694799078475,10376,-3953,-14336,18133.076986545886
1735580801641,127,-207,943,973.7694799078475,10383,-3919,-16098,19552.77100566567
1735580801671,127,-207,943,973.7694799078475,10380,-3884,-17858,21017.56455919667
1735580801701,153,-211,927,962.9428851183231,10363,-3855,16392,19772.467170285046
1735580801731,153,-211,927,962.9428851183231,10321,-3846,14687,18358.178722302495
1735580801791,153,-211,927,962.9428851183231,10286,-3845,12982,17003.474497878367
1735580801792,45,-183,992,1009.7415510911691,10257,-3851,11267,15715.646311876582
1735580801821,45,-183,992,1009.7415510911691,10274,-3830,9421,14456.113481845665
1735580801851,45,-183,992,1009.7415510911691,10283,-3807,7577,13328.32573881656
1735580801881,45,-183,992,1009.7415510911691,10283,-3782,5735,12366.6421473252
1735580801911,215,-133,962,994.6647676478744,10220,-3779,3965,11595.277745703204
1735580801941,215,-133,962,994.6647676478744,10078,-3833,2317,11028.438783436211
1735580801971,215,-133,962,994.6647676478744,9973,-3915,666,10734.594077094858
1735580802001,160,-226,973,1011.6348155337479,9916,-4015,-1002,10744.825964155958
1735580802031,160,-226,973,1011.6348155337479,10021,-4092,-2767,11172.340578410596
1735580802061,160,-226,973,1011.6348155337479,10128,-4147,-4537,11847.293446184238
1735580802091,143,-130,929,948.8888238355429,10223,-4177,-6309,12718.511666071625
1735580802121,143,-130,929,948.8888238355429,10231,-4193,-8100,13706.371146295434
1735580802151,143,-130,929,948.8888238355429,10242,-4208,-9892,14847.811017116293
1735580802181,143,-130,929,948.8888238355429,10255,-4220,-11686,16110.121694139993
1735580802211,139,-166,985,1008.5147495203032,10256,-4236,-13428,17419.541210950418
1735580802241,139,-166,985,1008.5147495203032,10271,-4250,-15173,18808.930591609933
1735580802271,139,-166,985,1008.5147495203032,10286,-4260,-16919,20253.44309000324
1735580802301,83,-198,978,1001.28767095176,10286,-4261,17349,20614.21155416816
1735580802331,83,-198,978,1001.28767095176,10321,-4233,15586,19166.760967883958
1735580802361,83,-198,978,1001.28767095176,10342,-4198,13827,17769.808580848585
1735580802391,222,-138,1004,1037.4699995662525,10365,-4169,12076,16451.248037762973
1735580802421,222,-138,1004,1037.4699995662525,10264,-4200,10491,15266.000687802945
1735580802451,222,-138,1004,1037.4699995662525,10189,-4249,8902,14181.51352994454
1735580802481,222,-138,1004,1037.4699995662525,10137,-4312,7310,13220.749335797876
1735580802511,161,-216,985,1021.1767721604326,10189,-4347,5609,12416.642501095053
1735580802541,161,-216,985,1021.1767721604326,10274,-4360,3885,11817.694402885869
1735580802571,161,-216,985,1021.1767721604326,10346,-4356,2160,11431.537604364516
1735580802601,151,-113,928,946.9709604840056,10378,-4340,444,11257.69159286219
1735580802631,151,-113,928,946.9709604840056,10352,-4326,-1273,11291.532624050644
1735580802661,151,-113,928,946.9709604840056,10327,-4317,-2990,11585.48738724444
1735580802691,166,-107,961,981.0840942549216,10307,-4310,-4710,12124.126731439259
1735580802721,166,-107,961,981.0840942549216,10280,-4307,-6417,12861.047313496674
1735580802751,166,-107,961,981.0840942549216,10256,-4308,-8125,13775.341193596621
1735580802781,166,-107,961,981.0840942549216,10238,-4315,-9833,14836.568268976489
1735580802811,112,-122,958,972.2098538895808,10257,-4322,-11569,16053.893421846304
1735580802841,112,-122,958,972.2098538895808,10289,-4317,-13324,17378.98115540724
1735580802871,112,-122,958,972.2098538895808,10314,-4307,-15079,18769.791847540557
1735580802901,143,-145,916,938.3656003925123,10322,-4301,-16800,20181.235963141604
1735580802931,143,-145,916,938.3656003925123,10322,-4303,17510,20776.419157304274
1735580802961,143,-145,916,938.3656003925123,10323,-4305,15821,19375.2779334904
1735580802991,180,-85,974,994.1332908619447,10336,-4299,14108,18009.71851529057
1735580803021,180,-85,974,994.1332908619447,10290,-4292,12390,16667.85721081147
1735580803051,180,-85,974,994.1332908619447,10252,-4293,10673,15409.29206680177
1735580803081,180,-85,974,994.1332908619447,10220,-4302,8954,14252.35840133134
1735580803112,33,-132,1039,1047.8711752882602,10291,-4272,7128,13227.359865067556
1735580803141,33,-132,1039,1047.8711752882602,10379,-4206,5255,12370.49319954544
1735580803171,33,-132,1039,1047.8711752882602,10431,-4123,3393,11718.248119919632
1735580803201,139,-93,854,870.2218108045787,10385,-4051,1607,11262.383184743805
1735580803231,139,-93,854,870.2218108045787,10255,-4023,-87,11016.220903740084
1735580803261,139,-93,854,870.2218108045787,10143,-4022,-1783,11056.040068668348
1735580803291,194,-100,964,988.3987049768934,10063,-4046,-3485,11392.072243450706
1735580803321,194,-100,964,988.3987049768934,9995,-4104,-5133,11962.045393660735
1735580803351,194,-100,964,988.3987049768934,9954,-4175,-6785,12749.46924385482
1735580803381,194,-100,964,988.3987049768934,9936,-4253,-8441,13713.591287478273
1735580803411,71,-200,974,996.8535499259658,10065,-4287,-10226,14975.101669103953
1735580803440,71,-200,974,996.8535499259658,10230,-4275,-12056,16379.122717654935
1735580803471,71,-200,974,996.8535499259658,10360,-4229,-13879,17828.0868855859
1735580803501,143,-45,930,942.0053078406725,10366,-4176,-15652,19232.213497151075
1735580803530,143,-45,930,942.0053078406725,10239,-4160,-17363,20581.945729206458
1735580803561,143,-45,930,942.0053078406725,10132,-4169,16923,20160.007787696908
1735580803591,125,-122,1022,1036.8186919611355,10054,-4197,15203,18703.714443927976
1735580803621,125,-122,1022,1036.8186919611355,10085,-4222,13454,17336.1652334073
1735580803651,125,-122,1022,1036.8186919611355,10116,-4240,11704,16040.407476121049
1735580803681,125,-122,1022,1036.8186919611355,10147,-4251,9954,14836.263882797448
1735580803711,107,-127,993,1006.7904449288343,10194,-4266,8181,13749.369185529931
1735580803741,107,-127,993,1006.7904449288343,10243,-4269,6402,12811.284635039532
1735580803771,107,-127,993,1006.7904449288343,10282,-4261,4623,12051.878442798865
1735580803801,219,-92,1001,1028.7983281479417,10271,-4249,2880,11482.240286633963
1735580803831,219,-92,1001,1028.7983281479417,10190,-4262,1215,11112.019123453667
1735580803861,219,-92,1001,1028.7983281479417,10127,-4290,-451,11007.43521443574
1735580803891,161,-145,1007,1030.0461154725065,10076,-4329,-2109,11167.537687422417
1735580803921,161,-145,1007,1030.0461154725065,10115,-4355,-3815,11654.76190232988
1735580803951,161,-145,1007,1030.0461154725065,10154,-4373,-5522,12357.966216170038
1735580803981,161,-145,1007,1030.0461154725065,10190,-4384,-7230,13241.165205524776
1735580804011,143,-176,922,949.4782777925991,10224,-4409,-8898,14252.854486031913
1735580804041,143,-176,922,949.4782777925991,10271,-4424,-10574,15390.73399809119
1735580804071,143,-176,922,949.4782777925991,10313,-4431,-12250,16614.879776874703
1735580804101,101,-118,937,949.7862917519919,10374,-4414,-13979,17958.722476835595
1735580804132,101,-118,937,949.7862917519919,10422,-4373,-15755,19389.719905145612
1735580804161,101,-118,937,949.7862917519919,10450,-4322,-17525,20856.840820220114
1735580804191,103,-167,1008,1026.9186920102293,10456,-4268,16710,20168.486804914246
1735580804221,103,-167,1008,1026.9186920102293,10481,-4210,14954,18740.266193413583
1735580804251,103,-167,1008,1026.9186920102293,10485,-4146,13204,17362.8959854052
1735580804281,103,-167,1008,1026.9186920102293,10472,-4083,11458,16050.527623726268
1735580804311,226,-79,989,1017.5647399551539,10373,-4036,9767,14808.197527045619
1735580804341,226,-79,989,1017.5647399551539,10236,-4030,8119,13672.408602729805
1735580804371,226,-79,989,1017.5647399551539,10123,-4050,6469,12677.75966012923
1735580804401,82,-141,949,962.9153649205106,10063,-4074,4761,11854.47451387028
1735580804431,82,-141,949,962.9153649205106,10100,-4073,2947,11282.02721145451
1735580804461,82,-141,949,962.9153649205106,10130,-4063,1133,10973.083340611243
1735580804491,183,-69,1018,1036.6166118676663,10164,-4060,-668,10965.250567132518
1735580804521,183,-69,1018,1036.6166118676663,10097,-4109,-2339,11149.179835306273
1735580804551,183,-69,1018,1036.6166118676663,10053,-4170,-4013,11599.822326225518
1735580804581,183,-69,1018,1036.6166118676663,10032,-4239,-5692,12288.57229298831
1735580804611,179,-143,965,991.8240771427159,10019,-4291,-7419,13184.635110612657
1735580804641,179,-143,965,991.8240771427159,10042,-4341,-9151,14262.778340842291
1735580804671,179,-143,965,991.8240771427159,10074,-4385,-10888,15468.104117829049
1735580804701,-5,-197,964,983.935973526733,10199,-4399,-12706,16876.410696590672
1735580804762,-5,-197,964,983.935973526733,10424,-4336,-14661,18504.204738383112
1735580804762,-5,-197,964,983.935973526733,10582,-4223,-16598,20132.214408752952
1735580804791,153,-79,939,954.6575302169883,10666,-4085,17500,20897.38694191214
1735580804821,153,-79,939,954.6575302169883,10495,-4014,15808,19394.58906499439
1735580804851,153,-79,939,954.6575302169883,10340,-3977,14115,17943.393045909685
1735580804881,153,-79,939,954.6575302169883,10205,-3972,12419,16557.486826206445
1735580804922,65,-197,855,879.8062286662899,10153,-3968,10694,15270.562170398312
1735580804941,65,-197,855,879.8062286662899,10155,-3959,8938,14095.586188591094
1735580804971,65,-197,855,879.8062286662899,10154,-3949,7182,13049.116483501863
1735580805001,114,-149,916,935.0149731421417,10161,-3957,5436,12184.164558967512
1735580805032,114,-149,916,935.0149731421417,10140,-3983,3719,11511.509457929486
1735580805062,114,-149,916,935.0149731421417,10130,-4013,2000,11077.954188386952
1735580805091,134,-154,1028,1048.0725165750698,10136,-4036,260,10913.083523917518
1735580805121,134,-154,1028,1048.0725165750698,10146,-4043,-1498,11024.117606411863
1735580805151,134,-154,1028,1048.0725165750698,10157,-4049,-3257,11409.079673663427
1735580805181,134,-154,1028,1048.0725165750698,10166,-4052,-5016,12038.542935089778
1735580805211,80,-107,1019,1027.720779200265,10168,-4049,-6800,12884.976717091886
1735580805241,80,-107,1019,1027.720779200265,10167,-4042,-8602,13917.616785929982
1735580805271,80,-107,1019,1027.720779200265,10165,-4036,-10404,15095.023583949778
1735580805301,152,-130,969,989.4266016233847,10129,-4045,-12148,16325.825247135288
1735580805331,152,-130,969,989.4266016233847,10075,-4079,-13825,17586.20172180451
1735580805391,152,-130,969,989.4266016233847,10040,-4123,-15506,18927.143603829925
1735580805392,11,-78,967,970.203071526781,10021,-4162,-17205,20340.961383376154
1735580805421,11,-78,967,970.203071526781,10064,-4151,16904,20106.220753786623
1735580805451,11,-78,967,970.203071526781,10095,-4131,15017,18560.292966437788
1735580805479,11,-78,967,970.203071526781,10115,-4104,13133,17077.228405101338
1735580805511,211,-74,940,966.2282339074966,10009,-4159,11505,15806.403354337128
1735580805541,211,-74,940,966.2282339074966,9892,-4252,9947,14658.580320071927
1735580805571,211,-74,940,966.2282339074966,9816,-4366,8384,13627.445395230905
1735580805601,63,-53,885,888.8211293618081,9848,-4460,6707,12722.364284990428
1735580805631,63,-53,885,888.8211293618081,9977,-4508,4883,11987.75550301223
1735580805661,63,-53,885,888.8211293618081,10095,-4529,3055,11478.409776619756
1735580805691,195,-141,915,946.1136295392853,10203,-4535,1230,11233.002003026617
1735580805721,195,-141,915,946.1136295392853,10276,-4566,-434,11253.127920716088
1735580805751,195,-141,915,946.1136295392853,10344,-4584,-2101,11507.631945800144
1735580805781,161,-83,954,971.0437683235499,10404,-4586,-3775,11980.201876429295
1735580805811,161,-83,954,971.0437683235499,10432,-4564,-5499,12644.987979432799
1735580805841,161,-83,954,971.0437683235499,10449,-4537,-7220,13486.822086763064
1735580805871,161,-83,954,971.0437683235499,10456,-4507,-8938,14475.110673152036
1735580805901,166,-137,1071,1092.4129255917837,10479,-4483,-10679,15618.82745278915
1735580805931,166,-137,1071,1092.4129255917837,10516,-4451,-12413,16866.54161350216
1735580805990,166,-137,1071,1092.4129255917837,10537,-4412,-14142,18179.391546473715
1735580805991,266,-56,868,909.569128763724,10510,-4369,-15841,19506.038603468412
1735580806021,266,-56,868,909.569128763724,10280,-4380,-17377,20659.69334235143
1735580806051,266,-56,868,909.569128763724,10093,-4430,17083,20330.33295349587
1735580806081,99,-208,952,979.4738383438324,9978,-4507,15512,18986.723703683056
1735580806111,99,-208,952,979.4738383438324,10205,-4524,13683,17658.79639160042
1735580806141,99,-208,952,979.4738383438324,10394,-4495,11859,16397.44315434574
1735580806171,99,-208,952,979.4738383438324,10538,-4429,10045,15217.342409238217
1735580806201,155,-94,1093,1107.9305032356497,10579,-4368,8279,14125.739131103901
1735580806232,155,-94,1093,1107.9305032356497,10556,-4313,6539,13144.94678574242
1735580806261,155,-94,1093,1107.9305032356497,10523,-4263,4802,12327.445071871138
1735580806291,193,-127,938,966.0341608866635,10460,-4219,3081,11692.053797344588
1735580806321,193,-127,938,966.0341608866635,10357,-4199,1428,11266.686913196798
1735580806351,193,-127,938,966.0341608866635,10267,-4198,-226,11094.393584148707
1735580806381,42,-68,924,927.45026820849,10206,-4210,-1884,11199.821069999289
1735580806411,42,-68,924,927.45026820849,10233,-4186,-3715,11663.537628009779
1735580806441,42,-68,924,927.45026820849,10248,-4157,-5542,12369.960266710641
1735580806471,42,-68,924,927.45026820849,10252,-4124,-7367,13280.947594204263
1735580806501,137,-154,949,971.1261504047762,10224,-4120,-9093,14289.409539935512
1735580806531,137,-154,949,971.1261504047762,10203,-4126,-10786,15409.830660977426
1735580806561,137,-154,949,971.1261504047762,10187,-4136,-12479,16631.50341971525
1735580806591,16,-130,956,964.9310856221806,10241,-4137,-14250,18029.291444757335
1735580806621,16,-130,956,964.9310856221806,10340,-4099,-16120,19584.989175386338
1735580806651,16,-130,956,964.9310856221806,10409,-4040,-17984,21168.210528998432
1735580806681,119,-162,951,972.0113168065483,10434,-3972,16166,19646.493223982747
1735580806711,119,-162,951,972.0113168065483,10380,-3939,14446,18219.41373919589
1735580806741,119,-162,951,972.0113168065483,10327,-3918,12725,16850.023086037596
1735580806771,119,-162,951,972.0113168065483,10279,-3908,11005,15557.645387397155
1735580806802,187,-129,1023,1047.921275669122,10219,-3890,9273,14336.965857530666
1735580806831,187,-129,1023,1047.921275669122,10146,-3894,7563,13240.223600830917
1735580806861,187,-129,1023,1047.921275669122,10087,-3913,5852,12300.61144821671
1735580806891,-25,-191,982,1000.7147445700998,10087,-3924,4066,11561.90732535078
1735580806921,-25,-191,982,1000.7147445700998,10191,-3885,2133,11113.028165176223
1735580806951,-25,-191,982,1000.7147445700998,10262,-3823,207,10952.936683830507
1735580806981,154,-98,987,1003.7375154889849,10311,-3751,-1709,11104.386655732049
1735580807011,154,-98,987,1003.7375154889849,10177,-3746,-3436,11375.849023259758
1735580807041,154,-98,987,1003.7375154889849,10066,-3769,-5165,11925.055219997936
1735580807071,154,-98,987,1003.7375154889849,9982,-3814,-6897,12718.314707538888
1735580807101,147,-137,938,959.2820231819212,9893,-3872,-8598,13667.093216920706
1735580807131,147,-137,938,959.2820231819212,9845,-3945,-10304,14787.13853319837
1735580807161,147,-137,938,959.2820231819212,9824,-4025,-12015,16033.45957677257
1735580807191,126,-158,1014,1033.9419712923932,9862,-4116,-13732,17400.23919375823
1735580807221,126,-158,1014,1033.9419712923932,9948,-4195,-15467,18862.36512211552
1735580807251,126,-158,1014,1033.9419712923932,10040,-4256,-17207,20371.45024292576
1735580807281,45,-104,992,998.4513007653403,10112,-4295,17064,20294.81867374035
1735580807311,45,-104,992,998.4513007653403,10159,-4304,15279,18846.154461852424
1735580807341,45,-104,992,998.4513007653403,10200,-4304,13493,17453.52299680497
1735580807371,45,-104,992,998.4513007653403,10233,-4295,11709,16132.637571085517
1735580807400,176,-189,952,986.4081305423227,10267,-4299,10009,14969.060458158354
1735580807431,176,-189,952,986.4081305423227,10289,-4305,8359,13938.056787084777
1735580807461,176,-189,952,986.4081305423227,10309,-4307,6708,13031.615172341455
1735580807491,130,-137,1035,1052.090300306965,10372,-4293,4990,12284.475283869475
1735580807521,130,-137,1035,1052.090300306965,10434,-4254,3217,11718.103984860349
1735580807551,130,-137,1035,1052.090300306965,10473,-4203,1449,11377.54538553901
1735580807581,54,-95,1010,1015.894187403393,10489,-4134,-331,11279.123990807087
1735580807611,54,-95,1010,1015.894187403393,10491,-4024,-2222,11453.861401291706
1735580807641,54,-95,1010,1015.894187403393,10460,-3914,-4104,11898.479398645863
1735580807671,54,-95,1010,1015.894187403393,10404,-3814,-5979,12591.197441069693
1735580807701,185,-166,994,1024.6057778482416,10264,-3799,-7674,13366.838556667019
1735580807731,185,-166,994,1024.6057778482416,10142,-3823,-9325,14297.941040583431
1735580807761,185,-166,994,1024.6057778482416,10047,-3872,-10979,15377.679733952064
1735580807791,72,-104,957,965.3232619179961,10012,-3915,-12697,16636.741808419098
1735580807821,72,-104,957,965.3232619179961,10017,-3941,-14508,18065.26595431133
1735580807851,72,-104,957,965.3232619179961,10027,-3965,-16321,19561.109247688382
1735580807881,231,-180,1002,1043.9181002358375,10031,-3992,17880,20886.632686960336
1735580807911,231,-180,1002,1043.9181002358375,9981,-4061,16286,19528.079219421452
1735580807941,231,-180,1002,1043.9181002358375,9956,-4139,14689,18221.415367638157
1735580807971,231,-180,1002,1043.9181002358375,9953,-4221,13088,16975.711884925473
1735580808001,46,-119,971,979.3456999446109,10053,-4275,11333,15740.880629748768
1735580808031,46,-119,971,979.3456999446109,10173,-4292,9506,14569.66811564354
1735580808061,46,-119,971,979.3456999446109,10274,-4283,7680,13523.371066416836
1735580808091,191,-247,933,983.859237899406,10342,-4263,5905,12649.077357657356
1735580808121,191,-247,933,983.859237899406,10391,-4250,4236,11999.128176663502
1735580808151,191,-247,933,983.859237899406,10427,-4227,2569,11540.7806928301
1735580808181,83,-130,938,950.5961287529,10465,-4189,882,11306.717914585117
1735580808211,83,-130,938,950.5961287529,10484,-4106,-962,11300.395391312642
1735580808241,83,-130,938,950.5961287529,10475,-4019,-2798,11563.165224107108
1735580808271,83,-130,938,950.5961287529,10444,-3934,-4629,12082.265226355528
1735580808301,185,-102,1046,1067.1199557687974,10304,-3902,-6323,12703.477830893396
1735580808331,185,-102,1046,1067.1199557687974,10157,-3911,-7984,13498.326785198231
1735580808361,185,-102,1046,1067.1199557687974,10039,-3949,-9647,14472.067267671195
1735580808391,72,-150,990,1003.8844555027237,9982,-3997,-11360,15641.800823434622
1735580808421,72,-150,990,1003.8844555027237,10013,-4026,-13160,17019.237497608407
1735580808451,72,-150,990,1003.8844555027237,10047,-4049,-14961,18470.73715367094
1735580808481,25,-127,982,990.4938162351141,10086,-4061,-16776,19991.330445970823
1735580808511,25,-127,982,990.4938162351141,10142,-4047,17334,20486.725677862727
1735580808541,25,-127,982,990.4938162351141,10182,-4022,15448,18933.840392271188
1735580808571,25,-127,982,990.4938162351141,10207,-3987,13566,17438.904036664688
1735580808601,87,-183,1035,1054.6482826042054,10215,-3994,11785,16099.207620252619
1735580808631,87,-183,1035,1054.6482826042054,10226,-4001,10025,14868.749174022676
1735580808691,87,-183,1035,1054.6482826042054,10236,-4006,8266,13753.199191460873
1735580808691,100,-129,1050,1062.6104648458906,10244,-3975,6457,12744.920949146763
1735580808721,100,-129,1050,1062.6104648458906,10214,-3932,4633,11884.910979893792
1735580808751,100,-129,1050,1062.6104648458906,10179,-3897,2811,11256.125932131357
1735580808781,217,-145,955,990.0196967737561,10114,-3884,1038,10883.744576201703
1735580808811,217,-145,955,990.0196967737561,9953,-3945,-514,10718.648702145247
1735580808841,217,-145,955,990.0196967737561,9833,-4036,-2070,10828.761932926589
1735580808871,217,-145,955,990.0196967737561,9752,-4148,-3629,11201.653851106095
1735580808901,95,-154,909,926.8343972900444,9817,-4239,-5333,11949.204952631786
1735580808931,95,-154,909,926.8343972900444,9922,-4305,-7090,12932.409249633263
1735580808991,95,-154,909,926.8343972900444,10026,-4347,-8851,14062.620168375452
1735580808992,161,-76,986,1001.9446092474374,10125,-4368,-10640,15323.336744978229
1735580809021,161,-76,986,1001.9446092474374,10159,-4384,-12405,16622.537772554468
1735580809051,161,-76,986,1001.9446092474374,10191,-4392,-14170,17998.195604004308
1735580809081,150,-264,974,1020.2313463131782,10204,-4402,-15912,19408.528125543162
1735580809111,150,-264,974,1020.2313463131782,10351,-4401,-17620,20903.98053003303
1735580809141,150,-264,974,1020.2313463131782,10470,-4372,16675,20169.058208057213
1735580809171,150,-264,974,1020.2313463131782,10559,-4320,14977,18827.251790954517
1735580809201,-3,-79,971,974.2130157208945,10588,-4175,13101,17354.32424498286
1735580809231,-3,-79,971,974.2130157208945,10551,-4017,11185,15892.26588627311
1735580809261,-3,-79,971,974.2130157208945,10475,-3869,9281,14520.046384223433
1735580809291,224,-141,1016,1049.91094860469,10334,-3801,7524,13336.031381186833
1735580809321,224,-141,1016,1049.91094860469,10150,-3825,5954,12373.489443160324
1735580809351,224,-141,1016,1049.91094860469,10003,-3885,4382,11591.16724061904
1735580809381,100,-154,874,893.0800636001231,9888,-3968,2815,11020.063203085543
1735580809411,100,-154,874,893.0800636001231,9888,-4037,1125,10739.438439695066
1735580809441,100,-154,874,893.0800636001231,9905,-4104,-567,10736.541808236021
1735580809471,100,-154,874,893.0800636001231,9935,-4168,-2265,11009.390264678603
1735580809501,212,-143,942,976.0927210055405,9968,-4247,-3939,11528.822749960205
1735580809531,212,-143,942,976.0927210055405,9988,-4331,-5577,12231.951356999421
1735580809561,212,-143,942,976.0927210055405,10024,-4411,-7219,13116.83871975256
1735580809591,48,-136,1005,1015.2955234807253,10137,-4453,-8980,14255.819092567077
1735580809621,48,-136,1005,1015.2955234807253,10321,-4427,-10890,15643.320299731768
1735580809651,48,-136,1005,1015.2955234807253,10460,-4364,-12790,17089.183596649666
1735580809681,171,-121,968,990.4069870512828,10531,-4283,-14648,18542.11298638858
1735580809711,171,-121,968,990.4069870512828,10441,-4260,-16307,19826.2535543153
1735580809741,171,-121,968,990.4069870512828,10362,-4254,-17966,21171.790571418376
1735580809771,59,-179,1028,1045.134441112721,10304,-4250,16359,19795.2468284687
1735580809801,59,-179,1028,1045.134441112721,10386,-4192,14538,18351.983653000567
1735580809831,59,-179,1028,1045.134441112721,10435,-4117,12724,16962.87387207722
1735580809861,59,-179,1028,1045.134441112721,10454,-4032,10919,15645.053563347106
1735580809891,139,-172,917,943.288927105582,10395,-3972,9189,14431.580994471811
1735580809921,139,-172,917,943.288927105582,10316,-3935,7489,13341.25938583011
1735580809951,139,-172,917,943.288927105582,10243,-3913,5788,12398.853253426303
1735580809981,92,-77,915,922.8315122491213,10187,-3909,4082,11649.805749453508
1735580810011,92,-77,915,922.8315122491213,10107,-3916,2316,11083.788206204592
1735580810041,92,-77,915,922.8315122491213,10045,-3940,548,10803.977462027584
1735580810071,127,-166,1081,1101.0204357776472,10003,-3976,-1225,10833.707121756615
1735580810101,127,-166,1081,1101.0204357776472,10032,-4015,-2968,11205.814249754456
1735580810131,127,-166,1081,1101.0204357776472,10065,-4048,-4714,11828.454040997918
1735580810161,127,-166,1081,1101.0204357776472,10101,-4073,-6462,12664.00307959533
1735580810191,148,-187,1049,1075.7667033330229,10117,-4098,-8190,13646.369224083013
1735580810221,148,-187,1049,1075.7667033330229,10138,-4120,-9913,14765.534633056806
1735580810251,148,-187,1049,1075.7667033330229,10161,-4138,-11636,15992.668976753068
1735580810281,216,-97,966,994.5958978399217,10129,-4152,-13325,17245.038996766576
1735580810311,216,-97,966,994.5958978399217,10024,-4193,-14960,18489.549075085633
1735580810341,216,-97,966,994.5958978399217,9948,-4253,-16598,19812.73118477107
1735580810371,217,-97,1024,1051.2249997027277,9922,-4333,17745,20787.15945000663
1735580810401,217,-97,1024,1051.2249997027277,9965,-4427,16058,19410.278668787832
1735580810431,217,-97,1024,1051.2249997027277,10025,-4511,14364,18087.958480713074
1735580810460,217,-97,1024,1051.2249997027277,10096,-4584,12663,16831.335092618174
1735580810491,48,-168,981,996.4381566359249,10331,-4591,10778,15619.607101332607
1735580810521,48,-168,981,996.4381566359249,10577,-4525,8837,14506.58895123178
1735580810551,48,-168,981,996.4381566359249,10750,-4407,6918,13521.940430278488
1735580810581,7,-233,1010,1036.5510117693195,10832,-4259,5050,12687.545270855195
1735580810611,7,-233,1010,1036.5510117693195,10883,-4083,3195,12054.816589231044
1735580810641,7,-233,1010,1036.5510117693195,10873,-3896,1358,11629.493067197727
1735580810671,85,-169,899,918.6876509456301,10824,-3713,-474,11452.948135742168
1735580810701,85,-169,899,918.6876509456301,10666,-3575,-2242,11470.429155005491
1735580810731,85,-169,899,918.6876509456301,10505,-3473,-4011,11768.809413020503
1735580810762,85,-169,899,918.6876509456301,10349,-3408,-5783,12335.288971078058
1735580810792,187,-133,906,934.6090091583753,10123,-3421,-7442,13021.58723044161
1735580810821,187,-133,906,934.6090091583753,9917,-3494,-9071,13886.611033653964
1735580810851,187,-133,906,934.6090091583753,9763,-3608,-10701,14928.001674705158
1735580810881,59,-176,899,917.9640515837208,9728,-3736,-12413,16207.228294807228
1735580810912,59,-176,899,917.9640515837208,9813,-3838,-14239,17713.6764676337
1735580810941,59,-176,899,917.9640515837208,9911,-3919,-16072,19284.596599358774
1735580810971,118,-182,974,997.8597095784557,10005,-3979,-17901,20889.668905944873
1735580811001,118,-182,974,997.8597095784557,10052,-4041,16348,19611.973103183678
1735580811031,118,-182,974,997.8597095784557,10107,-4093,14593,18217.018060044844
1735580811061,118,-182,974,997.8597095784557,10166,-4132,12835,16886.627993770693
1735580811091,138,-96,1029,1042.6413573228333,10152,-4167,11118,15621.68099149384
1735580811121,138,-96,1029,1042.6413573228333,10124,-4211,9405,14445.827148349796
1735580811151,138,-96,1029,1042.6413573228333,10113,-4260,7688,13398.720573248776
1735580811181,209,-181,956,995.1773711253688,10108,-4313,5990,12516.13890143442
1735580811211,209,-181,956,995.1773711253688,10122,-4373,4341,11849.99130801369
1735580811241,209,-181,956,995.1773711253688,10148,-4429,2687,11393.766453635953
1735580811271,171,-129,965,988.487228040909,10199,-4478,1020,11185.369238429279
1735580811301,171,-129,965,988.487228040909,10268,-4506,-710,11235.655744103235
1735580811331,171,-129,965,988.487228040909,10332,-4521,-2442,11539.19533589756
1735580811361,171,-129,965,988.487228040909,10388,-4523,-4174,12074.367436847364
1735580811391,125,-140,1050,1066.6419267964297,10458,-4490,-5943,12839.357966814385
1735580811421,125,-140,1050,1066.6419267964297,10518,-4437,-7723,13782.59852132391
1735580811451,125,-140,1050,1066.6419267964297,10551,-4372,-9496,14853.01319598148
1735580811481,133,-125,1078,1093.3425812617013,10559,-4301,-11265,16027.829141839515
1735580811511,133,-125,1078,1093.3425812617013,10537,-4231,-13025,17279.47785669463
1735580811541,133,-125,1078,1093.3425812617013,10501,-4166,-14781,18603.884486848438
1735580811571,169,-185,970,1001.8413047983198,10437,-4110,-16519,19967.484318261028
1735580811601,169,-185,970,1001.8413047983198,10365,-4077,17810,21005.98138626234
1735580811631,169,-185,970,1001.8413047983198,10299,-4058,16140,19571.314851077328
1735580811661,169,-185,970,1001.8413047983198,10240,-4052,14470,18183.982072142506
1735580811691,177,-195,1018,1051.5122443414532,10217,-4048,12777,16853.0448880907
1735580811720,177,-195,1018,1051.5122443414532,10200,-4050,11087,15600.130416121527
1735580811751,177,-195,1018,1051.5122443414532,10185,-4054,9397,14438.585457031448
1735580811781,165,-181,992,1021.7876491717836,10168,-4071,7732,13406.904527145705
1735580811811,165,-181,992,1021.7876491717836,10154,-4094,6072,12519.334487104337
1735580811841,165,-181,992,1021.7876491717836,10148,-4120,4411,11807.337760901057
1735580811871,65,-232,989,1017.9243586829033,10152,-4141,2738,11300.780017326239
1735580811900,65,-232,989,1017.9243586829033,10270,-4115,938,11103.42149969999
1735580811931,65,-232,989,1017.9243586829033,10358,-4065,-855,11159.902060502143
1735580811961,65,-232,989,1017.9243586829033,10415,-3996,-2643,11464.104413341673
1735580811991,229,-197,993,1037.930151792499,10333,-3964,-4276,11864.584316359338
1735580812021,229,-197,993,1037.930151792499,10220,-3969,-5853,12428.152316414536
1735580812051,229,-197,993,1037.930151792499,10128,-3995,-7432,13182.224129485889
1735580812081,61,-161,997,1011.7563936047056,10124,-4002,-9154,14223.46990013337
1735580812111,61,-161,997,1011.7563936047056,10184,-3966,-11036,15531.783799679932
1735580812141,61,-161,997,1011.7563936047056,10221,-3918,-12913,16928.234816424305
1735580812171,150,-139,973,994.2585176904445,10231,-3871,-14765,18375.615010115987
1735580812201,150,-139,973,994.2585176904445,10145,-3870,-16481,19736.293623677167
1735580812231,150,-139,973,994.2585176904445,10076,-3887,17800,20820.051512904574
1735580812261,150,-139,973,994.2585176904445,10024,-3918,16080,19349.359162514917
1735580812291,145,-161,928,952.9585510398655,9975,-3947,14381,17941.36547200352
1735580812321,145,-161,928,952.9585510398655,9948,-3983,12678,16599.96015055458
1735580812351,145,-161,928,952.9585510398655,9936,-4025,10972,15339.801335089056
1735580812381,78,-161,899,916.6275143153842,9963,-4075,9246,14189.97921069654
1735580812411,78,-161,899,916.6275143153842,10032,-4112,7471,13166.829876625581
1735580812441,78,-161,899,916.6275143153842,10098,-4134,5694,12307.76974110257
1735580812471,158,-145,1000,1022.7360363260893,10167,-4144,3911,11654.89365030844
1735580812501,158,-145,1000,1022.7360363260893,10178,-4164,2205,11215.730248182683
1735580812531,158,-145,1000,1022.7360363260893,10192,-4181,497,11027.449115729349
1735580812561,158,-145,1000,1022.7360363260893,10208,-4195,-1210,11102.494719656479
1735580812591,181,-73,1021,1039.4859306407182,10162,-4213,-2903,11377.302931714528
1735580812621,181,-73,1021,1039.4859306407182,10107,-4246,-4591,11885.169161606409
1735580812651,181,-73,1021,1039.4859306407182,10070,-4290,-6282,12620.321865943039
1735580812681,91,-136,1010,1023.1700738391443,10119,-4310,-8071,13642.26161602247
1735580812711,91,-136,1010,1023.1700738391443,10246,-4281,-9957,14914.735197112954
1735580812741,91,-136,1010,1023.1700738391443,10340,-4226,-11834,16273.236678669675
1735580812771,141,-97,921,936.7662461895177,10380,-4166,-13668,17661.092265202624
1735580812800,141,-97,921,936.7662461895177,10302,-4151,-15373,18965.524880688117
1735580812831,141,-97,921,936.7662461895177,10235,-4151,-17080,20339.92197625153
1735580812861,141,-97,921,936.7662461895177,10181,-4165,17211,20425.927322890384
1735580812891,-71,-187,970,990.4090064210847,10257,-4105,15340,18904.30305512478
1735580812921,-71,-187,970,990.4090064210847,10361,-3999,13404,17407.169155264735
1735580812951,-71,-187,970,990.4090064210847,10412,-3872,11482,15976.18389979284
1735580812981,39,-72,979,982.4184444522609,10380,-3773,9622,14647.962759373742
1735580813011,39,-72,979,982.4184444522609,10242,-3733,7846,13431.06730680775
1735580813041,39,-72,979,982.4184444522609,10120,-3723,6067,12372.696472475189
1735580813071,286,-72,1060,1100.2636047784185,10032,-3746,4275,11530.358407265578
1735580813101,286,-72,1060,1100.2636047784185,9845,-3859,2720,10918.530395616435
1735580813161,286,-72,1060,1100.2636047784185,9714,-4005,1163,10571.39489376875
1735580813161,286,-72,1060,1100.2636047784185,9636,-4175,-397,10509.07845626818
1735580813191,121,-199,1078,1102.8717060474441,9751,-4293,-2133,10865.612684059744
1735580813222,121,-199,1078,1102.8717060474441,9947,-4363,-3943,11555.337597837633
1735580813251,121,-199,1078,1102.8717060474441,10126,-4392,-5756,12448.175609301148
1735580813281,51,-174,1003,1019.2575729421882,10262,-4392,-7539,13469.77464547941
1735580813311,51,-174,1003,1019.2575729421882,10379,-4361,-9342,14629.248989609821
1735580813341,51,-174,1003,1019.2575729421882,10464,-4307,-11138,15877.675805986215
1735580813371,116,-156,1008,1026.5748876725945,10529,-4227,-12955,17220.89994744758
1735580813401,116,-156,1008,1026.5748876725945,10523,-4141,-14748,18584.534269117426
1735580813431,116,-156,1008,1026.5748876725945,10495,-4056,-16535,20000.059649911047
1735580813461,281,-133,1016,1062.4998823529347,10439,-3983,17699,20930.63809347436
1735580813491,281,-133,1016,1062.4998823529347,10236,-3988,16148,19530.43122923813
1735580813520,281,-133,1016,1062.4998823529347,10070,-4031,14593,18182.67059592732
1735580813551,281,-133,1016,1062.4998823529347,9942,-4104,13035,16899.627362755666
1735580813581,73,-175,960,978.5468818610583,9918,-4181,11389,15670.2522634449
1735580813611,73,-175,960,978.5468818610583,10030,-4219,9579,14496.83075709998
1735580813641,73,-175,960,978.5468818610583,10132,-4232,7767,13449.666798846729
1735580813671,104,-129,904,919.0609337796923,10221,-4224,5958,12562.196503796618
1735580813701,104,-129,904,919.0609337796923,10238,-4212,4186,11835.547473606786
1735580813731,104,-129,904,919.0609337796923,10249,-4197,2415,11335.300393020028
1735580813761,68,-158,952,967.4151125551017,10259,-4178,636,11095.371151971438
1735580813791,68,-158,952,967.4151125551017,10315,-4139,-1196,11178.593918735934
1735580813821,68,-158,952,967.4151125551017,10349,-4088,-3023,11530.484551830421
1735580813851,68,-158,952,967.4151125551017,10362,-4030,-4846,12128.299963308955
1735580813881,101,-118,982,994.2077247738523,10323,-3992,-6622,12897.723713896185
1735580813911,101,-118,982,994.2077247738523,10266,-3969,-8385,13836.615988022504
1735580813941,101,-118,982,994.2077247738523,10213,-3958,-10149,14932.291652656668
1735580813971,52,-188,1003,1021.7910745352985,10158,-3951,-11914,16147.40725317845
1735580814001,52,-188,1003,1021.7910745352985,10177,-3918,-13735,17537.73867977283
1735580814032,52,-188,1003,1021.7910745352985,10183,-3882,-15552,18990.211083608312
1735580814061,221,-137,906,942.5741350153844,10167,-3862,-17335,20464.240958315557
1735580814091,221,-137,906,942.5741350153844,9989,-3929,17125,20210.957102522385
1735580814121,221,-137,906,942.5741350153844,9855,-4029,15584,18873.65682638105
1735580814151,221,-137,906,942.5741350153844,9765,-4152,14040,17598.7479384188
1735580814181,102,-150,997,1013.3671595231415,9893,-4212,12198,16260.491905228451
1735580814211,102,-150,997,1013.3671595231415,10043,-4230,10308,15000.320429910822
1735580814241,102,-150,997,1013.3671595231415,10168,-4216,8420,13858.5453782134
1735580814271,213,-123,1002,1031.7470620263475,10202,-4225,6665,12897.815861610057
1735580814301,213,-123,1002,1031.7470620263475,10159,-4274,5035,12117.078113142623
1735580814331,213,-123,1002,1031.7470620263475,10135,-4331,3401,11534.408827503905
1735580814362,129,-162,968,989.9035306533663,10127,-4384,1756,11174.037810925825
1735580814391,129,-162,968,989.9035306533663,10221,-4395,-2,11125.864910199116
1735580814421,129,-162,968,989.9035306533663,10299,-4386,-1760,11331.548746751258
1735580814451,129,-162,968,989.9035306533663,10361,-4363,-3514,11778.551948350867
1735580814481,228,-138,993,1028.1424998510663,10351,-4376,-5171,12370.602976411457
1735580814511,228,-138,993,1028.1424998510663,10320,-4404,-6793,13116.495911637376
1735580814541,228,-138,993,1028.1424998510663,10300,-4438,-8417,14022.543742131811
1735580814571,126,-88,1019,1030.5246236747573,10325,-4458,-10093,15111.189165648082
1735580814601,126,-88,1019,1030.5246236747573,10381,-4451,-11854,16373.572548469683
1735580814631,126,-88,1019,1030.5246236747573,10424,-4432,-13612,17708.442732211097
1735580814661,71,-234,1041,1069.3353075625998,10445,-4405,-15368,19096.530417853395
1735580814691,71,-234,1041,1069.3353075625998,10594,-4340,-17182,20646.780862885138
1735580814721,71,-234,1041,1069.3353075625998,10695,-4245,17015,20540.527622239893
1735580814751,71,-234,1041,1069.3353075625998,10748,-4130,15227,19090.25754147911
1735580814781,178,-98,958,979.3120033983041,10646,-4044,13548,17698.574970883954
1735580814811,178,-98,958,979.3120033983041,10490,-4001,11907,16365.352119645944
1735580814841,178,-98,958,979.3120033983041,10352,-3987,10263,15112.552464755912
1735580814871,140,-188,969,996.947842166279,10274,-3999,8601,13982.999606665231
1735580814901,140,-188,969,996.947842166279,10276,-4010,6908,13015.250285722515
1735580814931,140,-188,969,996.947842166279,10281,-4020,5215,12208.832294695509
1735580814961,285,-141,1102,1146.9568431288076,10297,-4029,3511,11601.21420369437
1735580814991,285,-141,1102,1146.9568431288076,10199,-4080,1946,11155.846763020725
1735580815021,285,-141,1102,1146.9568431288076,10129,-4150,378,10952.717699274459
1735580815051,285,-141,1102,1146.9568431288076,10087,-4232,-1194,11003.773398248439
1735580815081,131,-179,1055,1078.0663244902885,10175,-4263,-2935,11415.691788060853
1735580815111,131,-179,1055,1078.0663244902885,10298,-4257,-4734,12107.089204263757
1735580815141,131,-179,1055,1078.0663244902885,10395,-4226,-6528,12981.906061900156
1735580815171,7,-190,924,943.3583624476968,10463,-4166,-8335,14010.786915801697
1735580815201,7,-190,924,943.3583624476968,10541,-4064,-10208,15226.031689182839
1735580815231,7,-190,924,943.3583624476968,10573,-3947,-12069,16523.555882436445
1735580815261,99,-128,950,963.683039178339,10566,-3825,-13920,17889.5886202003
1735580815291,99,-128,950,963.683039178339,10429,-3749,-15677,19198.629404204876
1735580815321,99,-128,950,963.683039178339,10299,-3702,-17434,20584.425204508385
1735580815351,99,-128,950,963.683039178339,10182,-3685,16806,19992.348161234087
1735580815381,191,-136,1002,1029.0680249623929,10093,-3705,15037,18485.31966182895
1735580815411,191,-136,1002,1029.0680249623929,10011,-3755,13298,17063.321775082364
1735580815441,191,-136,1002,1029.0680249623929,9957,-3820,11556,15724.992368837577
1735580815471,132,-219,995,1027.3314946987657,9903,-3892,9860,14506.4355718419
1735580815501,132,-219,995,1027.3314946987657,9913,-3958,8154,13432.090269202334
1735580815531,132,-219,995,1027.3314946987657,9939,-4021,6444,12509.088615882454
1735580815561,7,-174,884,900.9889011525058,9989,-4070,4717,11772.642439146786
1735580815591,7,-174,884,900.9889011525058,10109,-4060,2828,11254.912927250925
1735580815621,7,-174,884,900.9889011525058,10202,-4025,943,11007.755357019885
1735580815651,7,-174,884,900.9889011525058,10266,-3969,-934,11046.088583747642
1735580815681,132,-58,949,959.8900978757932,10174,-3975,-2647,11239.106281195138
1735580815711,132,-58,949,959.8900978757932,10048,-4020,-4319,11652.315864239177
1735580815741,132,-58,949,959.8900978757932,9956,-4090,-5994,12319.824349397195
1735580815771,216,-137,1002,1034.132003179478,9919,-4183,-7660,13212.102406505937
1735580815801,216,-137,1002,1034.132003179478,9924,-4290,-9277,14246.143513245963
1735580815831,216,-137,1002,1034.132003179478,9953,-4394,-10901,15401.339097623946
1735580815861,152,-174,946,973.8049085930919,10018,-4485,-12559,16679.449331437772
1735580815891,152,-174,946,973.8049085930919,10198,-4521,-14350,18175.839595462985
1735580815921,152,-174,946,973.8049085930919,10355,-4521,-16141,19702.72435476881
1735580815951,152,-174,946,973.8049085930919,10482,-4490,-17927,21246.40564895625
1735580815981,177,-200,961,997.4216761229926,10532,-4454,16368,19966.78652162135
1735580816011,177,-200,961,997.4216761229926,10565,-4410,14678,18614.806176804526
1735580816041,177,-200,961,997.4216761229926,10580,-4360,12992,17312.944983450965
1735580816071,218,-147,912,949.1454050881772,10548,-4310,11342,16077.231353687735
1735580816101,218,-147,912,949.1454050881772,10461,-4281,9730,14914.167157437923
1735580816131,218,-147,912,949.1454050881772,10384,-4268,8118,13854.429039119585
1735580816161,147,-194,1000,1029.196288372631,10318,-4265,6495,12916.51555180421
1735580816191,147,-194,1000,1029.196288372631,10351,-4240,4773,12161.510185828074
1735580816221,147,-194,1000,1029.196288372631,10370,-4209,3053,11600.577140815021
1735580816251,147,-194,1000,1029.196288372631,10378,-4174,1337,11265.55497967144
1735580816281,262,-220,1007,1063.5285609705081,10358,-4183,-280,11174.25849888931
1735580816311,262,-220,1007,1063.5285609705081,10328,-4208,-1856,11305.73235133399
1735580816341,262,-220,1007,1063.5285609705081,10308,-4239,-3434,11662.604383241334
1735580816371,155,-126,1008,1027.601576487697,10296,-4238,-5078,12237.415740261504
1735580816401,155,-126,1008,1027.601576487697,10280,-4212,-6814,13032.649001641992
1735580816431,155,-126,1008,1027.601576487697,10260,-4189,-8548,13995.843132873417
1735580816461,101,-129,972,985.7109109673079,10241,-4176,-10285,15102.922962128887
1735580816491,101,-129,972,985.7109109673079,10267,-4162,-12087,16396.008721637103
1735580816521,101,-129,972,985.7109109673079,10284,-4142,-13887,17769.794286935343
1735580816551,101,-129,972,985.7109109673079,10292,-4118,-15685,19206.832456186003
1735580816581,149,-154,1046,1067.7232787571882,10302,-4099,-17463,20685.48703801774
1735580816611,149,-154,1046,1067.7232787571882,10302,-4081,16776,20105.221734663857
1735580816641,149,-154,1046,1067.7232787571882,10298,-4064,15018,18657.57819225207
1735580816671,135,-188,895,924.4425347202497,10272,-4046,13287,17275.082315288688
1735580816701,135,-188,895,924.4425347202497,10255,-4028,11562,15970.900193789954
1735580816731,135,-188,895,924.4425347202497,10237,-4014,9838,14754.477591565214
1735580816761,121,-160,938,959.2106129521295,10233,-4002,8103,13652.432091023196
1735580816791,121,-160,938,959.2106129521295,10238,-3982,6328,12677.403204126624
1735580816821,121,-160,938,959.2106129521295,10236,-3961,4555,11883.317802701398
1735580816851,121,-160,938,959.2106129521295,10229,-3941,2784,11309.932714211875
1735580816881,257,-154,996,1040.0870155905227,10132,-3980,1155,10946.773451570101
1735580816911,257,-154,996,1040.0870155905227,10034,-4051,-426,10829.27666097787
1735580816941,257,-154,996,1040.0870155905227,9968,-4141,-2012,10979.847403311214
1735580816972,157,-80,976,991.7787051555403,9945,-4220,-3658,11405.805057075104
1735580817001,157,-80,976,991.7787051555403,9953,-4282,-5395,12103.873677463756
1735580817032,157,-80,976,991.7787051555403,9976,-4342,-7137,13011.929487973719
1735580817061,108,-164,1044,1062.3069236336548,10017,-4402,-8889,14097.241361344424
1735580817091,108,-164,1044,1062.3069236336548,10182,-4443,-10713,15433.137788538013
1735580817121,108,-164,1044,1062.3069236336548,10328,-4449,-12538,16842.286929036687
1735580817151,108,-164,1044,1062.3069236336548,10447,-4425,-14359,18300.309150394154
1735580817181,255,-171,925,974.6235170567146,10390,-4412,-16005,19585.14408933465
1735580817211,255,-171,925,974.6235170567146,10311,-4426,-17597,20870.088787544722
1735580817241,255,-171,925,974.6235170567146,10248,-4454,16808,20183.37147257613
1735580817271,85,-143,954,968.3955803286176,10275,-4478,15130,18829.36560269623
1735580817301,85,-143,954,968.3955803286176,10383,-4460,13314,17463.129301474008
1735580817331,85,-143,954,968.3955803286176,10464,-4420,11504,16167.05638018251
1735580817361,13,-166,993,1006.8634465507226,10520,-4362,9699,14958.87846731833
1735580817391,13,-166,993,1006.8634465507226,10618,-4260,7823,13859.612296164709
1735580817421,13,-166,993,1006.8634465507226,10665,-4139,5962,12900.34844490644
1735580817451,13,-166,993,1006.8634465507226,10667,-4008,4114,12115.029880276812
1735580817481,216,-66,899,926.9374304665877,10442,-3953,2478,11436.872693179723
1735580817511,216,-66,899,926.9374304665877,10184,-3972,908,10968.824184934318
1735580817541,216,-66,899,926.9374304665877,9975,-4039,-665,10782.224770426556
1735580817571,94,-122,933,945.6262475206576,9913,-4117,-2350,10988.164450898976
1735580817601,94,-122,933,945.6262475206576,9984,-4166,-4161,11590.933223860795
1735580817631,94,-122,933,945.6262475206576,10055,-4200,-5974,12427.055202259302
1735580817661,166,-201,1029,1061.5074187211317,10119,-4222,-7791,13450.618052714157
1735580817691,166,-201,1029,1061.5074187211317,10186,-4248,-9532,14582.836623921972
1735580817721,166,-201,1029,1061.5074187211317,10248,-4261,-11274,15820.262355599543
1735580817751,145,-187,937,966.4176115944907,10293,-4265,-12997,17118.939307094934
1735580817781,145,-187,937,966.4176115944907,10320,-4265,-14707,18465.873226035103
1735580817811,145,-187,937,966.4176115944907,10342,-4259,-16417,19864.891995679212
1735580817841,145,-187,937,966.4176115944907,10358,-4250,17873,21090.15867650123
1735580817871,157,-208,1032,1064.3951333973675,10405,-4219,16122,19646.446752530086
1735580817901,157,-208,1032,1064.3951333973675,10438,-4179,14380,18253.77454117367
1735580817931,157,-208,1032,1064.3951333973675,10454,-4133,12642,16917.09103244408
1735580817961,126,-92,979,991.3531156959159,10452,-4085,10912,15652.58039429921
1735580817991,126,-92,979,991.3531156959159,10360,-4047,9161,14409.431980477231
1735580818021,126,-92,979,991.3531156959159,10275,-4029,7410,13293.478325855878
1735580818051,151,-76,907,922.6190980030708,10196,-4032,5670,12343.595100293916
1735580818081,151,-76,907,922.6190980030708,10096,-4069,3979,11589.582304811507
1735580818111,151,-76,907,922.6190980030708,10022,-4126,2284,11076.146261222808
1735580818141,151,-76,907,922.6190980030708,9976,-4196,584,10838.267758272075
1735580818170,147,-97,946,962.2546440521864,9999,-4259,-1154,10929.354875746327
1735580818201,147,-97,946,962.2546440521864,10040,-4315,-2900,11306.229477593315
1735580818231,147,-97,946,962.2546440521864,10089,-4362,-4650,11934.716795969647
1735580818261,108,-184,968,991.2335748954431,10187,-4390,-6418,12815.529368699523
1735580818291,108,-184,968,991.2335748954431,10340,-4379,-8216,13913.802391869736
1735580818321,108,-184,968,991.2335748954431,10461,-4337,-10008,15112.979653264938
1735580818351,211,-63,951,976.1613596122313,10528,-4279,-11764,16356.65983628687
1735580818381,211,-63,951,976.1613596122313,10370,-4278,-13350,17437.335920374993
1735580818411,211,-63,951,976.1613596122313,10240,-4305,-14939,18616.23877156715
1735580818441,211,-63,951,976.1613596122313,10139,-4356,-16531,19875.81490153297
1735580818471,94,-168,984,1002.6544768762567,10227,-4382,17701,20907.387546032624
1735580818501,94,-168,984,1002.6544768762567,10357,-4371,15890,19464.459663705027
1735580818531,94,-168,984,1002.6544768762567,10458,-4334,14084,18069.653455448446
1735580818561,209,-156,935,970.6915060924351,10483,-4288,12330,16742.43509767919
1735580818591,209,-156,935,970.6915060924351,10429,-4265,10666,15515.083692974395
1735580818621,209,-156,935,970.6915060924351,10379,-4253,9001,14381.57331448823
1735580818651,136,-85,1057,1069.0977504419322,10366,-4241,7297,13367.357480070621
1735580818681,136,-85,1057,1069.0977504419322,10397,-4191,5437,12458.854642381859
1735580818711,136,-85,1057,1069.0977504419322,10406,-4136,3582,11756.787656498691
1735580818741,136,-85,1057,1069.0977504419322,10398,-4079,1733,11303.094001201618
1735580818771,123,-100,1027,1039.1621625136281,10342,-4037,-61,11102.164383578545
1735580818801,123,-100,1027,1039.1621625136281,10291,-4006,-1859,11198.598037254485
1735580818830,123,-100,1027,1039.1621625136281,10242,-3985,-3657,11582.419350032185
1735580818861,106,-159,940,959.2272931896798,10168,-3969,-5414,12184.111826473032
1735580818891,106,-159,940,959.2272931896798,10117,-3960,-7161,13012.117813791881
1735580818921,106,-159,940,959.2272931896798,10074,-3962,-8909,14019.743257278287
1735580818951,249,-83,914,950.9395354069574,10046,-3983,-10648,15171.232942645103
1735580818981,249,-83,914,950.9395354069574,9889,-4074,-12212,16233.383535172205
1735580819011,249,-83,914,950.9395354069574,9779,-4193,-13781,17410.515529414974
1735580819041,249,-83,914,950.9395354069574,9713,-4331,-15354,18677.399337166833
1735580819071,158,-109,941,960.3780505613402,9794,-4424,-17087,20185.633034413364
1735580819101,158,-109,941,960.3780505613402,9914,-4489,17136,20299.77864411334
1735580819131,158,-109,941,960.3780505613402,10030,-4529,15354,18890.68704414956
1735580819161,165,-131,884,908.7584937704846,10138,-4572,13599,17567.44230102948
1735580819191,165,-131,884,908.7584937704846,10248,-4606,11860,16336.96238595168
1735580819221,165,-131,884,908.7584937704846,10347,-4620,10120,15192.735402158494
1735580819251,130,-184,903,930.679859027797,10430,-4615,8389,14158.334859721323
1735580819281,130,-184,903,930.679859027797,10565,-4578,6640,13291.610474280384
1735580819311,130,-184,903,930.679859027797,10663,-4514,4900,12573.21617566484
1735580819341,130,-184,903,930.679859027797,10724,-4432,3170,12028.95257285521
1735580819371,133,-168,987,1009.9910890696017,10747,-4311,1406,11664.457381292968
1735580819401,133,-168,987,1009.9910890696017,10727,-4186,-344,11519.959244719576
1735580819431,133,-168,987,1009.9910890696017,10678,-4065,-2087,11614.623454938175
1735580819461,141,-129,945,964.1301779324201,10572,-3970,-3792,11912.487061902733
1735580819491,141,-129,945,964.1301779324201,10431,-3911,-5478,12414.111567083646
1735580819521,141,-129,945,964.1301779324201,10302,-3881,-7164,13134.544567665831
1735580819550,177,-95,902,924.098479600524,10187,-3876,-8854,14042.494828199155
1735580819581,177,-95,902,924.098479600524,10035,-3910,-10508,15046.839834330662
1735580819611,177,-95,902,924.098479600524,9918,-3973,-12166,16191.448638092887
1735580819641,177,-95,902,924.098479600524,9838,-4058,-13827,17448.195809309338
1735580819671,111,-180,937,960.5675405717185,9904,-4133,-15572,18911.850491160298
1735580819701,111,-180,937,960.5675405717185,10012,-4180,-17345,20458.777309507037
1735580819731,111,-180,937,960.5675405717185,10114,-4205,16879,20121.52235791318
1735580819761,211,-154,981,1015.1837272139462,10155,-4234,15171,18740.59822951231
1735580819791,211,-154,981,1015.1837272139462,10133,-4287,13551,17455.247319932194
1735580819821,211,-154,981,1015.1837272139462,10127,-4343,11927,16237.952672673979
1735580819851,286,-138,1023,1071.1531169725456,10142,-4390,10283,15095.441464230187
1735580819881,286,-138,1023,1071.1531169725456,10105,-4436,8689,14045.919051454055
1735580819911,286,-138,1023,1071.1531169725456,10086,-4488,7091,13120.663893263938
1735580819941,286,-138,1023,1071.1531169725456,10082,-4544,5490,12346.447262269417
1735580819971,67,-172,942,959.9151004125313,10213,-4556,3733,11789.732566941457
1735580820001,67,-172,942,959.9151004125313,10381,-4515,1894,11477.701076435123
1735580820031,67,-172,942,959.9151004125313,10504,-4441,67,11404.428350425987
1735580820061,148,-128,1001,1019.9455867839225,10575,-4342,-1751,11565.015780361045
1735580820091,148,-128,1001,1019.9455867839225,10559,-4248,-3518,11912.779230725297
1735580820121,148,-128,1001,1019.9455867839225,10521,-4157,-5277,12482.740844862557
1735580820151,141,-13,1059,1068.4245410884196,10459,-4076,-7029,13244.293035115163
1735580820181,141,-13,1059,1068.4245410884196,10290,-4025,-8783,14114.737475419088
1735580820211,141,-13,1059,1068.4245410884196,10141,-4010,-10539,15165.43774508339
1735580820241,141,-13,1059,1068.4245410884196,10016,-4026,-12297,16362.919696680052
1735580820271,80,-158,879,896.6632589774157,10007,-4021,-14108,17757.93214312973
1735580820301,80,-158,879,896.6632589774157,10045,-4001,-15940,19261.194822751782
1735580820331,80,-158,879,896.6632589774157,10070,-3974,-17769,20807.088623832024
1735580820361,156,-124,942,962.847859217644,10087,-3961,16440,19690.370489150275
1735580820391,156,-124,942,962.847859217644,10065,-3968,14711,18260.96300856009
1735580820421,156,-124,942,962.847859217644,10048,-3979,12980,16890.090141855373
1735580820451,106,-44,998,1004.577523140947,10056,-3982,11216,15581.338710136559
1735580820481,106,-44,998,1004.577523140947,10061,-3956,9331,14280.798927230928
1735580820511,106,-44,998,1004.577523140947,10057,-3929,7449,13117.46511335174
1735580820541,106,-44,998,1004.577523140947,10046,-3904,5569,12131.65664697118
1735580820571,272,-75,1049,1086.2826519833593,9913,-3942,3916,11364.065689708063
1735580820601,272,-75,1049,1086.2826519833593,9787,-4020,2320,10831.812821499456
1735580820632,272,-75,1049,1086.2826519833593,9700,-4121,722,10563.802582403743
1735580820661,188,-128,1010,1035.2912633650494,9687,-4203,-929,10600.29334499758
1735580820692,188,-128,1010,1035.2912633650494,9760,-4254,-2659,10973.805037451686
1735580820722,188,-128,1010,1035.2912633650494,9833,-4290,-4391,11591.931245482781
1735580820751,132,-122,992,1008.1527662016308,9904,-4321,-6117,12416.841224723783
1735580820781,132,-122,992,1008.1527662016308,10012,-4346,-7890,13467.737746184397
1735580820811,132,-122,992,1008.1527662016308,10107,-4349,-9664,14644.389574167986
1735580820841,132,-122,992,1008.1527662016308,10185,-4332,-11435,15914.13440938589
1735580820871,38,-88,929,933.9320103733462,10235,-4285,-13226,17263.937152341583
1735580820901,38,-88,929,933.9320103733462,10274,-4220,-15046,18701.48635804117
1735580820931,38,-88,929,933.9320103733462,10286,-4147,-16858,20178.988304669787
1735580820961,34,-143,922,933.6428653398472,10290,-4079,17339,20570.932453342994
1735580820991,34,-143,922,933.6428653398472,10303,-4009,15542,19072.95608970985
1735580821021,34,-143,922,933.6428653398472,10295,-3936,13750,17622.191152067327
1735580821051,214,-84,968,994.9251228107571,10273,-3877,11968,16241.88049457328
1735580821081,214,-84,968,994.9251228107571,10096,-3902,10387,15001.486226371038
1735580821111,214,-84,968,994.9251228107571,9956,-3960,8803,13867.095766597993
1735580821141,214,-84,968,994.9251228107571,9853,-4045,7217,12865.796632933383
1735580821171,42,-191,1005,1023.8505750352441,9926,-4060,5402,12007.94237161388
1735580821201,42,-191,1005,1023.8505750352441,10049,-4035,3527,11388.738077592267
1735580821231,42,-191,1005,1023.8505750352441,10141,-3983,1658,11020.57775255
1735580821261,97,-115,947,958.8759043797065,10151,-3950,-112,10893.018176795631
1735580821291,97,-115,947,958.8759043797065,10087,-3952,-1809,10983.549244210635
1735580821321,97,-115,947,958.8759043797065,10035,-3966,-3507,11345.899259203741
1735580821351,125,-169,938,961.2647918237722,9982,-3987,-5202,11941.4110137789
1735580821381,125,-169,938,961.2647918237722,9943,-4013,-6860,12728.983384386987
1735580821411,125,-169,938,961.2647918237722,9917,-4046,-8521,13686.65211072452
1735580821441,125,-169,938,961.2647918237722,9904,-4084,-10183,14780.451989029294
1735580821471,18,-156,1008,1020.1588111661831,10036,-4083,-12018,16180.992213087553
1735580821501,18,-156,1008,1020.1588111661831,10159,-4044,-13888,17675.852482978014
1735580821531,18,-156,1008,1020.1588111661831,10245,-3978,-15750,19205.390102781043
1735580821561,48,-85,937,942.0711225804557,10226,-3918,-17547,20683.78613793906
1735580821591,48,-85,937,942.0711225804557,10129,-3888,16701,19915.737144278643
1735580821621,48,-85,937,942.0711225804557,10043,-3880,14949,18422.50932962174
1735580821651,137,-170,886,912.5047945079522,9983,-3891,13189,16992.642260696244
1735580821681,137,-170,886,912.5047945079522,9974,-3924,11509,15726.904749504907
1735580821711,137,-170,886,912.5047945079522,9976,-3959,9827,14552.11963942023
1735580821741,211,-151,920,955.8880687611913,9979,-3989,8138,13480.341464517878
1735580821771,211,-151,920,955.8880687611913,9915,-4029,6516,12529.897126473146
1735580821801,211,-151,920,955.8880687611913,9872,-4081,4891,11748.737208738648
1735580821831,211,-151,920,955.8880687611913,9848,-4141,3263,11170.41422687628
1735580821861,34,-204,1015,1035.8556849291315,10034,-4165,1443,10959.499532369167
1735580821891,34,-204,1015,1035.8556849291315,10239,-4127,-438,11048.12626647614
1735580821921,34,-204,1015,1035.8556849291315,10392,-4044,-2309,11387.672325809168
1735580821951,147,-145,1003,1024.0327143211782,10478,-3926,-4169,11940.792310395487
1735580821981,147,-145,1003,1024.0327143211782,10380,-3829,-5909,12542.803594093308
1735580822012,147,-145,1003,1024.0327143211782,10277,-3752,-7647,13348.06510322751
1735580822041,162,-152,993,1017.5445936174001,10172,-3705,-9374,14320.212463507656
1735580822072,162,-152,993,1017.5445936174001,10070,-3697,-11063,15409.82407427158
1735580822102,162,-152,993,1017.5445936174001,9985,-3711,-12754,16617.348224069927
1735580822132,162,-152,993,1017.5445936174001,9919,-3742,-14446,17918.59483888176
1735580822161,200,-143,1038,1066.7206757160002,9830,-3789,-16095,19236.279421967232
1735580822191,200,-143,1038,1066.7206757160002,9758,-3858,-17732,20604.04212769912
1735580822221,200,-143,1038,1066.7206757160002,9715,-3940,16626,19655.24614447756
1735580822251,222,-50,965,991.468103369947,9659,-4033,15006,18295.939604185405
1735580822281,222,-50,965,991.468103369947,9573,-4150,13407,16988.598470739133
1735580822311,222,-50,965,991.468103369947,9527,-4280,11802,15759.737719898767
1735580822341,-61,-209,1026,1048.8460325519661,9530,-4412,10179,14625.275552959678
1735580822371,-61,-209,1026,1048.8460325519661,9928,-4449,8189,13616.846404362503
1735580822401,-61,-209,1026,1048.8460325519661,10258,-4397,6207,12770.552924599624
1735580822431,-61,-209,1026,1048.8460325519661,10503,-4274,4249,12109.25621167543
1735580822462,123,-81,876,888.2938702929341,10492,-4170,2493,11562.26677602623
1735580822491,123,-81,876,888.2938702929341,10391,-4100,809,11199.882231523687
1735580822521,123,-81,876,888.2938702929341,10291,-4050,-874,11093.73954084014
1735580822551,138,-147,1057,1076.0585485929657,10230,-3991,-2628,11291.030289570566
1735580822581,138,-147,1057,1076.0585485929657,10198,-3926,-4406,11782.42402903579
1735580822611,138,-147,1057,1076.0585485929657,10155,-3868,-6181,12501.60829653529
1735580822641,201,-249,1020,1069.019176628745,10093,-3825,-7928,13392.253656498595
1735580822671,201,-249,1020,1069.019176628745,10058,-3810,-9556,14387.376411284999
1735580822701,201,-249,1020,1069.019176628745,10026,-3802,-11184,15493.796694161183
1735580822731,201,-249,1020,1069.019176628745,9998,-3801,-12812,16689.965518238794
1735580822761,58,-47,990,992.8106566712507,9938,-3794,-14543,18018.24433733764
1735580822791,58,-47,990,992.8106566712507,9862,-3800,-16325,19447.48490165245
1735580822821,58,-47,990,992.8106566712507,9803,-3822,17889,20753.86262843618
1735580822851,83,-96,842,851.5098355274588,9759,-3862,16098,19217.146744509188
1735580822881,83,-96,842,851.5098355274588,9744,-3912,14316,17753.792158296772
1735580822912,83,-96,842,851.5098355274588,9746,-3965,12530,16361.74321397326
1735580822942,224,-146,975,1010.9980217586976,9757,-4024,10769,15078.560475058619
1735580822971,224,-146,975,1010.9980217586976,9724,-4122,9219,14019.166202024997
1735580823002,224,-146,975,1010.9980217586976,9717,-4225,7665,13077.57389579581
1735580823031,224,-146,975,1010.9980217586976,9735,-4328,6106,12279.45621760182
1735580823060,166,-146,958,983.1764846659016,9824,-4377,4409,11623.613293636365
1735580823091,166,-146,958,983.1764846659016,9924,-4402,2687,11184.066746939594
1735580823121,166,-146,958,983.1764846659016,10011,-4408,965,10980.97491118161
1735580823151,174,-17,1052,1066.428150416145,10065,-4404,-752,11012.036369355124
1735580823180,174,-17,1052,1066.428150416145,10047,-4405,-2465,11243.774232881056
1735580823211,174,-17,1052,1066.428150416145,10032,-4409,-4179,11727.930166913513
1735580823242,27,2,1049,1049.3493221992378,10017,-4414,-5883,12427.122514886541
1735580823271,27,2,1049,1049.3493221992378,10088,-4382,-7737,13447.33568406768
1735580823301,27,2,1049,1049.3493221992378,10136,-4335,-9585,14608.317699173987
1735580823332,27,2,1049,1049.3493221992378,10161,-4279,-11427,15878.667796764312
1735580823361,46,-106,980,986.788731188191,10221,-4220,-13292,17290.300893853757
1735580823392,46,-106,980,986.788731188191,10275,-4144,-15141,18761.6161883778
1735580823420,46,-106,980,986.788731188191,10296,-4057,-16981,20268.725317592125
1735580823451,191,12,901,921.1004288349886,10201,-3974,17247,20428.217886051636
1735580823481,191,12,901,921.1004288349886,9977,-3951,15585,18922.028300369915
1735580823511,191,12,901,921.1004288349886,9789,-3972,13918,17473.180277213418
1735580823541,214,-122,922,954.3395622104325,9642,-4045,12277,16126.218341570351
1735580823571,214,-122,922,954.3395622104325,9637,-4164,10717,15002.158311389732
1735580823601,214,-122,922,954.3395622104325,9659,-4282,9151,13977.575111584985
1735580823631,214,-122,922,954.3395622104325,9705,-4395,7578,13073.98692059924
1735580823662,41,-152,1109,1120.118743705327,9944,-4432,5756,12314.921680627936
1735580823691,41,-152,1109,1120.118743705327,10194,-4399,3872,11758.453172080075
1735580823721,41,-152,1109,1120.118743705327,10384,-4314,2001,11421.123105894621
1735580823751,171,-5,1016,1030.3018975038335,10383,-4219,227,11209.735902330616
1735580823781,171,-5,1016,1030.3018975038335,10205,-4177,-1432,11119.35150986783
1735580823810,171,-5,1016,1030.3018975038335,10050,-4171,-3095,11312.770040975818
1735580823841,89,-101,1021,1029.836394773461,9931,-4193,-4758,11783.232748274135
1735580823871,89,-101,1021,1029.836394773461,9987,-4204,-6510,12640.960604321177
1735580823901,89,-101,1021,1029.836394773461,10035,-4203,-8261,13660.54739020366
1735580823931,89,-101,1021,1029.836394773461,10074,-4192,-10011,14808.053923456653
1735580823961,289,-109,950,998.9504492215817,10000,-4218,-11596,15882.65531956165
1735580823991,289,-109,950,998.9504492215817,9903,-4276,-13108,16975.666378672737
1735580824021,289,-109,950,998.9504492215817,9835,-4350,-14623,18151.63502277412
1735580824051,58,-43,977,979.6642281924966,9839,-4405,-16242,19493.909561706703
1735580824082,58,-43,977,979.6642281924966,9931,-4415,17948,20982.080211456632
1735580824111,58,-43,977,979.6642281924966,10008,-4406,16140,19495.448186692196
1735580824141,124,-123,936,952.1559746176043,10075,-4385,14327,18055.380887702147
1735580824171,124,-123,936,952.1559746176043,10156,-4367,12573,16742.023593341397
1735580824201,124,-123,936,952.1559746176043,10215,-4332,10823,15499.992838708024
1735580824261,124,-123,936,952.1559746176043,10255,-4287,9079,14351.711918792127
1735580824262,172,-85,951,970.1597806547126,10257,-4219,7312,13284.252105406611
1735580824292,172,-85,951,970.1597806547126,10223,-4159,5567,12361.168998116642
1735580824321,172,-85,951,970.1597806547126,10180,-4107,3825,11624.563389650382
1735580824351,212,-111,997,1025.3165364900733,10110,-4077,2150,11111.099360549342
1735580824381,212,-111,997,1025.3165364900733,10033,-4070,530,10840.059455556506
1735580824411,212,-111,997,1025.3165364900733,9970,-4079,-1091,10827.253668405483
1735580824441,189,-126,871,900.1322125110288,9910,-4093,-2721,11061.852918928185
1735580824471,189,-126,871,900.1322125110288,9873,-4102,-4391,11557.829121422414
1735580824501,189,-126,871,900.1322125110288,9844,-4118,-6062,12272.330829960541
1735580824531,189,-126,871,900.1322125110288,9825,-4140,-7734,13171.369746537373
1735580824561,28,-75,917,920.4879140977355,9909,-4159,-9499,14342.822699873272
1735580824591,28,-75,917,920.4879140977355,10003,-4148,-11324,15668.404162517636
1735580824621,28,-75,917,920.4879140977355,10075,-4118,-13144,17065.41194932018
1735580824651,227,-79,1033,1060.593701659594,10063,-4088,-14891,18431.42951591113
1735580824681,227,-79,1033,1060.593701659594,9958,-4099,-16495,19698.948956733708
1735580824711,227,-79,1033,1060.593701659594,9874,-4130,17899,20854.90294870729
1735580824741,178,-110,1029,1050.0595221224366,9805,-4170,16288,19463.44956578869
1735580824771,178,-110,1029,1050.0595221224366,9801,-4196,14612,18088.022584019516
1735580824801,178,-110,1029,1050.0595221224366,9804,-4223,12934,16770.22662339421
1735580824831,178,-110,1029,1050.0595221224366,9813,-4249,11254,15524.222557023588
1735580824862,101,-154,998,1014.8502352564145,9931,-4233,9466,14357.862166771207
1735580824892,101,-154,998,1014.8502352564145,10048,-4182,7655,13306.030700400477
1735580824922,101,-154,998,1014.8502352564145,10128,-4108,5852,12397.49781205869
1735580824951,134,-109,1003,1017.7651988548242,10119,-4051,4138,11658.808086592728
1735580824981,134,-109,1003,1017.7651988548242,10048,-4024,2483,11104.96145873546
1735580825011,134,-109,1003,1017.7651988548242,9984,-4010,828,10791.012000734685
1735580825041,264,8,1040,1073.0144453827265,9937,-4012,-834,10748.75197406657
1735580825071,264,8,1040,1073.0144453827265,9735,-4070,-2364,10813.122629472025
1735580825101,264,8,1040,1073.0144453827265,9580,-4163,-3897,11148.702973888936
1735580825161,264,8,1040,1073.0144453827265,9470,-4283,-5434,11728.313817424907
1735580825161,122,-71,984,994.0729349499462,9526,-4362,-7169,12695.128238816653
1735580825192,122,-71,984,994.0729349499462,9646,-4412,-8967,13889.49779509684
1735580825221,122,-71,984,994.0729349499462,9758,-4436,-10767,15192.924307058203
1735580825251,274,-151,966,1015.3979515441224,9830,-4464,-12474,16497.17769801853
1735580825281,274,-151,966,1015.3979515441224,9862,-4508,-14044,17743.028039204582
1735580825311,274,-151,966,1015.3979515441224,9897,-4545,-15617,19039.388724431254
1735580825341,219,-44,921,947.7014297762771,9934,-4570,-17193,20375.68416029263
1735580825371,219,-44,921,947.7014297762771,9925,-4571,17161,20344.522284880517
1735580825401,219,-44,921,947.7014297762771,9918,-4575,15515,18973.99731211112
1735580825431,219,-44,921,947.7014297762771,9913,-4579,13869,17651.741302205854
1735580825461,397,-29,1005,1080.9602212847612,9794,-4631,12404,16468.99550670896
1735580825491,397,-29,1005,1080.9602212847612,9653,-4718,11011,15384.474446662129
1735580825521,397,-29,1005,1080.9602212847612,9550,-4826,9614,14384.775702109506
1735580825551,303,-117,938,992.6439442216932,9577,-4929,8115,13485.81458422145
1735580825581,303,-117,938,992.6439442216932,9743,-4995,6495,12730.322030490823
1735580825611,303,-117,938,992.6439442216932,9897,-5033,4869,12123.896197180178
1735580825641,255,-71,934,970.7842190723951,10035,-5040,3234,11685.956571885761
1735580825671,255,-71,934,970.7842190723951,10159,-5001,1523,11425.18319327966
1735580825701,255,-71,934,970.7842190723951,10248,-4942,-176,11378.745273535214
1735580825731,298,-4,943,988.9737104695959,10294,-4872,-1847,11537.513986990438
1735580825761,298,-4,943,988.9737104695959,10206,-4825,-3416,11794.579984043517
1735580825802,298,-4,943,988.9737104695959,10122,-4793,-4984,12258.384436784481
1735580825821,298,-4,943,988.9737104695959,10046,-4774,-6551,12908.47756321403
1735580825851,334,-32,954,1011.2843319264864,9969,-4781,-8085,13696.939329645875
1735580825882,334,-32,954,1011.2843319264864,9904,-4803,-9604,14608.040286089028
1735580825911,334,-32,954,1011.2843319264864,9855,-4834,-11126,15629.34601958764
1735580825942,268,-56,954,992.5099495722952,9827,-4872,-12657,16748.312213473928
1735580825971,268,-56,954,992.5099495722952,9901,-4889,-14290,18059.242010671434
1735580826001,268,-56,954,992.5099495722952,9967,-4894,-15922,19411.398944949848
1735580826031,321,-173,960,1026.9225871505603,10027,-4888,-17557,20800.998101052748
1735580826061,321,-173,960,1026.9225871505603,10132,-4876,16873,20276.363801234183
1735580826091,321,-173,960,1026.9225871505603,10214,-4846,15308,19030.091329260613
1735580826121,321,-173,960,1026.9225871505603,10275,-4803,13748,17822.79265435134
1735580826151,354,17,895,962.6162267487496,10183,-4766,12217,16603.112178142987
1735580826181,354,17,895,962.6162267487496,10043,-4757,10698,15425.242364384425
1735580826211,354,17,895,962.6162267487496,9925,-4770,9177,14334.428973628492
1735580826242,418,-47,961,1049.0252618502568,9813,-4805,7702,13368.013988622244
1735580826271,418,-47,961,1049.0252618502568,9714,-4863,6292,12553.877050537018
1735580826301,418,-47,961,1049.0252618502568,9643,-4935,4878,11880.09082456864
1735580826331,449,-20,958,1058.1894915373143,9593,-5020,3465,11368.037385582438
1735580826361,449,-20,958,1058.1894915373143,9506,-5123,2105,11001.826666513156
1735580826391,449,-20,958,1058.1894915373143,9451,-5238,740,10830.773056435077
1735580826421,449,-20,958,1058.1894915373143,9425,-5359,-631,10860.37140248896
1735580826451,392,-46,1023,1096.4985180108545,9521,-5470,-2090,11177.586546298802
1735580826483,392,-46,1023,1096.4985180108545,9656,-5560,-3593,11707.330395952786
1735580826512,392,-46,1023,1096.4985180108545,9792,-5632,-5107,12396.940630655614
1735580826541,380,-25,949,1022.558555780548,9944,-5685,-6677,13258.381877137195
1735580826571,380,-25,949,1022.558555780548,10092,-5716,-8285,14253.50290279551
1735580826601,380,-25,949,1022.558555780548,10224,-5727,-9896,15338.17202276725
1735580826631,370,-29,966,1034.841533762537,10327,-5723,-11492,16476.216859461398
1735580826661,370,-29,966,1034.841533762537,10415,-5709,-13074,17663.36270363036
1735580826691,370,-29,966,1034.841533762537,10482,-5682,-14651,18889.395146483646
1735580826721,370,-29,966,1034.841533762537,10530,-5647,-16222,20147.525728982208
1735580826752,251,-113,1018,1054.5586754657136,10754,-5563,-17985,21680.768205946948
1735580826781,251,-113,1018,1054.5586754657136,10963,-5421,16228,20320.496893530926
1735580826811,251,-113,1018,1054.5586754657136,11082,-5244,14484,18976.209210482477
1735580826841,250,-61,896,932.2215401931023,11068,-5055,12813,17669.935427159886
1735580826871,250,-61,896,932.2215401931023,10964,-4877,11180,16400.81781497496
1735580826901,250,-61,896,932.2215401931023,10835,-4712,9559,15197.85017691647
1735580826931,219,-34,971,995.9708831085375,10698,-4566,7935,14080.475311579507
1735580826961,219,-34,971,995.9708831085375,10565,-4432,6260,13055.629015868979
1735580826991,219,-34,971,995.9708831085375,10425,-4323,4589,12183.09792294226
1735580827021,219,-34,971,995.9708831085375,10285,-4239,2920,11501.162810777005
1735580827051,214,-44,948,972.8494230866357,10122,-4199,1322,11037.851647852493
1735580827082,214,-44,948,972.8494230866357,9984,-4187,-279,10830.007663893872
1735580827141,214,-44,948,972.8494230866357,9868,-4201,-1884,10889.22775039626
1735580827141,312,-188,1064,1124.6261601083268,9813,-4249,-3450,11236.167941073149
1735580827171,312,-188,1064,1124.6261601083268,9818,-4312,-4942,11807.194078188095
1735580827201,312,-188,1064,1124.6261601083268,9835,-4375,-6435,12541.01570846636
1735580827232,117,12,885,892.781048185948,9851,-4424,-7939,13403.048086163088
1735580827261,117,12,885,892.781048185948,9842,-4427,-9693,14505.776159861285
1735580827291,117,12,885,892.781048185948,9835,-4433,-11446,15728.624542533908
1735580827321,117,12,885,892.781048185948,9831,-4439,-13201,17047.571175976947
1735580827351,180,-78,986,1005.325817832209,9919,-4456,-14977,18508.188079874268
1735580827382,180,-78,986,1005.325817832209,10002,-4455,-16727,19991.98734493397
1735580827412,180,-78,986,1005.325817832209,10070,-4439,17524,20692.998743536424
1735580827441,187,-21,990,1007.7251609441931,10098,-4405,15773,19239.57270835296
1735580827471,187,-21,990,1007.7251609441931,10077,-4370,14027,17815.710987777053
1735580827501,187,-21,990,1007.7251609441931,10050,-4339,12282,16452.262610352413
1735580827531,217,-111,1000,1029.2764448873781,10012,-4313,10551,15171.213333151703
1735580827561,217,-111,1000,1029.2764448873781,10010,-4293,8876,14050.38522603562
1735580827591,217,-111,1000,1029.2764448873781,10003,-4272,7202,13045.2595604687
1735580827621,217,-111,1000,1029.2764448873781,9992,-4254,5530,12186.774798936756
1735580827651,176,-128,1025,1047.8477942907548,9989,-4237,3856,11515.251886085689
1735580827681,176,-128,1025,1047.8477942907548,9994,-4215,2169,11061.230582534658
1735580827711,176,-128,1025,1047.8477942907548,9994,-4193,483,10848.713011228567
1735580827742,125,-71,912,923.2605266120718,9972,-4170,-1196,10874.745974044636
1735580827771,125,-71,912,923.2605266120718,9936,-4150,-2902,11152.049139059602
1735580827801,125,-71,912,923.2605266120718,9902,-4137,-4608,11678.957016788785
1735580827831,279,-81,950,993.4294136978228,9883,-4127,-6330,12440.848765257137
1735580827861,279,-81,950,993.4294136978228,9788,-4147,-7910,13250.307656805559
1735580827891,279,-81,950,993.4294136978228,9714,-4183,-9493,14211.837812190231
1735580827921,279,-81,950,993.4294136978228,9662,-4233,-11079,15297.606806294898
1735580827951,207,-30,901,924.959458571023,9631,-4300,-12679,16492.519577068873
1735580827982,207,-30,901,924.959458571023,9625,-4369,-14313,17792.997358511577
1735580828012,207,-30,901,924.959458571023,9637,-4438,-15951,19157.296625568026
1735580828041,145,-71,961,974.4675469198551,9713,-4496,-17645,20637.40317966386
1735580828071,145,-71,961,974.4675469198551,9852,-4522,16595,19821.81659182629
1735580828101,145,-71,961,974.4675469198551,9972,-4522,14837,18439.78950530618
1735580828131,35,-42,1018,1019.4670176126347,10073,-4494,13074,17105.28693123854
1735580828160,35,-42,1018,1019.4670176126347,10210,-4410,11175,15766.192469965601
1735580828191,35,-42,1018,1019.4670176126347,10293,-4299,9293,14518.508842164198
1735580828222,35,-42,1018,1019.4670176126347,10326,-4172,7427,13386.268673532591
1735580828251,105,-178,1000,1021.1312354442988,10358,-4040,5611,12453.637420448695
1735580828281,105,-178,1000,1021.1312354442988,10369,-3902,3832,11722.883135133608
1735580828311,105,-178,1000,1021.1312354442988,10340,-3762,2063,11194.82974412742
1735580828341,87,-99,927,936.3220599772282,10253,-3641,312,10884.77073713544
1735580828371,87,-99,927,936.3220599772282,10113,-3550,-1439,10814.156925068177
1735580828401,87,-99,927,936.3220599772282,9979,-3492,-3194,11044.28091819472
1735580828431,-21,-69,1034,1036.512421536761,9862,-3465,-4956,11568.370887899471
1735580828461,-21,-69,1034,1036.512421536761,9806,-3445,-6842,12443.41693426689
1735580828491,-21,-69,1034,1036.512421536761,9755,-3438,-8729,13534.227351422762
1735580828521,-21,-69,1034,1036.512421536761,9713,-3444,-10617,14796.087117883566
1735580828551,-19,-89,1021,1025.0478037633172,9638,-3454,-12476,16139.136779890057
1735580828581,-19,-89,1021,1025.0478037633172,9585,-3480,-14336,17592.712155890007
1735580828611,-19,-89,1021,1025.0478037633172,9550,-3518,-16198,19129.924934510327
1735580828641,34,-79,1010,1013.6552668437134,9507,-3577,17994,20663.059163637896
1735580828671,34,-79,1010,1013.6552668437134,9459,-3657,16241,19147.229851861077
1735580828701,34,-79,1010,1013.6552668437134,9440,-3745,14483,17688.86412407535
1735580828731,64,18,963,965.2921837454192,9455,-3833,12726,16310.732356335198
1735580828761,64,18,963,965.2921837454192,9406,-3929,11007,15002.130715335072
1735580828791,64,18,963,965.2921837454192,9389,-4033,9283,13805.524220398152
1735580828821,64,18,963,965.2921837454192,9402,-4136,7552,12748.992273901495
1735580828851,111,-135,994,1009.248235074008,9513,-4245,5821,11933.19885864641
1735580828881,111,-135,994,1009.248235074008,9661,-4323,4100,11350.473558402751
1735580828911,111,-135,994,1009.248235074008,9803,-4371,2374,10992.739694907727
1735580828941,-10,-164,958,971.9876542425835,9997,-4353,526,10916.285723633291
1735580828971,-10,-164,958,971.9876542425835,10223,-4252,-1435,11164.607382259352
1735580829001,-10,-164,958,971.9876542425835,10369,-4103,-3374,11650.521275891479
1735580829031,19,-123,981,988.8634890620647,10438,-3926,-5288,12342.13368911551
1735580829061,19,-123,981,988.8634890620647,10392,-3756,-7151,13161.990768876873
1735580829091,19,-123,981,988.8634890620647,10309,-3600,-9007,14154.911868323306
1735580829121,19,-123,981,988.8634890620647,10200,-3464,-10860,15296.368719405269
1735580829152,-20,-78,984,987.289218010609,10052,-3370,-12691,16536.65882214421
1735580829181,-20,-78,984,987.289218010609,9904,-3312,-14538,17900.055977566102
1735580829211,-20,-78,984,987.289218010609,9770,-3290,-16387,19360.030191092163
1735580829241,-48,-51,989,991.4766764780702,9640,-3293,17759,20473.288206831847
1735580829271,-48,-51,989,991.4766764780702,9525,-3323,15887,18819.2646774522
1735580829301,-48,-51,989,991.4766764780702,9441,-3380,14013,17231.397215548135
1735580829331,90,-46,982,987.1879253718615,9394,-3461,12145,15739.338677339654
1735580829361,90,-46,982,987.1879253718615,9308,-3585,10435,14435.384096032914
1735580829391,90,-46,982,987.1879253718615,9268,-3723,8721,13259.426609020467
1735580829421,90,-46,982,987.1879253718615,9269,-3865,7001,12242.000939388952
1735580829451,-59,-85,969,974.5085941129508,9406,-3968,5091,11407.72286654966
1735580829481,-59,-85,969,974.5085941129508,9587,-4022,3120,10854.55908823569
1735580829511,-59,-85,969,974.5085941129508,9749,-4032,1148,10612.15948805897
1735580829541,-33,-153,1062,1073.4719372205311,9883,-4009,-779,10693.578026086498
1735580829571,-33,-153,1062,1073.4719372205311,10002,-3957,-2666,11081.760194120789
1735580829601,-33,-153,1062,1073.4719372205311,10083,-3879,-4544,11720.130801317877
1735580829631,-27,-126,858,867.6226138131717,10108,-3785,-6399,12547.712540539012
1735580829661,-27,-126,858,867.6226138131717,10049,-3694,-8216,13495.580498815158
1735580829691,-27,-126,858,867.6226138131717,9978,-3618,-10030,14603.126651508574
1735580829721,84,-45,1005,1009.50780086139,9919,-3562,-11849,15857.906734496833
1735580829751,84,-45,1005,1009.50780086139,9768,-3555,-13566,17090.58819935698
1735580829781,84,-45,1005,1009.50780086139,9644,-3581,-15285,18424.481593792538
1735580829811,84,-45,1005,1009.50780086139,9549,-3633,-17006,19839.005166590385
1735580829841,0,-169,1062,1075.362729501074,9608,-3719,17191,20041.833898124194
1735580829871,0,-169,1062,1075.362729501074,9725,-3775,15356,18564.29330731445
1735580829901,0,-169,1062,1075.362729501074,9835,-3803,13519,17145.06911622114
1735580829931,82,-5,1078,1081.125802115554,9943,-3795,11654,15782.29989576931
1735580829961,82,-5,1078,1081.125802115554,9868,-3783,9819,14425.715718812706
1735580829991,82,-5,1078,1081.125802115554,9805,-3788,7984,13199.667609451384
1735580830021,-43,-132,1008,1017.5151104529111,9735,-3806,6161,12133.16867104385
1735580830051,-43,-132,1008,1017.5151104529111,9821,-3794,4234,11347.829440029489
1735580830081,-43,-132,1008,1017.5151104529111,9887,-3763,2310,10828.159492730056
1735580830111,-43,-132,1008,1017.5151104529111,9930,-3717,391,10610.083411547716
1735580830171,21,-125,980,988.1629420292992,9908,-3682,-1448,10668.75306678339
1735580830171,21,-125,980,988.1629420292992,9869,-3660,-3264,11020.274815085148
1735580830201,21,-125,980,988.1629420292992,9831,-3646,-5080,11651.106256489124
1735580830231,-77,-99,953,961.2174571864579,9804,-3642,-6913,12536.831697043715
1735580830261,-77,-99,953,961.2174571864579,9799,-3633,-8805,13665.54481167875
1735580830291,-77,-99,953,961.2174571864579,9793,-3627,-10697,14949.374134056583
1735580830321,-14,-100,953,958.3344927529218,9791,-3619,-12589,16353.707928173353
1735580830351,-14,-100,953,958.3344927529218,9762,-3620,-14416,17782.634787904743
1735580830381,-14,-100,953,958.3344927529218,9740,-3627,-16243,19283.614235925794
1735580830411,-14,-100,953,958.3344927529218,9723,-3639,17927,20716.089857885825
1735580830471,53,-53,960,962.921595977575,9639,-3664,16133,19147.03386950574
1735580830471,53,-53,960,962.921595977575,9554,-3715,14360,17643.40502850853
1735580830501,53,-53,960,962.921595977575,9498,-3784,12584,16213.81250662533
1735580830531,31,-172,930,946.2795570020521,9516,-3871,10823,14922.339829932838
1735580830561,31,-172,930,946.2795570020521,9626,-3941,9056,13791.391989208341
1735580830591,31,-172,930,946.2795570020521,9736,-3986,7285,12796.44939035825
1735580830621,7,-177,1050,1064.8370767399115,9852,-4002,5491,11967.831424280675
1735580830651,7,-177,1050,1064.8370767399115,9994,-3971,3629,11349.824580142196
1735580830682,7,-177,1050,1064.8370767399115,10099,-3909,1775,10973.636908518525
1735580830712,7,-177,1050,1064.8370767399115,10165,-3825,-69,10861.059386634437
1735580830741,-35,-75,945,948.6174149782408,10124,-3738,-1892,10956.627400801763
1735580830771,-35,-75,945,948.6174149782408,10050,-3664,-3728,11328.0792723215
1735580830801,-35,-75,945,948.6174149782408,9971,-3609,-5562,11974.204190675888
1735580830831,85,21,937,941.0818242852213,9826,-3586,-7342,12779.46149100188
1735580830861,85,21,937,941.0818242852213,9606,-3627,-9035,13677.04609921309
1735580830891,85,21,937,941.0818242852213,9435,-3714,-10732,14764.44529943472
1735580830921,-13,-159,1029,1041.292946293213,9326,-3833,-12443,16015.44298481937
1735580830952,-13,-159,1029,1041.292946293213,9492,-3926,-14290,17598.739727605498
1735580830982,-13,-159,1029,1041.292946293213,9653,-3980,-16143,19225.432582909547
1735580831011,-13,-159,1029,1041.292946293213,9799,-3997,-17997,20877.94096648422
1735580831041,59,-76,937,941.9267487442959,9840,-4006,16192,19366.32386386224
1735580831071,59,-76,937,941.9267487442959,9841,-4019,14407,17904.16965402194
1735580831101,59,-76,937,941.9267487442959,9846,-4031,12621,16507.03843819357
1735580831131,96,-181,998,1018.8135256267459,9855,-4037,10882,15226.172138787872
1735580831160,96,-181,998,1018.8135256267459,9895,-4036,9188,14093.248915704286
1735580831191,96,-181,998,1018.8135256267459,9926,-4026,7494,13072.65038161734
1735580831221,66,-79,950,955.5610917152288,9978,-4001,5755,12193.789812851459
1735580831252,66,-79,950,955.5610917152288,9998,-3947,3895,11432.840329506924
1735580831281,66,-79,950,955.5610917152288,9999,-3890,2040,10921.249974247454
1735580831311,66,-79,950,955.5610917152288,9983,-3834,188,10695.56866183374
1735580831342,175,-86,1002,1020.7962578301314,9858,-3842,-1461,10680.620253524605
1735580831372,175,-86,1002,1020.7962578301314,9739,-3885,-3074,10926.610727943043
1735580831401,175,-86,1002,1020.7962578301314,9651,-3950,-4690,11434.176883361566
1735580831432,225,-171,1062,1098.9585979462556,9611,-4027,-6312,12183.160263248612
1735580831462,225,-171,1062,1098.9585979462556,9622,-4107,-7909,13114.976706041074
1735580831491,225,-171,1062,1098.9585979462556,9649,-4183,-9511,14179.556093192763
1735580831521,11,-100,947,952.3287247584208,9688,-4244,-11123,15348.941624750549
1735580831551,11,-100,947,952.3287247584208,9823,-4238,-12993,16830.6274987001
1735580831581,11,-100,947,952.3287247584208,9930,-4204,-14858,18358.613237388057
1735580831611,11,-100,947,952.3287247584208,10006,-4147,-16716,19918.391024377444
1735580831641,184,-58,951,970.3715783142044,9934,-4140,17617,20644.1915559801
1735580831671,184,-58,951,970.3715783142044,9827,-4166,16013,19244.262885338063
1735580831702,184,-58,951,970.3715783142044,9746,-4211,14406,17895.526619800825
1735580831731,210,-57,901,926.9034469673743,9672,-4261,12816,16611.85001738217
1735580831761,210,-57,901,926.9034469673743,9604,-4323,11248,15409.17418293401
1735580831791,210,-57,901,926.9034469673743,9561,-4396,9676,14295.541717612523
1735580831821,142,-21,1036,1045.8972224841216,9569,-4474,8071,13293.738300417983
1735580831851,142,-21,1036,1045.8972224841216,9670,-4532,6321,12409.793108670265
1735580831881,142,-21,1036,1045.8972224841216,9769,-4570,4566,11711.815273474902
1735580831911,142,-21,1036,1045.8972224841216,9860,-4588,2809,11232.089075501493
1735580831972,9,10,965,965.0937778267975,9981,-4559,936,11012.762505384379
1735580831972,9,10,965,965.0937778267975,10092,-4494,-979,11090.669096136626
1735580832003,9,10,965,965.0937778267975,10161,-4407,-2881,11444.113377627818
1735580832032,146,-100,970,986.0101419356699,10152,-4335,-4664,11983.664923553228
1735580832061,146,-100,970,986.0101419356699,10108,-4292,-6313,12666.763477700213
1735580832091,146,-100,970,986.0101419356699,10061,-4258,-7959,13516.655133575023
1735580832121,175,-91,993,1012.4006124059783,10039,-4224,-9640,14544.871845430609
1735580832151,175,-91,993,1012.4006124059783,10027,-4182,-11354,15714.425506521071
1735580832182,175,-91,993,1012.4006124059783,10005,-4142,-13066,16969.87168484193
1735580832211,175,-91,993,1012.4006124059783,9978,-4107,-14775,18295.588484659354
1735580832241,204,-116,1089,1113.998653500084,9947,-4091,-16441,19646.51549257527
1735580832272,204,-116,1089,1113.998653500084,9918,-4082,17904,20870.61724051304
1735580832301,204,-116,1089,1113.998653500084,9892,-4079,16249,19455.588040457682
1735580832331,222,-92,1005,1033.3310215027902,9861,-4081,14590,18076.558909261465
1735580832361,222,-92,1005,1033.3310215027902,9816,-4095,12940,16750.11883539935
1735580832391,222,-92,1005,1033.3310215027902,9783,-4116,11288,15494.111429830366
1735580832421,143,-52,963,974.9471780563293,9755,-4138,9629,14317.845857530385
1735580832451,143,-52,963,974.9471780563293,9747,-4140,7868,13192.7644184227
1735580832482,143,-52,963,974.9471780563293,9741,-4145,6108,12221.938062353287
1735580832511,143,-52,963,974.9471780563293,9737,-4150,4347,11442.380783735525
1735580832541,226,-59,877,907.5714847878376,9669,-4200,2735,10890.811999111911
1735580832571,226,-59,877,907.5714847878376,9608,-4269,1152,10576.631268981631
1735580832601,226,-59,877,907.5714847878376,9572,-4347,-435,10521.825792133226
1735580832632,44,-53,902,904.6264422401105,9632,-4414,-2124,10806.025911499564
1735580832661,44,-53,902,904.6264422401105,9793,-4434,-3972,11460.366006371698
1735580832691,44,-53,902,904.6264422401105,9929,-4421,-5818,12327.992780659793
1735580832721,60,-52,891,894.530603165705,10027,-4381,-7648,13350.123370216472
1735580832751,60,-52,891,894.530603165705,10070,-4329,-9433,14461.211221747644
1735580832781,60,-52,891,894.530603165705,10091,-4269,-11213,15677.500151490989
1735580832812,60,-52,891,894.530603165705,10091,-4206,-12986,16975.126302917455
1735580832842,216,-119,951,982.4550880320179,10046,-4169,-14640,18238.209259683365
1735580832871,216,-119,951,982.4550880320179,9985,-4154,-16236,19508.04031675145
1735580832901,216,-119,951,982.4550880320179,9932,-4150,-17831,20828.14646097919
1735580832931,241,-126,984,1020.888338654135,9884,-4156,16573,19739.050661062705
1735580832961,241,-126,984,1020.888338654135,9840,-4175,14991,18411.58075777308
1735580832992,241,-126,984,1020.888338654135,9808,-4201,13408,17135.33568390185
1735580833022,211,-59,942,967.1432158682601,9782,-4233,11834,15926.373378770197
1735580833052,211,-59,942,967.1432158682601,9724,-4270,10246,14757.018398036915
1735580833082,211,-59,942,967.1432158682601,9685,-4318,8654,13687.076568792914
1735580833112,211,-59,942,967.1432158682601,9664,-4371,7060,12741.355383160773
1735580833141,145,-86,990,1004.2514625331645,9696,-4425,5427,11960.157607657184
1735580833171,145,-86,990,1004.2514625331645,9758,-4464,3764,11371.61184705141
1735580833201,145,-86,990,1004.2514625331645,9818,-4492,2100,10999.14487585285
1735580833231,169,-101,925,945.7203603602917,9890,-4498,408,10872.468348999688
1735580833261,169,-101,925,945.7203603602917,9952,-4488,-1279,10991.828282865412
1735580833292,169,-101,925,945.7203603602917,10000,-4467,-2964,11346.337955481495
1735580833321,166,-97,908,928.131994923136,10033,-4440,-4646,11914.697016710077
1735580833351,166,-97,908,928.131994923136,10053,-4412,-6329,12672.205569670972
1735580833382,166,-97,908,928.131994923136,10062,-4380,-8008,13585.150275208589
1735580833412,173,-76,917,936.2659878474706,10063,-4348,-9687,14628.979526952657
1735580833441,173,-76,917,936.2659878474706,10039,-4322,-11361,15764.9461147192
1735580833471,173,-76,917,936.2659878474706,10012,-4301,-13034,16988.934663480228
1735580833501,173,-76,917,936.2659878474706,9985,-4285,-14707,18285.439535324273
1735580833531,82,-13,992,995.4682315373002,9985,-4245,-16479,19730.121413716643
1735580833561,82,-13,992,995.4682315373002,9976,-4200,17716,20760.95450599514
1735580833591,82,-13,992,995.4682315373002,9958,-4158,15916,19229.39895056525
1735580833621,116,-15,973,980.0051020275354,9913,-4118,14130,17744.925838109328
1735580833651,116,-15,973,980.0051020275354,9813,-4093,12404,16337.283556332124
1735580833681,116,-15,973,980.0051020275354,9725,-4089,10677,15009.79263680881
1735580833711,74,-42,1065,1068.3936540433026,9661,-4111,8956,13800.187607420416
1735580833741,74,-42,1065,1068.3936540433026,9681,-4150,7202,12759.82229500082
1735580833771,74,-42,1065,1068.3936540433026,9708,-4185,5446,11891.947065136137
1735580833801,74,-42,1065,1068.3936540433026,9739,-4212,3688,11233.450449438944
1735580833831,175,18,989,1004.5247632587262,9678,-4238,1994,10751.760972045464
1735580833861,175,18,989,1004.5247632587262,9596,-4287,334,10515.376407908563
1735580833891,175,18,989,1004.5247632587262,9541,-4350,-1328,10569.615177479263
1735580833921,201,-130,933,963.2185629440496,9499,-4422,-2981,10893.642457874226
1735580833951,201,-130,933,963.2185629440496,9555,-4488,-4579,11506.841877769939
1735580833981,201,-130,933,963.2185629440496,9618,-4544,-6180,12302.286779294327
1735580834011,179,-67,1014,1031.8556100540425,9704,-4585,-7802,13268.799681960685
1735580834041,179,-67,1014,1031.8556100540425,9791,-4605,-9485,14388.708454896152
1735580834071,179,-67,1014,1031.8556100540425,9867,-4609,-11168,15598.87156175087
1735580834101,179,-67,1014,1031.8556100540425,9930,-4599,-12849,16877.57393703254
1735580834131,127,-53,902,912.4373951126729,10003,-4561,-14608,18282.68016457106
1735580834161,127,-53,902,912.4373951126729,10060,-4505,-16381,19744.259570822098
1735580834191,127,-53,902,912.4373951126729,10091,-4438,17853,20982.22423862637
1735580834221,171,-112,960,981.5217776493805,10113,-4377,16113,19520.74965261324
1735580834251,171,-112,960,981.5217776493805,10130,-4320,14413,18138.739454548653
1735580834281,171,-112,960,981.5217776493805,10129,-4260,12718,16807.49133571099
1735580834312,137,-42,968,978.5484147450243,10123,-4197,11017,15539.119247885319
1735580834342,137,-42,968,978.5484147450243,10087,-4128,9259,14300.945213516483
1735580834372,137,-42,968,978.5484147450243,10040,-4067,7505,13178.281906227381
1735580834402,137,-42,968,978.5484147450243,9987,-4017,5753,12205.468733317864
1735580834431,111,-100,979,990.3342869960628,9929,-3976,4029,11429.19323487008
1735580834461,111,-100,979,990.3342869960628,9890,-3941,2296,10891.060416690378
1735580834491,111,-100,979,990.3342869960628,9851,-3915,564,10615.437909007806
1735580834521,166,15,945,959.5863692237401,9763,-3900,-1150,10575.853109796864
1735580834552,166,15,945,959.5863692237401,9604,-3923,-2829,10753.138425594641
1735580834581,166,15,945,959.5863692237401,9480,-3977,-4511,11226.577840107822
1735580834612,214,-23,948,972.1260206372423,9386,-4059,-6181,11948.942965802456
1735580834672,214,-23,948,972.1260206372423,9315,-4170,-7766,12824.542136076438
1735580834672,214,-23,948,972.1260206372423,9280,-4292,-9356,13859.090879274874
1735580834702,214,-23,948,972.1260206372423,9279,-4418,-10954,15020.275663249327
1735580834731,217,-96,1028,1055.030331317541,9363,-4542,-12552,16304.853173211955
1735580834761,217,-96,1028,1055.030331317541,9479,-4646,-14158,17660.28654920412
1735580834791,217,-96,1028,1055.030331317541,9601,-4727,-15774,19061.553084678068
1735580834821,393,33,998,1073.0992498366588,9633,-4795,-17331,20399.761640764336
1735580834852,393,33,998,1073.0992498366588,9504,-4893,17255,20297.84446683933
1735580834881,393,33,998,1073.0992498366588,9413,-5009,15837,19092.019772669417
1735580834911,116,-113,940,953.8474720834563,9364,-5130,14398,17924.949093372623
1735580834941,116,-113,940,953.8474720834563,9759,-5175,12530,16703.879968438472
1735580834971,116,-113,940,953.8474720834563,10094,-5146,10667,15561.331594693302
1735580835001,116,-113,940,953.8474720834563,10353,-5058,8823,14512.522248044963
1735580835031,186,-107,1020,1042.326724208873,10522,-4944,7039,13590.553373575338
1735580835061,186,-107,1020,1042.326724208873,10604,-4809,5307,12795.919115092905
1735580835091,186,-107,1020,1042.326724208873,10632,-4659,3596,12152.23934096099
1735580835121,215,34,1044,1066.4506552110136,10542,-4511,1949,11631.056959709207
1735580835151,215,34,1044,1066.4506552110136,10339,-4400,347,11241.678255491926
1735580835181,215,34,1044,1066.4506552110136,10149,-4325,-1256,11103.394165749498
1735580835211,124,-76,908,919.573814329225,9983,-4287,-2871,11237.495228030133
1735580835241,124,-76,908,919.573814329225,10002,-4246,-4610,11803.41560735705
1735580835271,124,-76,908,919.573814329225,10007,-4203,-6344,12571.857221588225
1735580835301,124,-76,908,919.573814329225,9999,-4158,-8075,13508.315587074503
1735580835331,107,-112,1046,1057.406733475818,10038,-4109,-9832,14639.451799845512
1735580835361,107,-112,1046,1057.406733475818,10068,-4048,-11590,15876.996819298038
1735580835391,107,-112,1046,1057.406733475818,10076,-3983,-13342,17187.176295133533
1735580835421,157,-53,976,989.9666661054805,10014,-3919,-15063,18507.63966582449
1735580835451,157,-53,976,989.9666661054805,9888,-3885,-16744,19829.95978311605
1735580835480,157,-53,976,989.9666661054805,9777,-3877,17573,20480.019213858173
1735580835511,176,-39,994,1010.214333693598,9687,-3892,15890,19012.56776450777
1735580835541,176,-39,994,1010.214333693598,9597,-3932,14230,17608.40518048128
1735580835572,176,-39,994,1010.214333693598,9533,-3988,12567,16269.963798361692
1735580835601,176,-39,994,1010.214333693598,9494,-4055,10900,15012.963098602488
1735580835631,243,-56,996,1026.7429084244993,9451,-4142,9311,13898.643315086549
1735580835661,243,-56,996,1026.7429084244993,9424,-4239,7743,12912.588663780783
1735580835691,243,-56,996,1026.7429084244993,9424,-4339,6171,12071.451362615848
1735580835721,275,-34,1039,1075.3148376173372,9428,-4432,4583,11381.28714161979
1735580835751,275,-34,1039,1075.3148376173372,9424,-4527,3004,10877.937350435514
1735580835781,275,-34,1039,1075.3148376173372,9441,-4620,1419,10606.15113978676
1735580835811,237,-79,992,1022.9731179263705,9483,-4706,-178,10587.984180192187
1735580835841,237,-79,992,1022.9731179263705,9617,-4766,-1842,10890.106014176354
1735580835871,237,-79,992,1022.9731179263705,9743,-4801,-3509,11414.4089203077
1735580835901,237,-79,992,1022.9731179263705,9855,-4813,-5178,12128.38315687627
1735580835931,145,-124,948,967.0082729739182,10019,-4785,-6935,13090.867465527255
1735580835961,145,-124,948,967.0082729739182,10177,-4715,-8719,14206.460326203709
1735580835991,145,-124,948,967.0082729739182,10284,-4615,-10487,15395.97512338858
1735580836021,195,14,964,983.6244201929921,10312,-4515,-12217,16612.575297045307
1735580836051,195,14,964,983.6244201929921,10225,-4439,-13897,17815.216950685724
1735580836081,195,14,964,983.6244201929921,10136,-4379,-15574,19090.930124014387
1735580836111,233,-94,920,953.690201270832,10027,-4333,-17243,20411.679671207854
1735580836141,233,-94,920,953.690201270832,9948,-4303,17147,20285.416485741673
1735580836171,233,-94,920,953.690201270832,9876,-4287,15538,18903.523190135747
1735580836202,233,-94,920,953.690201270832,9814,-4284,13927,17567.828010314763
1735580836231,206,-68,980,1003.7230693772062,9816,-4286,12254,16275.262455641076
1735580836261,206,-68,980,1003.7230693772062,9817,-4287,10571,15049.847142080878
1735580836291,206,-68,980,1003.7230693772062,9819,-4288,8887,13920.433685772869
1735580836321,300,19,981,1026.0224169091043,9755,-4297,7262,12898.095905985503
1735580836351,300,19,981,1026.0224169091043,9607,-4343,5719,11994.292767812532
