Timestamp,Acc_X,Acc_Y,Acc_Z,Acc_Betrag,Ori_X,Ori_Y,Ori_Z,Ori_Betrag
1735577191292,-27,-83,1003,1006.7904449288343,10194,-3905,10379,15062.878277407675
1735577191292,134,-100,1002,1015.8543202644757,10154,-3799,8582,13827.032978914891
1735577191296,134,-100,1002,1015.8543202644757,10036,-3740,6923,12752.914372801222
1735577191325,134,-100,1002,1015.8543202644757,9926,-3705,5263,11830.11707465315
1735577191356,113,-27,928,935.244353097093,9812,-3683,3592,11078.912266102661
1735577191386,113,-27,928,935.244353097093,9635,-3674,1877,10481.155947699663
1735577191416,113,-27,928,935.244353097093,9489,-3703,158,10187.16319688656
1735577191446,113,-27,928,935.244353097093,9377,-3762,-1562,10223.5325108301
1735577191476,76,-122,961,971.689765305779,9384,-3859,-3293,10667.482645872924
1735577191506,76,-122,961,971.689765305779,9444,-3943,-5042,11408.687435458998
1735577191536,76,-122,961,971.689765305779,9515,-4012,-6796,12361.916720314855
1735577191566,167,-51,958,973.78334345993,9553,-4073,-8499,13419.468655651013
1735577191596,167,-51,958,973.78334345993,9525,-4145,-10126,14506.63730848745
1735577191626,167,-51,958,973.78334345993,9518,-4220,-11757,15704.38706221927
1735577191656,34,-150,1013,1024.6096817813113,9544,-4287,-13414,17011.810632616387
1735577191686,34,-150,1013,1024.6096817813113,9777,-4290,-15270,18632.41071359259
1735577191716,34,-150,1013,1024.6096817813113,9966,-4243,-17118,20257.10070567849
1735577191746,34,-150,1013,1024.6096817813113,10103,-4157,17044,20244.732500085054
1735577191776,240,-34,953,983.3437852551873,9993,-4104,15392,18804.69433412838
1735577191806,240,-34,953,983.3437852551873,9821,-4100,13813,17437.345268130695
1735577191836,240,-34,953,983.3437852551873,9679,-4127,12232,16134.961853069253
1735577191866,210,-62,1000,1023.6913597369082,9611,-4175,10644,14936.421325069805
1735577191896,210,-62,1000,1023.6913597369082,9607,-4224,9035,13848.02693527132
1735577191926,210,-62,1000,1023.6913597369082,9616,-4273,7423,12877.379935375053
1735577191956,102,-125,941,954.7303284174019,9625,-4315,5809,12041.774412436067
1735577191986,102,-125,941,954.7303284174019,9756,-4316,4068,11417.355911068027
1735577192016,102,-125,941,954.7303284174019,9862,-4291,2331,11004.78468667152
1735577192046,102,-125,941,954.7303284174019,9942,-4246,599,10827.31180857003
1735577192076,144,-35,1012,1022.792745379043,9989,-4189,-1173,10895.126020381775
1735577192106,144,-35,1012,1022.792745379043,9982,-4132,-2925,11192.380131142794
1735577192136,144,-35,1012,1022.792745379043,9961,-4078,-4674,11734.474040194558
1735577192166,130,-136,1014,1031.3059681782124,9958,-4026,-6423,12515.005753094962
1735577192196,130,-136,1014,1031.3059681782124,9997,-3961,-8178,13509.597107241947
1735577192226,130,-136,1014,1031.3059681782124,10012,-3889,-9927,14625.655335744788
1735577192256,63,-138,1005,1016.3847696615687,9998,-3810,-11671,15833.140718126648
1735577192286,63,-138,1005,1016.3847696615687,9991,-3711,-13478,17182.78458224976
1735577192316,63,-138,1005,1016.3847696615687,9960,-3615,-15280,18594.306252183756
1735577192346,63,-138,1005,1016.3847696615687,9909,-3528,-17079,20058.098264790708
1735577192376,44,-141,916,927.8324202139091,9791,-3496,17216,20111.597475088845
1735577192406,44,-141,916,927.8324202139091,9690,-3488,15503,18611.965318042046
1735577192436,44,-141,916,927.8324202139091,9607,-3502,13789,17166.68209060796
1735577192466,173,-146,1013,1037.9855490323553,9572,-3525,12031,15773.197836837018
1735577192496,173,-146,1013,1037.9855490323553,9531,-3562,10318,14490.99475536445
1735577192526,173,-146,1013,1037.9855490323553,9506,-3606,8603,13318.366303717585
1735577192556,83,-74,899,905.8509811221711,9468,-3656,6907,12276.644859243914
1735577192586,83,-74,899,905.8509811221711,9393,-3718,5157,11342.249424166266
1735577192616,83,-74,899,905.8509811221711,9346,-3794,3403,10645.306994164142
1735577192646,83,-74,899,905.8509811221711,9328,-3878,1644,10234.901269675247
1735577192676,204,-43,933,956.0094141795885,9304,-3964,-36,10113.308459648602
1735577192706,204,-43,933,956.0094141795885,9273,-4062,-1676,10261.449653923173
1735577192736,204,-43,933,956.0094141795885,9270,-4163,-3321,10690.767512204164
1735577192766,0,-34,979,979.5902204493468,9368,-4247,-5077,11470.499640381844
1735577192795,0,-34,979,979.5902204493468,9572,-4276,-7007,12609.734691895781
1735577192826,0,-34,979,979.5902204493468,9745,-4259,-8935,13890.224296245184
1735577192856,109,-168,928,949.36241762564,9854,-4220,-10816,15228.117808842957
1735577192886,109,-168,928,949.36241762564,9924,-4203,-12491,16497.759423630836
1735577192916,109,-168,928,949.36241762564,9977,-4174,-14162,17819.232559232172
1735577192946,109,-168,928,949.36241762564,10012,-4134,-15831,19182.040063559456
1735577192976,119,-92,994,1005.3163681150328,10045,-4046,-17620,20681.792499684354
1735577193006,119,-92,994,1005.3163681150328,10028,-3959,16600,19793.798650082303
1735577193036,119,-92,994,1005.3163681150328,9991,-3876,14826,18293.54347850629
1735577193096,42,-95,1003,1008.3640215715751,9954,-3812,13059,16856.777301726448
1735577193097,42,-95,1003,1008.3640215715751,9936,-3750,11258,15476.729628703863
1735577193126,42,-95,1003,1008.3640215715751,9905,-3694,9459,14185.46234706504
1735577193156,8,9,916,916.0791450524349,9851,-3638,7672,13005.261589064636
1735577193186,8,9,916,916.0791450524349,9699,-3591,5871,11892.624731319827
1735577193216,8,9,916,916.0791450524349,9565,-3580,4067,10993.002956426419
1735577193246,8,9,916,916.0791450524349,9453,-3599,2261,10364.561302824157
1735577193276,83,-37,1019,1023.0439873241032,9391,-3676,523,10098.385316475105
1735577193306,83,-37,1019,1023.0439873241032,9357,-3766,-1192,10156.626851469931
1735577193335,83,-37,1019,1023.0439873241032,9352,-3860,-2911,10527.745485145431
1735577193366,129,-142,965,983.8851558998133,9371,-3955,-4585,11157.055659984851
1735577193396,129,-142,965,983.8851558998133,9437,-4042,-6215,12000.873218228748
1735577193426,129,-142,965,983.8851558998133,9512,-4114,-7848,12999.778613499539
1735577193456,113,31,887,894.7060969949853,9581,-4164,-9493,14115.64755864923
1735577193486,113,31,887,894.7060969949853,9500,-4207,-11175,15258.750735233865
1735577193516,113,31,887,894.7060969949853,9444,-4265,-12860,16515.415859129916
1735577193546,113,31,887,894.7060969949853,9412,-4332,-14550,17862.095845672757
1735577193576,147,-100,979,995.0125627347627,9493,-4403,-16277,19350.560379482555
1735577193606,147,-100,979,995.0125627347627,9603,-4451,-17996,20877.859708313015
1735577193636,147,-100,979,995.0125627347627,9705,-4478,16281,19475.894587925864
1735577193666,183,-103,1005,1026.704923529638,9773,-4484,14583,18118.545029885816
1735577193696,183,-103,1005,1026.704923529638,9808,-4482,12917,16826.588394561746
1735577193726,183,-103,1005,1026.704923529638,9837,-4474,11253,15601.706765607409
1735577193756,108,-74,1016,1024.4003123779298,9859,-4458,9596,14462.25642837244
1735577193786,108,-74,1016,1024.4003123779298,9909,-4416,7865,13399.535887485059
1735577193816,108,-74,1016,1024.4003123779298,9937,-4366,6140,12470.185443689279
1735577193846,108,-74,1016,1024.4003123779298,9948,-4311,4421,11708.657736905627
1735577193876,177,-45,916,934.0289074755663,9897,-4281,2829,11148.130381368886
1735577193906,177,-45,916,934.0289074755663,9827,-4269,1262,10788.277619712982
1735577193936,177,-45,916,934.0289074755663,9766,-4269,-304,10662.62317631079
1735577193966,195,-62,909,931.745673453867,9776,-4271,-1949,10844.824479907455
1735577193996,195,-62,909,931.745673453867,9811,-4264,-3622,11294.082565662427
1735577194026,195,-62,909,931.745673453867,9839,-4251,-5294,11954.219255141676
1735577194056,186,-138,907,936.1030926132014,9844,-4232,-6957,12775.523824877006
1735577194086,186,-138,907,936.1030926132014,9884,-4202,-8617,13769.63866628315
1735577194116,186,-138,907,936.1030926132014,9910,-4165,-10274,14869.781471158209
1735577194146,186,-138,907,936.1030926132014,9922,-4123,-11929,16054.477693154642
1735577194176,141,-8,1015,1024.7780247448713,9937,-4074,-13690,17399.929453879977
1735577194206,141,-8,1015,1024.7780247448713,9913,-4027,-15465,18805.5981824562
1735577194236,141,-8,1015,1024.7780247448713,9882,-3986,-17238,20265.506754088336
1735577194266,15,-148,1063,1073.358281283561,9890,-3935,16945,20010.73087121008
1735577194296,15,-148,1063,1073.358281283561,9989,-3842,15045,18463.290876764087
1735577194326,15,-148,1063,1073.358281283561,10042,-3729,13157,16966.256334265378
1735577194356,18,-80,995,998.3731767230128,10034,-3612,11309,15544.168713700969
1735577194386,18,-80,995,998.3731767230128,9912,-3525,9527,14192.853765187605
1735577194416,18,-80,995,998.3731767230128,9792,-3466,7744,12956.309505410867
1735577194445,144,-107,952,968.7564193335702,9687,-3437,5942,11872.586154667399
1735577194475,144,-107,952,968.7564193335702,9566,-3450,4231,11014.182538890484
1735577194505,144,-107,952,968.7564193335702,9470,-3490,2519,10402.228655437257
1735577194536,144,-107,952,968.7564193335702,9402,-3549,804,10081.637813371397
1735577194566,134,-44,952,962.3907730231,9326,-3611,-934,10044.199968140818
1735577194595,134,-44,952,962.3907730231,9266,-3690,-2680,10327.499987896394
1735577194625,134,-44,952,962.3907730231,9237,-3780,-4429,10919.093826870434
1735577194655,121,-79,1022,1032.1656843743644,9222,-3879,-6162,11749.985914885176
1735577194685,121,-79,1022,1032.1656843743644,9248,-3984,-7872,12781.476597013352
1735577194715,121,-79,1022,1032.1656843743644,9295,-4081,-9588,13963.571534532273
1735577194745,88,-175,1002,1020.9666987713165,9356,-4162,-11315,15260.609588086578
1735577194775,88,-175,1002,1020.9666987713165,9519,-4202,-13092,16723.295996902045
1735577194806,88,-175,1002,1020.9666987713165,9664,-4208,-14869,18226.006721166323
1735577194836,88,-175,1002,1020.9666987713165,9782,-4185,-16643,19753.257908507145
1735577194866,278,-69,923,966.4233026991847,9684,-4194,17835,20723.337496648553
1735577194896,278,-69,923,966.4233026991847,9536,-4240,16383,19424.612866155145
1735577194926,278,-69,923,966.4233026991847,9422,-4311,14930,18173.158916379947
1735577194956,63,-170,998,1014.3337714973311,9451,-4382,13338,16924.112059425748
1735577194986,63,-170,998,1014.3337714973311,9659,-4399,11547,15683.771580841134
1735577195016,63,-170,998,1014.3337714973311,9833,-4375,9761,14529.474698006119
1735577195046,83,-27,936,940.0606363421457,9987,-4320,7969,13487.30996158982
1735577195076,83,-27,936,940.0606363421457,10004,-4259,6183,12507.94091767306
1735577195106,83,-27,936,940.0606363421457,10001,-4196,4403,11705.247797462469
1735577195136,83,-27,936,940.0606363421457,9982,-4134,2629,11119.438879727699
1735577195166,-45,-62,984,986.9777099813349,10005,-4061,805,10827.7315722177
1735577195196,-45,-62,984,986.9777099813349,10037,-3970,-1057,10845.253247388924
1735577195226,-45,-62,984,986.9777099813349,10036,-3873,-2911,11144.296568200256
1735577195256,35,-111,917,924.3565329460273,10044,-3773,-4795,11751.99940435669
1735577195286,35,-111,917,924.3565329460273,10035,-3675,-6649,12586.343829722753
1735577195316,35,-111,917,924.3565329460273,10001,-3582,-8497,13603.298644078943
1735577195346,104,-78,1010,1018.3319694480774,9956,-3497,-10345,14777.346514174998
1735577195376,104,-78,1010,1018.3319694480774,9850,-3441,-12129,15999.23816936294
1735577195406,104,-78,1010,1018.3319694480774,9751,-3410,-13913,17328.637280524974
1735577195436,104,-78,1010,1018.3319694480774,9663,-3403,-15699,18746.0016803584
1735577195496,-59,-154,1019,1032.2586885078758,9640,-3396,-17568,20324.788805790824
1735577195496,-59,-154,1019,1032.2586885078758,9664,-3376,16507,19423.473453530394
1735577195525,-59,-154,1019,1032.2586885078758,9677,-3351,14585,17821.216428740212
1735577195556,-47,-131,950,960.1406147018258,9643,-3333,12714,16301.599124012344
1735577195586,-47,-131,950,960.1406147018258,9582,-3333,10874,14871.700945083585
1735577195616,-47,-131,950,960.1406147018258,9533,-3347,9033,13552.69666892903
1735577195645,194,-97,916,941.3293791229507,9502,-3376,7189,12384.14716482326
1735577195674,194,-97,916,941.3293791229507,9341,-3459,5590,11422.217910721192
1735577195706,194,-97,916,941.3293791229507,9226,-3573,3990,10667.96630103414
1735577195736,194,-97,916,941.3293791229507,9156,-3707,2388,10162.515879446388
1735577195766,81,-74,990,996.0607411197371,9192,-3832,644,9979.57033143211
1735577195796,81,-74,990,996.0607411197371,9270,-3939,-1147,10137.269356192524
1735577195826,81,-74,990,996.0607411197371,9362,-4025,-2946,10607.854872687503
1735577195856,162,-182,1019,1047.725632023957,9446,-4099,-4677,11309.422885364222
1735577195886,162,-182,1019,1047.725632023957,9542,-4158,-6330,12182.26694831467
1735577195916,162,-182,1019,1047.725632023957,9636,-4198,-7985,13199.845643036891
1735577195946,190,-52,1019,1037.8655982351472,9738,-4213,-9662,14350.339961129841
1735577195976,190,-52,1019,1037.8655982351472,9728,-4217,-11346,15528.966127852813
1735577196006,190,-52,1019,1037.8655982351472,9721,-4222,-13030,16795.95263746597
1735577196036,190,-52,1019,1037.8655982351472,9716,-4228,-14715,18133.06000100369
1735577196066,174,-45,898,915.8083860721084,9605,-4272,-16254,19357.13111491473
1735577196096,174,-45,898,915.8083860721084,9524,-4334,-17803,20650.34965805664
1735577196126,174,-45,898,915.8083860721084,9471,-4408,16644,19650.77710931555
1735577196156,135,-179,1035,1059.0047214247913,9554,-4477,14978,18321.106107437947
1735577196186,135,-179,1035,1059.0047214247913,9756,-4501,13230,17043.222611935806
1735577196215,135,-179,1035,1059.0047214247913,9928,-4486,11484,15829.454696861796
1735577196246,8,-96,968,972.7815787729535,10072,-4433,9731,14689.759494287167
1735577196276,8,-96,968,972.7815787729535,10211,-4315,7816,13563.686888158396
1735577196306,8,-96,968,972.7815787729535,10285,-4168,5922,12578.693612613355
1735577196336,8,-96,968,972.7815787729535,10300,-4009,4046,11769.97013590094
1735577196366,57,-94,928,934.4886302144076,10251,-3864,2227,11179.133508461198
1735577196396,57,-94,928,934.4886302144076,10164,-3738,431,10838.14103063805
1735577196426,57,-94,928,934.4886302144076,10061,-3633,-1361,10783.076138097143
1735577196456,164,-113,956,976.5249612785124,9942,-3554,-3131,11012.603733904167
1735577196486,164,-113,956,976.5249612785124,9803,-3515,-4836,11482.200573060898
1735577196516,164,-113,956,976.5249612785124,9680,-3507,-6543,12198.864619299617
1735577196546,83,-64,993,998.5158987216979,9586,-3527,-8231,13117.945189701015
1735577196575,83,-64,993,998.5158987216979,9534,-3558,-9961,14240.015484542142
1735577196605,83,-64,993,998.5158987216979,9499,-3600,-11693,15489.262409811514
1735577196635,83,-64,993,998.5158987216979,9481,-3649,-13427,16837.12834779138
1735577196664,-20,-108,960,966.2629041829144,9490,-3682,-15225,18314.416425319152
1735577196696,-20,-108,960,966.2629041829144,9536,-3702,-17061,19892.65746450182
1735577196726,-20,-108,960,966.2629041829144,9578,-3711,17102,19949.636813736735
1735577196756,149,-178,1041,1066.5673912135135,9617,-3736,15331,18479.284239385463
1735577196786,149,-178,1041,1066.5673912135135,9637,-3778,13681,17155.605905942233
1735577196816,149,-178,1041,1066.5673912135135,9662,-3814,12030,15894.078771668397
1735577196846,53,-32,977,978.9596518753978,9701,-3831,10336,14683.96601739462
1735577196876,53,-32,977,978.9596518753978,9692,-3810,8459,13416.618240078235
1735577196906,53,-32,977,978.9596518753978,9678,-3792,6583,12303.61073018811
1735577196936,53,-32,977,978.9596518753978,9662,-3778,4708,11392.663955370579
1735577196966,145,-51,888,901.204749210744,9560,-3812,3035,10730.152328834853
1735577196996,145,-51,888,901.204749210744,9473,-3871,1393,10327.769313845076
1735577197026,145,-51,888,901.204749210744,9414,-3946,-252,10210.67167232401
1735577197056,180,-103,916,939.1831557262939,9386,-4030,-1892,10388.337691854265
1735577197086,180,-103,916,939.1831557262939,9393,-4116,-3514,10840.576599055974
1735577197116,180,-103,916,939.1831557262939,9418,-4198,-5139,11520.90486897622
1735577197146,200,-106,960,986.3244902160749,9465,-4275,-6768,12396.276618404416
1735577197176,200,-106,960,986.3244902160749,9520,-4343,-8375,13402.711442092605
1735577197206,200,-106,960,986.3244902160749,9582,-4400,-9986,14522.221593130991
1735577197236,200,-106,960,986.3244902160749,9646,-4445,-11599,15727.051281152484
1735577197266,83,-114,878,889.251932806446,9789,-4439,-13357,17144.64029952218
1735577197296,83,-114,878,889.251932806446,9931,-4393,-15155,18643.959745719254
1735577197326,83,-114,878,889.251932806446,10032,-4320,-16943,20158.588070596612
1735577197356,149,-72,972,985.9863082213667,10069,-4249,17328,20486.540605968592
1735577197386,149,-72,972,985.9863082213667,10034,-4197,15666,19071.432064740184
1735577197416,149,-72,972,985.9863082213667,9994,-4152,14007,17700.711539370386
1735577197446,277,-20,977,1015.7056660273191,9944,-4122,12364,16393.36804930579
1735577197476,277,-20,977,1015.7056660273191,9757,-4151,10898,15205.13906546073
1735577197506,277,-20,977,1015.7056660273191,9608,-4212,9429,14105.341151492934
1735577197536,277,-20,977,1015.7056660273191,9496,-4298,7959,13114.591148793012
1735577197566,294,-49,911,958.5186487492041,9405,-4363,6445,12207.695073190516
1735577197597,294,-49,911,958.5186487492041,9346,-4443,4936,11465.254510912524
1735577197626,294,-49,911,958.5186487492041,9314,-4531,3422,10908.28313713941
1735577197655,19,-112,1028,1034.257704829894,9436,-4594,1731,10636.695586506177
1735577197686,19,-112,1028,1034.257704829894,9740,-4576,-214,10763.511137170806
1735577197716,19,-112,1028,1034.257704829894,9977,-4494,-2145,11150.676661082052
1735577197746,332,-113,966,1027.6911014502364,10123,-4395,-4012,11742.54222900646
1735577197776,332,-113,966,1027.6911014502364,9961,-4415,-5422,12170.12037738329
1735577197806,332,-113,966,1027.6911014502364,9830,-4460,-6834,12775.917031665476
1735577197836,332,-113,966,1027.6911014502364,9729,-4526,-8248,13533.94329085208
1735577197867,124,-93,989,1001.0724249523607,9829,-4507,-9966,14705.218325478883
1735577197896,124,-93,989,1001.0724249523607,9948,-4449,-11762,16034.367745564525
1735577197935,124,-93,989,1001.0724249523607,10028,-4369,-13547,17411.78204550011
1735577197956,126,-77,976,987.1073903076605,10054,-4299,-15272,18782.925783806953
1735577197985,126,-77,976,987.1073903076605,10043,-4239,-16965,20165.371184285203
1735577198016,126,-77,976,987.1073903076605,10019,-4182,17344,20461.76485545663
1735577198046,180,-153,1011,1038.2340776530118,9988,-4126,15645,19014.469358885617
1735577198076,180,-153,1011,1038.2340776530118,9976,-4073,13984,17653.95595893453
1735577198106,180,-153,1011,1038.2340776530118,9954,-4022,12324,16344.405036586679
1735577198136,239,-91,1009,1040.904894791066,9936,-3981,10665,15110.08543986433
1735577198166,239,-91,1009,1040.904894791066,9845,-3971,9069,13962.078176260151
1735577198196,239,-91,1009,1040.904894791066,9769,-3978,7471,12925.698665836211
1735577198226,239,-91,1009,1040.904894791066,9708,-4000,5872,12030.19733836482
1735577198256,-22,-158,1037,1049.1982653435907,9808,-3945,4011,11306.989431320788
1735577198286,-22,-158,1037,1049.1982653435907,9937,-3841,2067,10852.17669410151
1735577198316,-22,-158,1037,1049.1982653435907,10008,-3709,137,10674.057991223393
1735577198346,165,-154,919,946.3096744723684,10004,-3586,-1737,10768.313749143828
1735577198377,165,-154,919,946.3096744723684,9833,-3557,-3331,10974.319978932635
1735577198406,165,-154,919,946.3096744723684,9686,-3562,-4927,11435.985703034085
1735577198436,329,-87,915,976.235115123401,9557,-3594,-6529,12119.444129166981
1735577198466,329,-87,915,976.235115123401,9288,-3682,-7963,12776.284162462887
1735577198496,329,-87,915,976.235115123401,9079,-3816,-9395,13610.88248424767
1735577198526,329,-87,915,976.235115123401,8927,-3984,-10824,14585.01151867903
1735577198556,64,-95,960,966.8097020613726,9061,-4127,-12533,16006.559249257787
1735577198586,64,-95,960,966.8097020613726,9269,-4221,-14354,17600.241986972793
1735577198616,64,-95,960,966.8097020613726,9466,-4269,-16182,19227.236956983706
1735577198647,182,4,950,967.2848598008758,9629,-4289,-17986,20847.286586028407
1735577198676,182,4,950,967.2848598008758,9588,-4343,16392,19480.47886988408
1735577198706,182,4,950,967.2848598008758,9567,-4404,14768,18138.812778128562
1735577198736,35,-139,944,954.8204019604943,9562,-4455,13115,16830.986126784133
1735577198766,35,-139,944,954.8204019604943,9792,-4433,11242,15553.691426796406
1735577198796,35,-139,944,954.8204019604943,9969,-4364,9379,14366.318178294674
1735577198826,35,-139,944,954.8204019604943,10090,-4260,7532,13292.35584838143
1735577198856,187,-76,926,947.7452189275343,10067,-4186,5856,12375.775571656106
1735577198886,187,-76,926,947.7452189275343,9985,-4135,4239,11608.943578121138
1735577198916,187,-76,926,947.7452189275343,9906,-4101,2622,11037.296815796883
1735577198946,132,14,1071,1079.194607102908,9916,-4065,884,10753.266340977518
1735577198978,132,14,1071,1079.194607102908,9933,-4015,-941,10755.007903297887
1735577199006,132,14,1071,1079.194607102908,9933,-3962,-2763,11045.184561608738
1735577199036,-13,-112,940,946.738084160556,9869,-3909,-4539,11544.694149261815
1735577199066,-13,-112,940,946.738084160556,9902,-3829,-6385,12388.66699851118
1735577199096,-13,-112,940,946.738084160556,9906,-3744,-8225,13408.840255592577
1735577199126,-13,-112,940,946.738084160556,9886,-3660,-10060,14571.622970692042
1735577199156,123,-104,985,998.0831628677041,9824,-3599,-11821,15786.064043959786
1735577199186,123,-104,985,998.0831628677041,9734,-3566,-13535,17048.851486243875
1735577199216,123,-104,985,998.0831628677041,9653,-3552,-15251,18395.382953339133
1735577199246,178,-120,934,958.3527534264197,9503,-3557,-16913,19723.306695379455
1735577199277,178,-120,934,958.3527534264197,9335,-3601,17478,20139.26289614394
1735577199307,178,-120,934,958.3527534264197,9207,-3678,15868,18710.690981361433
1735577199336,228,25,901,929.7365218167995,9145,-3785,14249,17349.099429077003
1735577199366,228,25,901,929.7365218167995,9022,-3931,12668,16041.429767947744
1735577199396,228,25,901,929.7365218167995,8950,-4096,11083,14822.705724664442
1735577199426,228,25,901,929.7365218167995,8927,-4269,9491,13711.118517466035
1735577199456,66,-52,995,998.5414362959606,9091,-4406,7718,12713.246674237073
1735577199486,66,-52,995,998.5414362959606,9323,-4490,5868,11895.87546168839
1735577199516,66,-52,995,998.5414362959606,9536,-4524,4011,11291.146664533235
1735577199546,53,-85,969,974.1637439363057,9741,-4533,2158,10958.655665728347
1735577199576,53,-85,969,974.1637439363057,9938,-4505,302,10915.58853200321
1735577199606,53,-85,969,974.1637439363057,10087,-4437,-1542,11127.097644938684
1735577199636,241,-127,971,1008.4894644962832,10161,-4336,-3361,11547.429930508346
1735577199666,241,-127,971,1008.4894644962832,10048,-4266,-4935,11979.786517296541
1735577199696,241,-127,971,1008.4894644962832,9941,-4216,-6509,12608.140941471109
1735577199726,241,-127,971,1008.4894644962832,9841,-4185,-8083,13405.013800813485
1735577199756,223,-34,941,967.6600642787735,9759,-4194,-9638,14342.899323358579
1735577199786,223,-34,941,967.6600642787735,9673,-4220,-11202,15390.260978943794
1735577199816,223,-34,941,967.6600642787735,9608,-4262,-12768,16537.83939938951
1735577199846,152,-115,943,962.0696440487039,9613,-4299,-14407,17845.246397850606
1735577199876,152,-115,943,962.0696440487039,9704,-4311,-16124,19306.36457233728
1735577199906,152,-115,943,962.0696440487039,9781,-4305,-17839,20794.973118520735
1735577199936,210,-101,902,931.6141905316814,9855,-4290,16441,19642.59672242955
1735577199966,210,-101,902,931.6141905316814,9885,-4285,14781,18290.77393113807
1735577199996,210,-101,902,931.6141905316814,9908,-4274,13123,16989.663592902598
1735577200026,210,-101,902,931.6141905316814,9925,-4259,11465,15750.902545568619
1735577200056,10,-76,979,981.9964358387458,9963,-4204,9693,14522.02582286645
1735577200086,10,-76,979,981.9964358387458,10013,-4123,7854,13377.01812811809
1735577200116,10,-76,979,981.9964358387458,10030,-4033,6023,12375.076484612126
1735577200146,176,-143,955,981.5548889389732,10000,-3942,4242,11555.688123171203
1735577200176,176,-143,955,981.5548889389732,9922,-3877,2573,10958.902408544389
1735577200206,176,-143,955,981.5548889389732,9843,-3829,904,10600.146508421476
1735577200235,66,-224,902,931.7381606438581,9765,-3805,-742,10506.37016290593
1735577200265,66,-224,902,931.7381606438581,9826,-3780,-2464,10812.49147976543
1735577200296,66,-224,902,931.7381606438581,9870,-3742,-4183,11354.160162689268
1735577200326,66,-224,902,931.7381606438581,9895,-3695,-5899,12098.026739927467
1735577200356,79,-80,963,969.5411285757815,9868,-3648,-7657,13012.108860595965
1735577200386,79,-80,963,969.5411285757815,9796,-3619,-9410,14057.271321277114
1735577200416,79,-80,963,969.5411285757815,9730,-3606,-11164,15241.75291756168
1735577200446,-75,-122,1016,1026.0433714029832,9705,-3591,-12982,16601.645400381254
1735577200476,-75,-122,1016,1026.0433714029832,9749,-3551,-14911,18165.641276872117
1735577200506,-75,-122,1016,1026.0433714029832,9773,-3502,-16835,19778.593428249646
1735577200536,146,-124,1020,1037.830429309143,9781,-3454,17243,20122.602366493255
1735577200566,146,-124,1020,1037.830429309143,9668,-3464,15549,18634.40154660192
1735577200595,146,-124,1020,1037.830429309143,9579,-3498,13853,17201.710787011856
1735577200626,146,-124,1020,1037.830429309143,9515,-3550,12156,15840.014551760993
1735577200656,27,-200,1030,1049.585156145036,9515,-3578,10373,14523.650987269008
1735577200686,27,-200,1030,1049.585156145036,9561,-3592,8548,13318.539296784764
1735577200716,27,-200,1030,1049.585156145036,9603,-3595,6723,12261.336101746823
1735577200746,89,-117,1095,1104.8235153181706,9644,-3606,4924,11412.964032187256
1735577200776,89,-117,1095,1104.8235153181706,9637,-3629,3168,10773.933079428329
1735577200806,89,-117,1095,1104.8235153181706,9637,-3653,1412,10402.399819272474
1735577200836,181,-29,1000,1016.6621857824751,9619,-3674,-332,10302.119247999413
1735577200866,181,-29,1000,1016.6621857824751,9440,-3726,-1958,10335.881191267632
1735577200896,181,-29,1000,1016.6621857824751,9304,-3813,-3586,10675.335170382239
1735577200926,181,-29,1000,1016.6621857824751,9211,-3924,-5217,11289.702653303142
1735577200956,83,-145,952,966.5495331331964,9298,-4010,-6970,12292.835474372867
1735577200986,83,-145,952,966.5495331331964,9440,-4062,-8764,13506.33703118651
1735577201016,83,-145,952,966.5495331331964,9570,-4082,-10559,14823.63332654987
1735577201046,-32,-117,959,966.6405743605014,9710,-4097,-12354,16238.559819146525
1735577201106,-32,-117,959,966.6405743605014,9869,-4081,-14213,17778.107070214195
1735577201106,-32,-117,959,966.6405743605014,9991,-4031,-16065,19343.04182387041
1735577201136,23,-63,1014,1016.2155283206413,10084,-3941,-17947,20959.803100220193
1735577201166,23,-63,1014,1016.2155283206413,10067,-3826,16163,19422.28961785917
1735577201196,23,-63,1014,1016.2155283206413,10022,-3718,14280,17837.66823326412
1735577201226,23,-63,1014,1016.2155283206413,9955,-3622,12402,16310.441839508825
1735577201256,38,-95,944,949.5288305259614,9846,-3581,10637,14930.272803937643
1735577201286,38,-95,944,949.5288305259614,9752,-3563,8875,13658.773663839664
1735577201316,38,-95,944,949.5288305259614,9672,-3567,7113,12524.609454989006
1735577201346,68,-100,939,946.7549841432049,9608,-3576,5353,11565.29502433898
1735577201376,68,-100,939,946.7549841432049,9551,-3596,3610,10825.19824298844
1735577201406,68,-100,939,946.7549841432049,9510,-3627,1864,10347.45016900299
1735577201436,74,-44,926,929.9935483647185,9486,-3665,109,10169.970599760847
1735577201466,74,-44,926,929.9935483647185,9431,-3712,-1656,10269.617373592844
1735577201496,74,-44,926,929.9935483647185,9398,-3770,-3425,10689.52426443759
1735577201526,74,-44,926,929.9935483647185,9386,-3833,-5197,11392.879091783605
1735577201556,109,-62,993,1000.8866069640457,9349,-3912,-6887,12253.094058236882
1735577201586,109,-62,993,1000.8866069640457,9334,-3998,-8569,13286.659512458351
1735577201616,109,-62,993,1000.8866069640457,9343,-4083,-10255,14461.243480420348
1735577201646,131,-133,969,986.8186256855918,9409,-4163,-11963,15778.885226783292
1735577201676,131,-133,969,986.8186256855918,9520,-4220,-13673,17186.90574245405
1735577201706,131,-133,969,986.8186256855918,9625,-4255,-15386,18640.671822657037
1735577201736,69,11,959,961.5419907627539,9725,-4263,-17109,20136.20309293686
1735577201766,69,11,959,961.5419907627539,9741,-4246,17079,20114.86609450831
1735577201796,69,11,959,961.5419907627539,9750,-4225,15270,18603.387460352482
1735577201826,69,11,959,961.5419907627539,9751,-4203,13462,17145.630755384882
1735577201856,-5,-92,1055,1059.0155806219284,9837,-4190,11642,15806.923577976835
1735577201886,-5,-92,1055,1059.0155806219284,9943,-4145,9800,14563.113472056722
1735577201916,-5,-92,1055,1059.0155806219284,10016,-4079,7965,13431.296363344827
1735577201946,-15,-150,871,883.9490935568632,10005,-3992,6165,12411.418694089729
1735577201976,-15,-150,871,883.9490935568632,9975,-3902,4380,11571.976019677884
1735577202006,-15,-150,871,883.9490935568632,9928,-3821,2598,10950.562953565446
1735577202036,185,-95,944,966.6364363089154,9903,-3759,806,10623.046926376632
1735577202066,185,-95,944,966.6364363089154,9772,-3765,-800,10502.723884783414
1735577202096,185,-95,944,966.6364363089154,9665,-3797,-2409,10659.864680191771
1735577202126,238,-98,966,999.7019555847633,9602,-3847,-4023,11098.754074219321
1735577202156,238,-98,966,999.7019555847633,9560,-3909,-5585,11741.639834367259
1735577202186,238,-98,966,999.7019555847633,9540,-3978,-7149,12567.58867086284
1735577202216,238,-98,966,999.7019555847633,9538,-4050,-8716,13540.480050574279
1735577202246,195,-74,984,1005.861322449571,9579,-4118,-10366,14702.690944177531
1735577202277,195,-74,984,1005.861322449571,9633,-4174,-12037,15972.048522340521
1735577202306,195,-74,984,1005.861322449571,9691,-4219,-13710,17311.254778322684
1735577202336,50,-91,1017,1022.2866525588603,9752,-4245,-15400,18715.80960044208
1735577202366,50,-91,1017,1022.2866525588603,9926,-4208,-17280,20367.403860089777
1735577202396,50,-91,1017,1022.2866525588603,10054,-4135,16850,20052.52206082816
1735577202426,45,-51,892,894.5892912392815,10087,-4041,15045,18558.805861369423
1735577202456,45,-51,892,894.5892912392815,9974,-3965,13344,17124.959474404604
1735577202486,45,-51,892,894.5892912392815,9863,-3913,11644,15753.509894623483
1735577202516,45,-51,892,894.5892912392815,9761,-3884,9942,14463.95315949274
1735577202546,27,-145,986,996.9704107946234,9788,-3873,8173,13326.777630019944
1735577202576,27,-145,986,996.9704107946234,9834,-3849,6399,12347.85641315933
1735577202606,27,-145,986,996.9704107946234,9864,-3816,4629,11545.041922834234
1735577202636,54,-159,987,1001.1823010820757,9898,-3762,2814,10956.351765072168
1735577202666,54,-159,987,1001.1823010820757,9915,-3697,1009,10629.821964642682
1735577202696,54,-159,987,1001.1823010820757,9911,-3630,-792,10584.521009474165
1735577202726,162,-31,963,977.0230294112827,9877,-3572,-2569,10812.681166112316
1735577202756,162,-31,963,977.0230294112827,9651,-3579,-4195,11115.262794914028
1735577202786,162,-31,963,977.0230294112827,9468,-3631,-5823,11693.353411233238
1735577202816,162,-31,963,977.0230294112827,9329,-3719,-7454,12506.930798561252
1735577202846,41,-248,1006,1036.9286378531554,9425,-3802,-9183,13697.201100954895
1735577202876,41,-248,1006,1036.9286378531554,9602,-3840,-10958,15067.24155245412
1735577202906,41,-248,1006,1036.9286378531554,9755,-3838,-12732,16492.243419256218
1735577202936,55,-49,974,976.7814494553016,9811,-3787,-14538,17942.98007578451
1735577202966,55,-49,974,976.7814494553016,9730,-3741,-16350,19390.473975640718
1735577202996,55,-49,974,976.7814494553016,9652,-3713,17836,20617.234756387676
1735577203026,46,-73,948,951.9185889560094,9573,-3711,16044,19047.933903707246
1735577203056,46,-73,948,951.9185889560094,9518,-3739,14284,17567.15973058821
1735577203086,46,-73,948,951.9185889560094,9481,-3779,12522,16154.58715040406
1735577203116,46,-73,948,951.9185889560094,9460,-3825,10758,14827.568546461014
1735577203146,78,-54,1080,1084.1586599755592,9493,-3873,8972,13624.021506148616
1735577203176,78,-54,1080,1084.1586599755592,9522,-3917,7195,12561.026948462455
1735577203206,78,-54,1080,1084.1586599755592,9558,-3952,5416,11675.047066286286
1735577203236,95,-49,994,999.7309638097641,9551,-3974,3616,10958.546117072283
1735577203266,95,-49,994,999.7309638097641,9524,-3998,1814,10487.191044316873
1735577203296,95,-49,994,999.7309638097641,9508,-4028,10,10326.032539170114
1735577203326,-12,-153,1013,1024.559417505886,9505,-4062,-1778,10488.38181036522
1735577203356,-12,-153,1013,1024.559417505886,9667,-4066,-3654,11105.627447379999
1735577203386,-12,-153,1013,1024.559417505886,9799,-4033,-5525,11950.360454814741
1735577203416,-12,-153,1013,1024.559417505886,9896,-3972,-7389,12973.238647307773
1735577203446,-101,-94,961,970.8542630075844,9954,-3871,-9252,14130.33124169423
1735577203476,-101,-94,961,970.8542630075844,9972,-3755,-11137,15413.42200810709
1735577203507,-101,-94,961,970.8542630075844,9955,-3637,-13013,16782.966454116508
1735577203536,49,-135,966,976.6176324437317,9934,-3551,-14868,18230.50687720997
1735577203566,49,-135,966,976.6176324437317,9887,-3497,-16636,19665.66230768748
1735577203596,49,-135,966,976.6176324437317,9836,-3455,17596,20452.460414336463
1735577203626,-38,-128,1013,1021.7617139039806,9787,-3421,15816,18911.225925359784
1735577203656,-38,-128,1013,1021.7617139039806,9781,-3369,13923,17345.548449097827
1735577203686,-38,-128,1013,1021.7617139039806,9762,-3321,12031,15845.208928884465
1735577203716,-38,-128,1013,1021.7617139039806,9734,-3279,10140,14433.37095068231
1735577203746,3,-28,1012,1012.391722605435,9628,-3246,8273,13102.57337319658
1735577203776,3,-28,1012,1012.391722605435,9503,-3251,6417,11918.636625050702
1735577203806,3,-28,1012,1012.391722605435,9404,-3285,4558,10954.533536394874
1735577203836,259,2,987,1020.4185415798754,9267,-3378,2848,10266.415002326761
1735577203866,259,2,987,1020.4185415798754,9066,-3538,1347,9824.673480579393
1735577203896,259,2,987,1020.4185415798754,8930,-3732,-150,9679.629331746128
1735577203926,-15,-113,1009,1015.418632880055,8857,-3931,-1677,9834.202509609002
1735577203956,-15,-113,1009,1015.418632880055,9127,-4067,-3578,10613.420843441572
1735577203986,-15,-113,1009,1015.418632880055,9386,-4136,-5491,11634.198425332104
1735577204016,-15,-113,1009,1015.418632880055,9617,-4144,-7405,12825.499990253791
1735577204046,-60,-83,984,989.3154198737631,9786,-4112,-9340,14138.951163364276
1735577204077,-60,-83,984,989.3154198737631,9912,-4041,-11283,15552.604733612952
1735577204106,-60,-83,984,989.3154198737631,9991,-3944,-13213,17028.170365602993
1735577204136,114,-94,946,957.4695817622616,9971,-3858,-15058,18467.494930282235
1735577204166,114,-94,946,957.4695817622616,9864,-3818,-16771,19827.81029261678
1735577204196,114,-94,946,957.4695817622616,9767,-3800,17514,20410.156417822967
1735577204226,58,-109,955,962.948596758934,9672,-3797,15797,18907.934895170336
1735577204256,58,-109,955,962.948596758934,9616,-3791,14018,17416.75805079694
1735577204286,58,-109,955,962.948596758934,9568,-3797,12238,15991.637721009065
1735577204316,58,-109,955,962.948596758934,9532,-3813,10457,14654.243139787193
1735577204346,164,-169,967,995.2617746100772,9461,-3860,8835,13508.04745327762
1735577204376,164,-169,967,995.2617746100772,9408,-3923,7249,12507.933242546507
1735577204406,164,-169,967,995.2617746100772,9379,-3995,5660,11660.242964878562
1735577204436,198,-61,920,943.0402960637472,9400,-4088,4065,11027.05622548466
1735577204466,198,-61,920,943.0402960637472,9400,-4191,2483,10587.24562858537
1735577204496,198,-61,920,943.0402960637472,9424,-4293,895,10394.35664194759
1735577204526,116,-24,1003,1009.9707916568676,9475,-4378,-712,10461.809260352627
1735577204556,116,-24,1003,1009.9707916568676,9583,-4418,-2452,10833.508988319529
1735577204586,116,-24,1003,1009.9707916568676,9683,-4436,-4194,11446.755915978989
1735577204616,116,-24,1003,1009.9707916568676,9768,-4434,-5934,12259.140916067488
1735577204646,62,-1,987,988.9459034750081,9866,-4399,-7779,13311.724080674148
1735577204706,62,-1,987,988.9459034750081,9940,-4340,-9636,14508.331950985958
1735577204706,62,-1,987,988.9459034750081,9982,-4268,-11485,15803.840450978996
1735577204736,104,-103,963,974.0605730651457,9996,-4211,-13259,17130.48796736392
1735577204766,104,-103,963,974.0605730651457,10020,-4160,-14973,18490.449670032365
1735577204796,104,-103,963,974.0605730651457,10026,-4106,-16683,19892.269880533997
1735577204826,51,-77,952,956.469549959642,10021,-4042,17585,20639.535605240733
1735577204856,51,-77,952,956.469549959642,10017,-3951,15754,19082.43186808222
1735577204886,51,-77,952,956.469549959642,9988,-3864,13929,17570.0791404023
1735577204916,51,-77,952,956.469549959642,9941,-3784,12109,16117.382479794913
1735577204946,24,-97,970,975.1333242177708,9941,-3708,10246,14749.68681023431
1735577204975,24,-97,970,975.1333242177708,9930,-3631,8378,13489.994255002483
1735577205005,24,-97,970,975.1333242177708,9899,-3558,6514,12372.62142797556
1735577205035,20,-69,1034,1036.4926434857123,9847,-3501,4684,11452.52225494454
1735577205065,20,-69,1034,1036.4926434857123,9777,-3464,2869,10761.978721406207
1735577205095,20,-69,1034,1036.4926434857123,9712,-3444,1053,10358.22808206114
1735577205125,130,-185,939,965.8395311851757,9632,-3444,-743,10256.149813648395
1735577205155,130,-185,939,965.8395311851757,9562,-3480,-2389,10452.251671290736
1735577205185,130,-185,939,965.8395311851757,9513,-3529,-4037,10920.090613177164
1735577205215,130,-185,939,965.8395311851757,9484,-3587,-5687,11625.609403381828
1735577205245,-8,-69,972,974.4788350703159,9526,-3609,-7541,12674.235203750955
1735577205275,-8,-69,972,974.4788350703159,9561,-3619,-9445,13918.258044741087
1735577205305,-8,-69,972,974.4788350703159,9591,-3619,-11348,15292.532360600058
1735577205335,-8,-200,1104,1121.9982174673898,9654,-3618,-13244,16783.717585803213
1735577205366,-8,-200,1104,1121.9982174673898,9772,-3590,-15133,18368.118384853686
1735577205395,-8,-200,1104,1121.9982174673898,9858,-3535,-17018,19982.20991281995
1735577205425,52,-148,969,981.6155051750151,9893,-3462,17115,20069.382601365694
1735577205455,52,-148,969,981.6155051750151,9798,-3410,15337,18516.275894466467
1735577205485,52,-148,969,981.6155051750151,9707,-3381,13559,17014.802114629485
1735577205515,52,-148,969,981.6155051750151,9627,-3373,11779,15582.076209542809
1735577205545,208,-73,952,977.1883134790346,9458,-3401,10117,14260.934541607012
1735577205575,208,-73,952,977.1883134790346,9282,-3479,8506,13061.814613597913
1735577205605,208,-73,952,977.1883134790346,9154,-3591,6895,12009.663692210535
1735577205635,99,-140,961,976.1772380054762,9119,-3723,5251,11161.98418741041
1735577205665,99,-140,961,976.1772380054762,9202,-3842,3526,10576.88252747472
1735577205695,99,-140,961,976.1772380054762,9299,-3939,1796,10257.326064818257
1735577205725,-52,-55,1012,1014.8265861712532,9417,-4007,43,10234.148083743952
1735577205755,-52,-55,1012,1014.8265861712532,9585,-4018,-1914,10567.873248672127
1735577205785,-52,-55,1012,1014.8265861712532,9723,-3990,-3868,11199.029109704108
1735577205815,-52,-55,1012,1014.8265861712532,9824,-3931,-5814,12073.372892443935
1735577205845,-105,-128,938,952.4982939617267,9940,-3866,-7755,13186.719872659765
1735577205875,-105,-128,938,952.4982939617267,10040,-3766,-9704,14462.087401201807
1735577205905,-105,-128,938,952.4982939617267,10089,-3644,-11640,15828.968917778568
1735577205935,-91,-167,992,1010.0663344553169,10050,-3515,-13524,17212.09751889641
1735577205965,-91,-167,992,1010.0663344553169,9975,-3398,-15375,18639.679557331452
1735577205995,-91,-167,992,1010.0663344553169,9884,-3302,-17225,20131.996547784325
1735577206025,7,-134,1020,1028.788122015413,9800,-3227,16911,19809.98359413758
1735577206055,7,-134,1020,1028.788122015413,9665,-3188,15119,18225.24979252685
1735577206085,7,-134,1020,1028.788122015413,9546,-3182,13324,16696.712730355037
1735577206115,77,-28,844,847.9675701346131,9459,-3210,11534,15258.110531779485
1735577206145,77,-28,844,847.9675701346131,9296,-3292,9822,13918.497188992784
1735577206175,77,-28,844,847.9675701346131,9182,-3407,8109,12715.056193348106
1735577206205,77,-28,844,847.9675701346131,9116,-3543,6394,11684.927941583552
1735577206235,146,-14,1011,1021.5835746526077,9075,-3686,4684,10857.351288412841
1735577206265,146,-14,1011,1021.5835746526077,9060,-3837,2994,10284.464254398476
1735577206295,146,-14,1011,1021.5835746526077,9083,-3986,1297,10003.56406487208
1735577206325,57,-3,1013,1014.6068203989169,9151,-4124,-427,10046.417570457641
1735577206355,57,-3,1013,1014.6068203989169,9320,-4228,-2307,10490.978648343538
1735577206385,57,-3,1013,1014.6068203989169,9489,-4293,-4195,11228.045021284872
1735577206415,85,-82,1026,1032.7753870033891,9640,-4315,-6095,12194.172788672466
1735577206444,85,-82,1026,1032.7753870033891,9802,-4295,-7980,13349.405567290252
1735577206475,85,-82,1026,1032.7753870033891,9925,-4242,-9856,14616.460754916014
1735577206505,85,-82,1026,1032.7753870033891,10008,-4164,-11722,15965.72090448784
1735577206535,-120,-159,1105,1122.811649387376,10154,-4027,-13673,17500.610675059314
1735577206565,-120,-159,1105,1122.811649387376,10282,-3832,-15672,19131.527173751707
1735577206595,-120,-159,1105,1122.811649387376,10321,-3611,-17647,20760.03302020495
1735577206625,71,-98,964,971.5662612503586,10207,-3411,16485,19686.87367257686
1735577206655,71,-98,964,971.5662612503586,9962,-3290,14754,18103.758173373837
1735577206686,71,-98,964,971.5662612503586,9737,-3227,13017,16573.01985155391
1735577206716,31,-16,949,949.6409847937272,9557,-3220,11275,15127.137006056368
1735577206746,31,-16,949,949.6409847937272,9397,-3261,9490,13747.648162504014
1735577206806,31,-16,949,949.6409847937272,9278,-3338,7702,12511.767740811048
1735577206807,31,-16,949,949.6409847937272,9200,-3440,5911,11463.573657459527
1735577206836,106,-55,920,927.7181684110751,9146,-3566,4179,10669.100852461748
1735577206866,106,-55,920,927.7181684110751,9128,-3701,2468,10154.250784769894
1735577206896,106,-55,920,927.7181684110751,9146,-3835,752,9945.956213456804
1735577206926,-73,-101,1002,1009.7197631026145,9234,-3949,-1038,10096.474681788688
1735577206956,-73,-101,1002,1009.7197631026145,9427,-4013,-2968,10666.842175639424
1735577206986,-73,-101,1002,1009.7197631026145,9601,-4031,-4899,11507.75230008015
1735577207016,-98,-56,952,958.6678256831195,9759,-4000,-6850,12576.191037035022
1735577207046,-98,-56,952,958.6678256831195,9873,-3914,-8862,13832.229357554768
1735577207076,-98,-56,952,958.6678256831195,9936,-3804,-10860,15203.0954742776
1735577207106,-98,-56,952,958.6678256831195,9952,-3683,-12846,16662.12798534449
1735577207136,137,-100,1088,1101.141680257359,9904,-3599,-14695,18082.727725650242
1735577207166,137,-100,1088,1101.141680257359,9815,-3547,-16461,19490.509357120456
1735577207196,137,-100,1088,1101.141680257359,9731,-3516,17770,20562.77016843791
1735577207226,152,-21,937,949.4809108139036,9589,-3524,16068,19040.69644209476
1735577207256,152,-21,937,949.4809108139036,9412,-3584,14406,17577.361462972764
1735577207286,152,-21,937,949.4809108139036,9281,-3679,12741,16186.571069871468
1735577207316,125,-122,975,990.522084559451,9191,-3795,11074,14883.21141420762
1735577207346,125,-122,975,990.522084559451,9235,-3903,9376,13726.908246214805
1735577207376,125,-122,975,990.522084559451,9298,-3999,7672,12700.566483428996
1735577207406,125,-122,975,990.522084559451,9374,-4079,5964,11835.514902191624
1735577207436,-95,-49,917,923.2090770784265,9580,-4065,3982,11142.573715259863
1735577207466,-95,-49,917,923.2090770784265,9766,-3990,1929,10724.546470597254
1735577207496,-95,-49,917,923.2090770784265,9887,-3873,-106,10619.04581400796
1735577207526,63,-127,968,978.3261214952813,9904,-3780,-2008,10789.331768001204
1735577207556,63,-127,968,978.3261214952813,9863,-3725,-3763,11194.398733295147
1735577207586,63,-127,968,978.3261214952813,9816,-3679,-5517,11845.93542106321
1735577207616,37,-130,871,881.4249826275632,9754,-3647,-7251,12689.291784808165
1735577207645,37,-130,871,881.4249826275632,9690,-3629,-8974,13696.65714690997
1735577207677,37,-130,871,881.4249826275632,9634,-3625,-10698,14845.934965504866
1735577207706,37,-130,871,881.4249826275632,9587,-3633,-12424,16107.918363339193
1735577207736,61,-22,936,938.2435717871986,9485,-3660,-14124,17402.53432693066
1735577207766,61,-22,936,938.2435717871986,9377,-3717,-15818,18760.41955820818
1735577207796,61,-22,936,938.2435717871986,9302,-3795,-17515,20191.692697740822
1735577207826,120,-43,998,1006.10784710189,9307,-3889,16751,19553.530908764278
1735577207856,120,-43,998,1006.10784710189,9348,-3982,15029,18141.45167840766
1735577207886,120,-43,998,1006.10784710189,9404,-4064,13303,16790.506871443755
1735577207916,13,-14,1026,1026.1778598274277,9476,-4124,11550,15498.530640031655
1735577207946,13,-14,1026,1026.1778598274277,9605,-4133,9633,14217.327561816954
1735577207976,13,-14,1026,1026.1778598274277,9712,-4114,7719,13070.229569521724
1735577208006,13,-14,1026,1026.1778598274277,9792,-4072,5811,12092.649378858216
1735577208036,59,-59,935,938.715611886795,9776,-4042,4021,11317.083590748987
1735577208066,59,-59,935,938.715611886795,9758,-4017,2250,10789.687344867783
1735577208096,59,-59,935,938.715611886795,9736,-3996,480,10535.089558233476
1735577208126,11,-187,1008,1025.2580163061393,9740,-3984,-1275,10600.258534583012
1735577208156,11,-187,1008,1025.2580163061393,9816,-3956,-3049,11013.636683675379
1735577208186,11,-187,1008,1025.2580163061393,9869,-3912,-4819,11658.630537074241
1735577208216,46,-88,930,935.2860524994479,9925,-3852,-6614,12533.496120396734
1735577208247,46,-88,930,935.2860524994479,9894,-3787,-8423,13534.383399327802
1735577208276,46,-88,930,935.2860524994479,9852,-3731,-10230,14684.521272414706
1735577208306,46,-88,930,935.2860524994479,9804,-3685,-12036,15955.028580356728
1735577208336,39,-95,956,961.499869994791,9730,-3652,-13836,17304.476299501235
1735577208366,39,-95,956,961.499869994791,9664,-3635,-15639,18739.915741539502
1735577208396,39,-95,956,961.499869994791,9607,-3634,-17444,20243.357947731893
1735577208426,-133,-95,895,909.8016267296954,9593,-3624,16700,19597.168800620155
1735577208456,-133,-95,895,909.8016267296954,9639,-3587,14732,17966.87824859956
1735577208486,-133,-95,895,909.8016267296954,9664,-3541,12767,16399.020275614028
1735577208516,8,0,946,946.0338260337206,9679,-3501,10807,14924.18476835502
1735577208546,8,0,946,946.0338260337206,9549,-3522,8993,13581.676406099506
1735577208576,8,0,946,946.0338260337206,9449,-3572,7176,12391.035509593215
1735577208606,8,0,946,946.0338260337206,9381,-3643,5356,11400.059034934862
1735577208636,-58,-106,1087,1093.695112908529,9513,-3712,3408,10765.248580501984
1735577208666,-58,-106,1087,1093.695112908529,9677,-3734,1434,10471.0764012111
1735577208696,-58,-106,1087,1093.695112908529,9815,-3716,-537,10508.62740799197
1735577208725,-46,-96,1005,1010.6220856482407,9838,-3666,-2452,10781.377648519692
1735577208756,-46,-96,1005,1010.6220856482407,9798,-3619,-4334,11308.471205251397
1735577208786,-46,-96,1005,1010.6220856482407,9753,-3584,-6215,12107.530301428116
1735577208816,-5,-100,1002,1006.9900694644411,9725,-3560,-8094,13143.898242150233
1735577208846,-5,-100,1002,1006.9900694644411,9707,-3548,-9930,14332.447557901616
1735577208876,-5,-100,1002,1006.9900694644411,9689,-3540,-11766,15647.590133947144
1735577208906,-5,-100,1002,1006.9900694644411,9673,-3537,-13602,17061.409730734445
1735577208936,-62,-123,898,908.5026141954684,9645,-3540,-15439,18545.089538743134
1735577208966,-62,-123,898,908.5026141954684,9639,-3542,-17295,20114.002833846873
1735577208996,-62,-123,898,908.5026141954684,9635,-3546,16847,19728.8811137378
1735577209026,41,-79,1016,1019.8911706647921,9618,-3560,15004,18174.144821696562
1735577209056,41,-79,1016,1019.8911706647921,9559,-3597,13220,16705.726263769557
1735577209086,41,-79,1016,1019.8911706647921,9520,-3647,11434,15318.85651737753
1735577209116,-22,-131,997,1005.8101212455559,9523,-3703,9627,14038.478087029234
1735577209146,-22,-131,997,1005.8101212455559,9657,-3734,7714,12911.475554714883
1735577209176,-22,-131,997,1005.8101212455559,9773,-3733,5802,11962.860109522304
1735577209206,-22,-131,997,1005.8101212455559,9866,-3704,3893,11234.456862705914
1735577209236,85,-95,1002,1010.076234746665,9810,-3675,2114,10686.941611143948
1735577209266,85,-95,1002,1010.076234746665,9729,-3671,372,10405.194183675767
1735577209296,85,-95,1002,1010.076234746665,9663,-3684,-1371,10431.92532565298
1735577209326,-30,-47,942,943.6487694052274,9652,-3700,-3186,10816.73240863432
1735577209356,-30,-47,942,943.6487694052274,9679,-3703,-5098,11549.23607863308
1735577209386,-30,-47,942,943.6487694052274,9701,-3699,-7009,12526.694815473074
1735577209416,101,-113,1038,1049.0061963592018,9684,-3693,-8887,13652.72405053292
1735577209446,101,-113,1038,1049.0061963592018,9585,-3721,-10561,14739.497515180088
1735577209506,101,-113,1038,1049.0061963592018,9510,-3769,-12238,15950.363788954784
1735577209507,101,-113,1038,1049.0061963592018,9460,-3831,-13917,17258.36174148636
1735577209536,37,-87,878,883.0753082268805,9501,-3905,-15698,18760.203357106766
1735577209566,37,-87,878,883.0753082268805,9559,-3965,-17507,20336.930815636857
1735577209596,37,-87,878,883.0753082268805,9623,-4010,16681,19670.739437042015
1735577209626,123,-74,950,960.7835344134495,9670,-4036,14871,18191.889319144397
1735577209656,123,-74,950,960.7835344134495,9674,-4061,13109,16790.58897120646
1735577209686,123,-74,950,960.7835344134495,9684,-4085,11346,15466.053051764693
1735577209716,65,-5,901,903.3554117843098,9697,-4106,9591,14243.536288436238
1735577209746,65,-5,901,903.3554117843098,9693,-4123,7790,13101.048736647002
1735577209776,65,-5,901,903.3554117843098,9694,-4140,5987,12122.598937521607
1735577209806,65,-5,901,903.3554117843098,9700,-4157,4184,11352.37882560303
1735577209836,-88,-99,1000,1008.7343555168526,9846,-4131,2238,10909.515158796014
1735577209866,-88,-99,1000,1008.7343555168526,10007,-4052,247,10799.063014910136
1735577209896,-88,-99,1000,1008.7343555168526,10109,-3937,-1728,10985.346330453127
1735577209926,-74,-130,981,992.339155732555,10181,-3839,-3615,11465.553061235205
1735577209956,-74,-130,981,992.339155732555,10215,-3726,-5487,12179.346041557405
1735577209986,-74,-130,981,992.339155732555,10210,-3607,-7350,13087.285776661256
1735577210016,9,-164,927,941.4382613852063,10172,-3480,-9229,14168.783469303213
1735577210046,9,-164,927,941.4382613852063,10088,-3360,-11063,15344.292521977024
1735577210076,9,-164,927,941.4382613852063,9988,-3263,-12898,16636.27713762908
1735577210106,65,-145,978,990.8249088512057,9880,-3198,-14710,18006.268464065506
1735577210136,65,-145,978,990.8249088512057,9730,-3187,-16423,19353.159897029735
1735577210166,65,-145,978,990.8249088512057,9606,-3210,17860,20531.900447839696
1735577210196,65,-145,978,990.8249088512057,9511,-3259,16143,19017.798268990024
1735577210226,81,-36,925,929.2373216783751,9388,-3340,14428,17534.461155108245
1735577210256,81,-36,925,929.2373216783751,9278,-3453,12717,16116.034934188992
1735577210286,81,-36,925,929.2373216783751,9215,-3586,11004,14794.04059072436
1735577210316,102,-133,1011,1024.7994925837932,9210,-3721,9262,13581.405855065226
1735577210346,102,-133,1011,1024.7994925837932,9331,-3826,7487,12560.294821380587
1735577210376,102,-133,1011,1024.7994925837932,9457,-3902,5707,11714.533793540399
1735577210406,155,-105,1060,1076.4060572107535,9576,-3949,3925,11077.003295115515
1735577210436,155,-105,1060,1076.4060572107535,9619,-3990,2205,10644.589517684559
1735577210466,155,-105,1060,1076.4060572107535,9664,-4021,483,10478.293086185364
1735577210496,155,-105,1060,1076.4060572107535,9709,-4042,-1239,10589.502632324145
1735577210526,61,-90,1130,1135.218481174439,9805,-4021,-3091,11039.055530252577
1735577210556,61,-90,1130,1135.218481174439,9890,-3973,-4972,11760.850862076264
1735577210586,61,-90,1130,1135.218481174439,9944,-3906,-6846,12688.880486473186
1735577210616,-21,-131,998,1006.7800156935973,9964,-3821,-8732,13788.73311802067
1735577210646,-21,-131,998,1006.7800156935973,9991,-3713,-10662,15075.9641151072
1735577210676,-21,-131,998,1006.7800156935973,9982,-3603,-12584,16461.439457107022
1735577210704,-43,-89,969,974.0282336770326,9944,-3501,-14493,17921.69595769329
1735577210736,-43,-89,969,974.0282336770326,9866,-3421,-16409,19449.845192185978
1735577210766,-43,-89,969,974.0282336770326,9782,-3361,17676,20479.86379349238
1735577210796,-43,-89,969,974.0282336770326,9698,-3325,15761,18802.019838304608
1735577210826,83,-1,920,923.7369755509411,9475,-3350,14058,17280.78380745503
1735577210856,83,-1,920,923.7369755509411,9257,-3437,12395,15847.430170220028
1735577210886,83,-1,920,923.7369755509411,9098,-3567,10730,14513.097291756849
1735577210916,163,-64,969,984.695892141325,9019,-3738,9068,13324.549861064726
1735577210946,163,-64,969,984.695892141325,9004,-3924,7445,12324.683241365678
1735577210976,163,-64,969,984.695892141325,9035,-4107,5815,11502.734414042601
1735577211005,34,-224,1048,1072.2108001694444,9129,-4270,4129,10891.289271707
1735577211036,34,-224,1048,1072.2108001694444,9520,-4347,2189,10691.984380834083
1735577211066,34,-224,1048,1072.2108001694444,9860,-4335,248,10773.733289811847
1735577211096,34,-224,1048,1072.2108001694444,10128,-4249,-1676,11110.326772872164
1735577211126,141,-77,946,959.5446836911765,10145,-4152,-3409,11479.608442799781
1735577211156,141,-77,946,959.5446836911765,10076,-4073,-5097,12003.937437357794
1735577211186,141,-77,946,959.5446836911765,10001,-4008,-6783,12731.580970170202
1735577211216,-36,-29,1029,1030.0378633817302,9977,-3942,-8531,13706.124689349648
1735577211246,-36,-29,1029,1030.0378633817302,9995,-3850,-10400,14929.250650987142
1735577211276,-36,-29,1029,1030.0378633817302,9984,-3756,-12262,16252.520912153905
1735577211306,-7,-154,1046,1057.2989170523158,9936,-3678,-14100,17636.94361276919
1735577211336,-7,-154,1046,1057.2989170523158,9939,-3626,-15867,19070.744243474088
1735577211366,-7,-154,1046,1057.2989170523158,9927,-3574,-17632,20547.657506392305
1735577211396,-7,-154,1046,1057.2989170523158,9905,-3526,16603,19652.005241196126
1735577211426,-42,-140,1003,1013.5941002196096,9880,-3453,14749,18085.09358560248
1735577211456,-42,-140,1003,1013.5941002196096,9842,-3387,12884,16563.03682903591
1735577211487,-42,-140,1003,1013.5941002196096,9793,-3331,11021,15114.921468535653
1735577211515,192,-58,949,969.9634013714126,9669,-3304,9234,13772.17241396578
1735577211546,192,-58,949,969.9634013714126,9443,-3349,7602,12576.82209463106
1735577211576,192,-58,949,969.9634013714126,9267,-3439,5968,11546.472794754249
1735577211606,150,-112,955,973.1747016851599,9152,-3554,4314,10723.83401587324
1735577211636,150,-112,955,973.1747016851599,9168,-3656,2575,10200.450235161192
1735577211666,150,-112,955,973.1747016851599,9206,-3751,831,9975.51993632412
1735577211696,150,-112,955,973.1747016851599,9261,-3835,-916,10065.406201440655
1735577211726,-69,-195,1048,1068.218142515844,9482,-3888,-2787,10620.368967225197
1735577211756,-69,-195,1048,1068.218142515844,9738,-3867,-4735,11497.937119327102
1735577211786,-69,-195,1048,1068.218142515844,9935,-3786,-6673,12552.567466458804
1735577211816,48,-18,932,933.4088064722766,9963,-3665,-8540,13624.433713002534
1735577211846,48,-18,932,933.4088064722766,9807,-3578,-10314,14675.078500641828
1735577211906,48,-18,932,933.4088064722766,9661,-3528,-12091,15873.688481257279
1735577211906,62,-136,1046,1056.6248151543668,9519,-3517,-13855,17173.866046991283
1735577211936,62,-136,1046,1056.6248151543668,9470,-3536,-15576,18568.682559621724
1735577211966,62,-136,1046,1056.6248151543668,9434,-3565,-17298,20023.24611545291
1735577211996,62,-136,1046,1056.6248151543668,9412,-3601,16977,19742.630878380925
1735577212026,92,-42,925,930.5122245301241,9335,-3664,15280,18276.9122392159
1735577212056,92,-42,925,930.5122245301241,9258,-3750,13592,16867.58809077338
1735577212086,92,-42,925,930.5122245301241,9216,-3848,11899,15534.734017677934
1735577212116,-15,-30,992,992.5668743213225,9192,-3947,10194,14282.482592322667
1735577212146,-15,-30,992,992.5668743213225,9221,-4037,8419,13122.643445586717
1735577212176,-15,-30,992,992.5668743213225,9268,-4118,6637,12120.376108025692
1735577212206,99,-80,960,968.4012598091764,9345,-4195,4851,11333.986544901136
1735577212236,99,-80,960,968.4012598091764,9419,-4281,3192,10827.436723435514
1735577212266,99,-80,960,968.4012598091764,9502,-4350,1528,10561.500272215117
1735577212296,99,-80,960,968.4012598091764,9587,-4403,-140,10550.66718269513
1735577212326,142,16,915,926.0912482039769,9649,-4410,-1880,10774.307448741196
1735577212356,142,16,915,926.0912482039769,9669,-4416,-3604,11224.055995940149
1735577212386,142,16,915,926.0912482039769,9686,-4417,-5327,11904.008316529353
1735577212416,44,-84,1003,1007.472580272039,9713,-4415,-7035,12779.899021510302
1735577212446,44,-84,1003,1007.472580272039,9815,-4387,-8791,13887.46467142221
1735577212476,44,-84,1003,1007.472580272039,9889,-4340,-10540,15090.378424678422
1735577212506,159,-2,928,941.5248270757389,9927,-4286,-12269,16353.699459143794
1735577212536,159,-2,928,941.5248270757389,9781,-4281,-13836,17476.550517765227
1735577212566,159,-2,928,941.5248270757389,9660,-4301,-15406,18685.797735178447
1735577212596,159,-2,928,941.5248270757389,9565,-4343,-16978,19965.05341841088
1735577212626,-30,-84,1015,1018.9116742878158,9715,-4334,17195,20219.614388014426
1735577212656,-30,-84,1015,1018.9116742878158,9894,-4271,15305,18718.325299021813
1735577212686,-30,-84,1015,1018.9116742878158,10018,-4172,13428,17264.909267065377
1735577212716,2,-63,994,995.996485937576,10056,-4061,11597,15877.823087564617
1735577212746,2,-63,994,995.996485937576,10025,-3958,9808,14572.6885988825
1735577212776,2,-63,994,995.996485937576,9972,-3864,8024,13369.960957310235
1735577212806,113,-72,995,1003.9810755188565,9894,-3779,6241,12293.175261095077
1735577212836,113,-72,995,1003.9810755188565,9732,-3731,4572,11381.360595289123
1735577212866,113,-72,995,1003.9810755188565,9589,-3717,2901,10685.542148155142
1735577212897,113,-72,995,1003.9810755188565,9469,-3733,1227,10251.964640984674
1735577212926,-7,-84,914,917.87853226884,9482,-3747,-589,10212.504785800593
1735577212956,-7,-84,914,917.87853226884,9521,-3748,-2448,10520.914836647999
1735577212986,-7,-84,914,917.87853226884,9552,-3740,-4307,11125.581018535617
1735577213017,7,-122,1003,1010.4167457044642,9598,-3725,-6172,12003.783278616787
1735577213047,7,-122,1003,1010.4167457044642,9652,-3698,-8032,13090.04705873894
1735577213076,7,-122,1003,1010.4167457044642,9688,-3659,-9888,14318.455538220594
1735577213106,46,5,914,915.1704759223825,9710,-3617,-11739,15657.934410387597
1735577213136,46,5,914,915.1704759223825,9603,-3604,-13544,16989.59566911467
1735577213166,46,5,914,915.1704759223825,9513,-3616,-15351,18418.084210905323
1735577213196,46,5,914,915.1704759223825,9443,-3647,-17161,19924.12555170239
1735577213226,138,-93,995,1008.820102892483,9401,-3696,17081,19844.389081047568
1735577213256,138,-93,995,1008.820102892483,9387,-3753,15353,18382.474996583023
1735577213286,138,-93,995,1008.820102892483,9390,-3810,13622,16977.84096992312
1735577213317,77,-29,990,993.4133077425529,9401,-3866,11889,15642.029216185476
1735577213347,77,-29,990,993.4133077425529,9415,-3917,10121,14367.315511256791
1735577213376,77,-29,990,993.4133077425529,9440,-3964,8349,13211.082355356051
1735577213406,51,-192,1013,1032.295500329242,9452,-4012,6594,12203.166965996983
1735577213436,51,-192,1013,1032.295500329242,9586,-4049,4843,11477.824096927083
1735577213466,51,-192,1013,1032.295500329242,9704,-4058,3093,10963.650350134301
1735577213496,51,-192,1013,1032.295500329242,9803,-4042,1345,10688.573244357733
1735577213526,22,-6,944,944.2753835613846,9833,-3978,-495,10618.728643298124
1735577213556,22,-6,944,944.2753835613846,9799,-3918,-2342,10809.999491211829
1735577213586,22,-6,944,944.2753835613846,9755,-3868,-4187,11298.33695726942
1735577213616,104,-40,961,967.4383701301081,9719,-3856,-5986,12048.231944978483
1735577213646,104,-40,961,967.4383701301081,9683,-3872,-7720,12975.024971074237
1735577213706,104,-40,961,967.4383701301081,9658,-3895,-9456,14066.411233857767
1735577213706,16,-156,945,957.9232745893587,9639,-3914,-11207,15291.388622358663
1735577213736,16,-156,945,957.9232745893587,9767,-3887,-13082,16782.18644873188
1735577213766,16,-156,945,957.9232745893587,9861,-3833,-14950,18314.84943973059
1735577213796,86,-72,919,925.8190968002334,9919,-3767,-16795,19865.771442357833
1735577213826,86,-72,919,925.8190968002334,9837,-3733,17468,20391.98082580503
1735577213856,86,-72,919,925.8190968002334,9763,-3717,15731,18883.766017402355
1735577213886,86,-72,919,925.8190968002334,9699,-3718,13992,17426.135228443512
1735577213916,-2,-95,962,966.6814366687714,9685,-3692,12175,15989.393797139403
1735577213946,-2,-95,962,966.6814366687714,9688,-3660,10329,14626.728444871054
1735577213976,-2,-95,962,966.6814366687714,9682,-3629,8484,13374.940037248765
1735577214006,17,-132,1000,1008.8176247469113,9666,-3605,6641,12269.08562200134
1735577214036,17,-132,1000,1008.8176247469113,9662,-3592,4824,11381.022976868117
1735577214066,17,-132,1000,1008.8176247469113,9655,-3581,3006,10727.470438085578
1735577214096,20,-116,997,1003.9247979804065,9651,-3576,1191,10360.890791819013
1735577214126,20,-116,997,1003.9247979804065,9643,-3582,-616,10305.223384284302
1735577214156,20,-116,997,1003.9247979804065,9638,-3590,-2424,10566.689169271518
1735577214186,20,-116,997,1003.9247979804065,9636,-3598,-4234,11123.16753447506
1735577214216,122,-114,1024,1037.5239756265876,9548,-3624,-5914,11801.401442201684
1735577214246,122,-114,1024,1037.5239756265876,9464,-3675,-7561,12658.658775715538
1735577214276,122,-114,1024,1037.5239756265876,9407,-3742,-9210,13686.428058481877
1735577214306,-41,-73,1047,1050.342325149282,9418,-3797,-10987,14960.952576624257
1735577214336,-41,-73,1047,1050.342325149282,9491,-3822,-12917,16478.33893327844
1735577214366,-41,-73,1047,1050.342325149282,9556,-3828,-14847,18066.657936652256
1735577214396,214,-19,992,1014.9980295547376,9613,-3832,-16759,19696.65133975824
1735577214426,214,-19,992,1014.9980295547376,9468,-3902,17639,20396.150347553335
1735577214456,214,-19,992,1014.9980295547376,9364,-3998,16035,18994.465641338797
1735577214486,214,-19,992,1014.9980295547376,9298,-4111,14428,17649.937931902197
1735577214516,109,-180,1000,1021.9006801054592,9437,-4184,12686,16355.348391275558
1735577214546,109,-180,1000,1021.9006801054592,9633,-4210,10901,15144.325339875659
1735577214576,109,-180,1000,1021.9006801054592,9799,-4194,9119,14027.337523564478
1735577214606,125,-154,982,1001.8308240416642,9896,-4157,7355,13011.821163849432
1735577214636,125,-154,982,1001.8308240416642,9935,-4114,5611,12128.995918871438
1735577214666,125,-154,982,1001.8308240416642,9956,-4063,3872,11429.01084958799
1735577214696,62,-85,1006,1011.4865298163886,9972,-4007,2131,10956.18519376156
1735577214726,62,-85,1006,1011.4865298163886,9976,-3935,316,10728.683842857892
1735577214756,62,-85,1006,1011.4865298163886,9960,-3863,-1494,10786.862611528897
1735577214786,62,-85,1006,1011.4865298163886,9928,-3796,-3301,11129.752962217985
1735577214816,67,-78,948,953.5601711481032,9789,-3748,-5027,11625.091569531829
1735577214846,67,-78,948,953.5601711481032,9663,-3731,-6754,12365.696341088114
1735577214876,67,-78,948,953.5601711481032,9557,-3741,-8482,13314.49037702908
1735577214906,94,-4,948,952.6573360868009,9492,-3778,-10219,14449.889584353232
1735577214936,94,-4,948,952.6573360868009,9421,-3837,-11948,15691.797666296874
1735577214966,94,-4,948,952.6573360868009,9378,-3909,-13681,17041.036529507237
1735577214996,142,-41,953,964.3930733886468,9379,-3984,-15432,18492.82349994181
1735577215026,142,-41,953,964.3930733886468,9428,-4049,-17165,19997.97014699242
1735577215056,142,-41,953,964.3930733886468,9484,-4102,17097,19976.988486756458
1735577215086,142,-41,953,964.3930733886468,9544,-4142,15358,18550.263178726065
1735577215116,113,-36,936,943.4834391763324,9535,-4195,13699,17209.789394411542
1735577215146,113,-36,936,943.4834391763324,9545,-4247,12026,15930.119585238524
1735577215176,113,-36,936,943.4834391763324,9565,-4296,10349,14732.502910232191
1735577215206,-71,-146,956,969.6870629228792,9725,-4310,8513,13624.349305563184
1735577215236,-71,-146,956,969.6870629228792,10016,-4233,6502,12669.433649536193
1735577215266,-71,-146,956,969.6870629228792,10220,-4093,4516,11899.382547006378
1735577215296,115,-103,1008,1019.7538918778394,10317,-3914,2573,11330.49928290894
1735577215326,115,-103,1008,1019.7538918778394,10168,-3792,873,10887.130797413982
1735577215356,115,-103,1008,1019.7538918778394,10019,-3702,-826,10712.956688048356
1735577215386,115,-103,1008,1019.7538918778394,9876,-3644,-2529,10826.35455728289
1735577215416,116,8,1005,1011.70400809723,9671,-3605,-4255,11163.748967080906
1735577215445,116,8,1005,1011.70400809723,9468,-3618,-5984,11770.35275597125
1735577215477,116,8,1005,1011.70400809723,9306,-3674,-7717,12635.347284503105
1735577215506,92,-150,1062,1076.4794470866593,9256,-3773,-9430,13741.68712349397
1735577215536,92,-150,1062,1076.4794470866593,9340,-3866,-11149,15049.310848008954
1735577215566,92,-150,1062,1076.4794470866593,9432,-3939,-12873,16437.532479055364
1735577215596,-23,-120,877,885.4704964029011,9518,-3986,-14590,17870.327920886062
1735577215626,-23,-120,877,885.4704964029011,9637,-3989,-16414,19447.449344322766
1735577215657,-23,-120,877,885.4704964029011,9733,-3966,17763,20639.394710116863
1735577215686,-23,-120,877,885.4704964029011,9804,-3922,15946,19125.255972143223
1735577215716,134,5,979,988.1406782437408,9788,-3891,14153,17642.342078080223
1735577215746,134,5,979,988.1406782437408,9707,-3887,12415,16231.661744873812
1735577215776,134,5,979,988.1406782437408,9640,-3899,10677,14904.030662877743
1735577215806,197,-81,961,984.3226097169565,9571,-3948,8998,13716.95115541351
1735577215836,197,-81,961,984.3226097169565,9532,-4022,7383,12710.003815892425
1735577215866,197,-81,961,984.3226097169565,9516,-4102,5764,11857.670766217116
1735577215896,205,-79,1067,1089.3828528116276,9534,-4158,4095,11178.33373092788
1735577215926,205,-79,1067,1089.3828528116276,9572,-4159,2343,10696.266357940045
1735577215956,205,-79,1067,1089.3828528116276,9602,-4152,591,10477.919115931369
1735577215986,205,-79,1067,1089.3828528116276,9625,-4140,-1159,10541.513458702218
1735577216016,7,-51,1009,1010.3123279461654,9698,-4112,-3012,10955.906717383094
1735577216046,7,-51,1009,1010.3123279461654,9781,-4053,-4932,11679.871317784284
1735577216076,7,-51,1009,1010.3123279461654,9830,-3977,-6843,12620.30419601683
1735577216106,62,-55,937,940.6582801421566,9852,-3916,-8707,13718.921568403253
1735577216136,62,-55,937,940.6582801421566,9842,-3870,-10519,14916.139748607882
1735577216166,62,-55,937,940.6582801421566,9821,-3827,-12327,16218.905604263193
1735577216196,98,-17,890,895.5406188442822,9787,-3789,-14123,17595.482914657387
1735577216226,98,-17,890,895.5406188442822,9686,-3771,-15860,18962.558819948325
1735577216256,98,-17,890,895.5406188442822,9599,-3775,-17597,20397.20164630433
1735577216286,98,-17,890,895.5406188442822,9530,-3797,16662,19566.817651319798
1735577216316,137,-102,862,878.7587837398838,9464,-3856,15009,18157.811349389
1735577216346,137,-102,862,878.7587837398838,9437,-3923,13367,16826.27668261758
1735577216376,137,-102,862,878.7587837398838,9431,-3995,11722,15566.279902404427
1735577216406,134,-49,966,976.4799025069589,9472,-4056,10020,14372.554400662395
1735577216436,134,-49,966,976.4799025069589,9514,-4106,8286,13267.751429688453
1735577216466,134,-49,966,976.4799025069589,9561,-4145,6550,12308.381128320654
1735577216496,71,-62,1014,1018.3717395921786,9605,-4174,4828,11532.037330844883
1735577216526,71,-62,1014,1018.3717395921786,9694,-4177,3066,10991.875226729968
1735577216556,71,-62,1014,1018.3717395921786,9768,-4163,1306,10698.132033210284
1735577216586,71,-62,1014,1018.3717395921786,9823,-4133,-450,10666.560739057364
1735577216617,89,-181,1011,1030.9233725161148,9899,-4090,-2197,10933.668643232244
1735577216676,89,-181,1011,1030.9233725161148,9974,-4027,-3932,11452.424590452452
1735577216676,89,-181,1011,1030.9233725161148,10019,-3949,-5660,12165.959148377904
1735577216706,15,-172,1016,1030.5653788091272,10041,-3849,-7430,13070.630512718199
1735577216736,15,-172,1016,1030.5653788091272,10051,-3728,-9257,14163.778944900263
1735577216766,15,-172,1016,1030.5653788091272,10026,-3608,-11076,15369.323862811923
1735577216796,150,-163,1089,1111.301039322829,9982,-3503,-12896,16679.872571455693
1735577216826,150,-163,1089,1111.301039322829,9856,-3456,-14588,17941.41622057746
1735577216856,150,-163,1089,1111.301039322829,9744,-3436,-16282,19283.546250625168
1735577216886,150,-163,1089,1111.301039322829,9647,-3442,-17978,20691.071915200526
1735577216916,90,95,888,897.5906639443172,9411,-3461,16298,19135.575402898132
1735577216947,90,95,888,897.5906639443172,9170,-3545,14551,17560.96597570874
1735577216976,90,95,888,897.5906639443172,8993,-3678,12800,16069.901462050102
1735577217007,23,-87,928,932.3529374652069,8944,-3851,11045,14724.719420077246
1735577217036,23,-87,928,932.3529374652069,9070,-4008,9244,13556.566674493952
1735577217066,23,-87,928,932.3529374652069,9215,-4131,7431,12537.988156000149
1735577217096,12,-110,1000,1006.1033744104033,9406,-4215,5571,11716.445792133381
1735577217126,12,-110,1000,1006.1033744104033,9676,-4233,3619,11164.247668338427
1735577217156,12,-110,1000,1006.1033744104033,9898,-4190,1673,10877.749445542493
1735577217186,12,-110,1000,1006.1033744104033,10061,-4099,-257,10866.994570717334
1735577217216,203,-109,1041,1066.194635139382,9947,-4030,-1910,10901.000366938806
1735577217246,203,-109,1041,1066.194635139382,9800,-4001,-3494,11147.01919797396
1735577217276,203,-109,1041,1066.194635139382,9674,-4001,-5080,11636.179656571137
1735577217306,265,-68,1162,1193.7725914092684,9627,-4065,-6591,12354.9437473426
1735577217336,265,-68,1162,1193.7725914092684,9593,-4163,-8028,13183.512506157074
1735577217366,265,-68,1162,1193.7725914092684,9583,-4267,-9468,14130.966067470405
1735577217396,261,202,649,728.0975209407047,9562,-4342,-10936,15161.82390083726
1735577217426,261,202,649,728.0975209407047,9281,-4395,-12461,16147.120703085116
1735577217456,261,202,649,728.0975209407047,9057,-4495,-13989,17260.54445838833
1735577217486,261,202,649,728.0975209407047,8891,-4629,-15521,18476.443461878695
1735577217516,-31,-59,948,950.3399391796601,9243,-4748,-17518,20368.03566866476
1735577217546,-31,-59,948,950.3399391796601,9708,-4747,16353,19601.01737155498
1735577217576,-31,-59,948,950.3399391796601,10074,-4642,14249,18057.343132365848
1735577217606,163,-54,967,982.127282993401,10188,-4535,12362,16648.74208461408
1735577217636,163,-54,967,982.127282993401,10123,-4482,10689,15388.897751301098
1735577217666,163,-54,967,982.127282993401,10057,-4441,9019,14219.989135016946
1735577217696,57,-127,1044,1053.2397637765107,10018,-4399,7320,13164.115048114703
1735577217726,57,-127,1044,1053.2397637765107,10152,-4294,5449,12296.062011880063
1735577217756,57,-127,1044,1053.2397637765107,10228,-4163,3595,11613.207050595456
1735577217787,108,-90,1033,1042.5224218212288,10255,-4029,1784,11161.56449607312
1735577217816,108,-90,1033,1042.5224218212288,10193,-3930,91,10924.762239975751
1735577217847,108,-90,1033,1042.5224218212288,10118,-3844,-1599,10941.07220522742
1735577217876,108,-90,1033,1042.5224218212288,10037,-3775,-3288,11216.19088639276
1735577217906,191,11,953,972.0138887896612,9863,-3736,-4947,11649.432346685395
1735577217936,191,11,953,972.0138887896612,9672,-3746,-6580,12283.17955579906
1735577217966,191,11,953,972.0138887896612,9518,-3795,-8216,13133.811518367393
1735577217996,113,-64,984,992.5326191113318,9380,-3872,-9844,14137.93195626574
1735577218026,113,-64,984,992.5326191113318,9355,-3955,-11539,15372.266293556067
1735577218056,113,-64,984,992.5326191113318,9355,-4041,-13238,16705.997426074267
1735577218086,167,-5,924,938.98349293265,9386,-4121,-14954,18130.133838446975
1735577218116,167,-5,924,938.98349293265,9365,-4199,-16637,19548.00744321528
1735577218146,167,-5,924,938.98349293265,9367,-4280,17674,20455.54606946488
1735577218176,167,-5,924,938.98349293265,9389,-4358,15981,19040.42662337165
1735577218206,230,-127,1016,1049.4212690812017,9469,-4457,14341,17753.621912162038
1735577218236,230,-127,1016,1049.4212690812017,9575,-4538,12719,16554.365889396067
1735577218266,230,-127,1016,1049.4212690812017,9682,-4598,11092,15424.499732568314
1735577218296,47,-81,1024,1028.2733099716243,9833,-4620,9390,14359.818557349532
1735577218326,47,-81,1024,1028.2733099716243,10033,-4579,7546,13363.025331114208
1735577218356,47,-81,1024,1028.2733099716243,10182,-4500,5715,12513.366813132268
1735577218386,183,2,1014,1030.3829385233435,10288,-4392,3897,11845.641265883414
1735577218416,183,2,1014,1030.3829385233435,10202,-4314,2236,11300.04849547116
1735577218446,183,2,1014,1030.3829385233435,10114,-4251,578,10986.267837623476
1735577218486,183,2,1014,1030.3829385233435,10027,-4207,-1079,10927.205452447575
1735577218506,115,-65,946,955.178517346365,9983,-4121,-2879,11177.279230653585
1735577218535,115,-65,946,955.178517346365,9955,-4035,-4699,11724.497899697028
1735577218567,115,-65,946,955.178517346365,9909,-3957,-6513,12500.611945020932
1735577218596,118,-186,1026,1049.378863899974,9844,-3916,-8231,13415.988707508664
1735577218626,118,-186,1026,1049.378863899974,9826,-3891,-9900,14481.027484263677
1735577218656,118,-186,1026,1049.378863899974,9805,-3871,-11568,15650.60030797541
1735577218685,37,-91,976,980.9311902473078,9799,-3855,-13244,16919.957505856804
1735577218716,37,-91,976,980.9311902473078,9791,-3830,-15022,18335.568303164207
1735577218746,37,-91,976,980.9311902473078,9778,-3807,-16798,19805.94196194667
1735577218776,37,-91,976,980.9311902473078,9762,-3788,17425,20329.196073627703
1735577218806,-37,-130,894,904.1598310033464,9813,-3741,15571,18781.535906309688
1735577218836,-37,-130,894,904.1598310033464,9864,-3674,13696,17273.598003890216
1735577218866,-37,-130,894,904.1598310033464,9886,-3598,11827,15828.977509618238
1735577218926,250,58,978,1011.1122588516074,9760,-3573,10102,14493.941251433303
1735577218927,250,58,978,1011.1122588516074,9449,-3652,8597,13286.425930249263
1735577218956,250,58,978,1011.1122588516074,9206,-3788,7092,12222.759262948772
1735577218986,11,-65,990,992.1925216408356,9033,-3949,5556,11316.307966823808
1735577219016,11,-65,990,992.1925216408356,9187,-4060,3680,10697.054220672157
1735577219046,11,-65,990,992.1925216408356,9345,-4134,1797,10375.364571907823
1735577219075,11,-65,990,992.1925216408356,9494,-4170,-90,10369.813691672574
1735577219106,120,-121,966,980.9164082632118,9626,-4199,-1851,10663.84911746223
1735577219136,120,-121,966,980.9164082632118,9731,-4206,-3571,11186.368400870768
1735577219166,120,-121,966,980.9164082632118,9819,-4193,-5289,11915.012840949857
1735577219196,46,-138,975,985.7915601180606,9909,-4149,-7054,12851.513451730112
1735577219226,46,-138,975,985.7915601180606,10007,-4068,-8878,13982.401689266404
1735577219256,46,-138,975,985.7915601180606,10063,-3967,-10691,15208.502194496341
1735577219286,132,-108,984,998.6711170350327,10072,-3865,-12482,16497.991786881215
1735577219316,132,-108,984,998.6711170350327,9966,-3809,-14151,17722.31469080718
1735577219346,132,-108,984,998.6711170350327,9866,-3775,-15821,19023.475549961946
1735577219376,132,-108,984,998.6711170350327,9776,-3762,-17493,20389.405803014466
1735577219406,293,-125,997,1046.6532377057838,9647,-3771,16868,19794.304079709396
1735577219436,293,-125,997,1046.6532377057838,9517,-3816,15286,18406.43748800946
1735577219466,293,-125,997,1046.6532377057838,9419,-3887,13702,17075.454137445366
1735577219496,132,-54,1039,1048.7425804266745,9402,-3968,12038,15781.510447355791
1735577219526,132,-54,1039,1048.7425804266745,9453,-4035,10241,14509.256183554
1735577219556,132,-54,1039,1048.7425804266745,9512,-4089,8439,13357.199781391308
1735577219586,81,-135,899,912.6812148828308,9534,-4126,6670,12345.441749892954
1735577219615,81,-135,899,912.6812148828308,9583,-4141,4913,11537.735436384386
1735577219646,81,-135,899,912.6812148828308,9627,-4144,3156,10945.875981391348
1735577219676,81,-135,899,912.6812148828308,9664,-4139,1400,10605.857673946035
1735577219706,117,-34,818,827.0241834432654,9637,-4154,-288,10498.115497554787
1735577219736,117,-34,818,827.0241834432654,9586,-4183,-1966,10642.08818794507
1735577219766,117,-34,818,827.0241834432654,9551,-4222,-3646,11060.75047182604
1735577219796,91,-108,972,982.206190165792,9627,-4269,-5386,11828.460846619057
1735577219826,91,-108,972,982.206190165792,9783,-4288,-7171,12865.351685826548
1735577219856,91,-108,972,982.206190165792,9915,-4275,-8954,14027.008447990613
1735577219886,65,-108,946,954.3610427925063,9997,-4232,-10714,15252.52861003709
1735577219916,65,-108,946,954.3610427925063,10031,-4164,-12463,16531.370965530958
1735577219946,65,-108,946,954.3610427925063,10041,-4090,-14206,17870.652394358745
1735577219976,65,-108,946,954.3610427925063,10030,-4016,-15944,19259.81027943941
1735577220006,168,-89,1016,1033.634848483738,9959,-3962,-17592,20599.941480499405
1735577220036,168,-89,1016,1033.634848483738,9864,-3933,16795,19870.55635859248
1735577220066,168,-89,1016,1033.634848483738,9780,-3923,15182,18480.569607022397
1735577220096,80,-186,973,993.8435490558863,9774,-3911,13490,17111.607084081847
1735577220126,80,-186,973,993.8435490558863,9858,-3870,11713,15790.865492429477
1735577220155,80,-186,973,993.8435490558863,9915,-3812,9942,14549.293213073961
1735577220186,221,30,1011,1035.307683734647,9948,-3753,8182,13416.140913094197
1735577220216,221,30,1011,1035.307683734647,9712,-3772,6586,12325.839687420894
1735577220246,221,30,1011,1035.307683734647,9521,-3836,4986,11411.59642644271
1735577220276,221,30,1011,1035.307683734647,9378,-3936,3384,10718.695629599713
1735577220306,46,-65,1001,1004.1623374733789,9429,-3996,1591,10363.654664258163
1735577220336,46,-65,1001,1004.1623374733789,9545,-4024,-269,10362.044296373182
1735577220367,46,-65,1001,1004.1623374733789,9647,-4026,-2129,10667.986032986732
1735577220396,200,-72,1060,1081.1031403154834,9681,-4024,-3906,11187.992357880836
1735577220427,200,-72,1060,1081.1031403154834,9641,-4044,-5558,11840.362367765609
1735577220456,200,-72,1060,1081.1031403154834,9614,-4072,-7212,12689.488720984782
1735577220486,42,-83,989,993.3649883099364,9603,-4103,-8866,13698.838417909747
1735577220516,42,-83,989,993.3649883099364,9723,-4099,-10696,15024.744457061492
1735577220546,42,-83,989,993.3649883099364,9819,-4070,-12521,16424.16213996927
1735577220576,42,-83,989,993.3649883099364,9889,-4020,-14342,17878.637671813813
1735577220605,115,-99,993,1004.5272519946883,9879,-3989,-16076,19285.86368301923
1735577220636,115,-99,993,1004.5272519946883,9854,-3965,-17783,20713.70633179876
1735577220666,115,-99,993,1004.5272519946883,9827,-3948,16510,19614.70705873529
1735577220696,141,-43,930,941.6103227981307,9750,-3916,14826,18171.62161173295
1735577220727,141,-43,930,941.6103227981307,9626,-3901,13167,16770.437263231986
1735577220756,141,-43,930,941.6103227981307,9521,-3910,11506,15437.79702548262
1735577220786,109,-35,981,987.6573292392458,9460,-3944,9828,14199.870421943997
1735577220816,109,-35,981,987.6573292392458,9475,-3986,8083,13076.647506146213
1735577220846,109,-35,981,987.6573292392458,9497,-4024,6336,12104.977529925449
1735577220876,109,-35,981,987.6573292392458,9525,-4056,4586,11322.904088616135
1735577220906,70,-102,998,1005.6381058810371,9570,-4083,2824,10781.037287756684
1735577220936,70,-102,998,1005.6381058810371,9638,-4093,1047,10523.302808529268
1735577220966,70,-102,998,1005.6381058810371,9696,-4088,-727,10547.639024919274
1735577221056,213,-28,1018,1040.4215491809077,9697,-4087,-2454,10805.43816788565
1735577221057,213,-28,1018,1040.4215491809077,9603,-4118,-4079,11216.673927684624
1735577221057,213,-28,1018,1040.4215491809077,9534,-4165,-5706,11866.036280072634
1735577221087,76,-108,1039,1047.3590597307114,9486,-4218,-7341,12714.794571679087
1735577221116,76,-108,1039,1047.3590597307114,9618,-4228,-9148,13930.822373427924
1735577221146,76,-108,1039,1047.3590597307114,9728,-4211,-10952,15241.811211270136
1735577221176,76,-108,1039,1047.3590597307114,9811,-4172,-12751,16620.749261089284
1735577221206,91,-88,930,938.5760491297442,9879,-4125,-14539,18055.270338601968
1735577221236,91,-88,930,938.5760491297442,9914,-4068,-16316,19520.447638309935
1735577221266,91,-88,930,938.5760491297442,9926,-4005,17911,20865.50794972411
1735577221296,127,-26,955,963.7582684470209,9894,-3955,16182,19374.993806450624
1735577221327,127,-26,955,963.7582684470209,9811,-3930,14494,17938.134156037522
1735577221356,127,-26,955,963.7582684470209,9737,-3922,12805,16557.755826198187
1735577221386,138,-37,959,969.5844470699806,9654,-3929,11125,15244.749325587483
1735577221416,138,-37,959,969.5844470699806,9549,-3956,9476,14022.407532232117
1735577221446,138,-37,959,969.5844470699806,9470,-4003,7824,12919.747869056888
1735577221477,138,-37,959,969.5844470699806,9416,-4065,6170,11968.88386609211
1735577221506,236,-44,975,1004.1200127474802,9383,-4147,4563,11227.611811957162
1735577221536,236,-44,975,1004.1200127474802,9355,-4241,2989,10697.486947877058
1735577221566,236,-44,975,1004.1200127474802,9353,-4337,1411,10405.724338074693
1735577221596,125,-55,1003,1012.2544146606623,9508,-4379,-403,10475.691576215864
1735577221626,125,-55,1003,1012.2544146606623,9675,-4379,-2261,10857.872121184702
1735577221656,125,-55,1003,1012.2544146606623,9809,-4344,-4114,11489.639376412124
1735577221686,154,-56,1020,1033.0788934055327,9885,-4296,-5922,12297.923605227023
1735577221716,154,-56,1020,1033.0788934055327,9876,-4272,-7618,13184.054156442167
1735577221746,154,-56,1020,1033.0788934055327,9863,-4250,-9312,14214.591552345077
1735577221776,67,-112,945,953.9696011928263,9847,-4230,-11002,15359.046617547589
1735577221806,67,-112,945,953.9696011928263,9932,-4185,-12781,16718.6366070921
1735577221836,67,-112,945,953.9696011928263,9989,-4124,-14553,18126.701464965987
1735577221866,67,-112,945,953.9696011928263,10018,-4051,-16319,19572.447113225266
1735577221896,188,-46,982,1000.891602522471,9973,-3990,17992,20954.543492999317
1735577221926,188,-46,982,1000.891602522471,9883,-3954,16348,19508.07291866626
1735577221956,188,-46,982,1000.891602522471,9801,-3937,14704,18104.341633983822
1735577221986,183,-64,961,980.3601379085137,9708,-3939,13067,16748.357352289808
1735577222016,183,-64,961,980.3601379085137,9610,-3966,11439,15457.424656132082
1735577222046,183,-64,961,980.3601379085137,9536,-4012,9809,14256.50451548345
1735577222076,216,-54,1001,1025.4623347544268,9483,-4070,8163,13157.764171773257
1735577222106,216,-54,1001,1025.4623347544268,9419,-4141,6525,12183.639316723062
1735577222136,216,-54,1001,1025.4623347544268,9382,-4222,4883,11388.191120630177
1735577222167,216,-54,1001,1025.4623347544268,9371,-4308,3235,10809.242804193085
1735577222197,-20,-107,1048,1053.6379833699998,9584,-4343,1374,10611.436330676446
1735577222226,-20,-107,1048,1053.6379833699998,9831,-4307,-574,10748.408533359718
1735577222256,-20,-107,1048,1053.6379833699998,10017,-4218,-2508,11154.455477521078
1735577222286,-53,-45,931,933.5925235347593,10066,-4102,-4368,11714.52875706061
1735577222316,-53,-45,931,933.5925235347593,10027,-3986,-6207,12448.123312371226
1735577222346,-53,-45,931,933.5925235347593,9964,-3882,-8040,13378.819828370513
1735577222376,287,-63,968,1011.6135625820762,9903,-3806,-9871,14491.089883097131
1735577222406,287,-63,968,1011.6135625820762,9680,-3839,-11340,15395.970933981396
1735577222436,287,-63,968,1011.6135625820762,9501,-3911,-12811,16422.138807110357
1735577222466,287,-63,968,1011.6135625820762,9366,-4014,-14283,17545.319632312203
1735577222496,125,-69,1022,1031.925384899509,9398,-4103,-15932,18946.916292631897
1735577222526,125,-69,1022,1031.925384899509,9482,-4172,-17648,20463.768274684895
1735577222556,125,-69,1022,1031.925384899509,9569,-4222,16631,19646.404403859757
1735577222586,126,-92,1073,1084.282712211165,9661,-4256,14893,18255.133688910635
1735577222616,126,-92,1073,1084.282712211165,9757,-4271,13147,16919.93200340947
1735577222646,126,-92,1073,1084.282712211165,9840,-4266,11402,15653.432850336696
1735577222676,161,-168,875,905.4115086522812,9866,-4245,9685,14462.268355966848
1735577222706,161,-168,875,905.4115086522812,9847,-4227,8059,13408.147485764019
1735577222736,161,-168,875,905.4115086522812,9827,-4213,6433,12478.092282075813
1735577222766,161,-168,875,905.4115086522812,9807,-4203,4808,11702.962103672728
1735577222796,74,-162,992,1007.8611015412788,9934,-4159,3033,11188.419280666953
1735577222857,74,-162,992,1007.8611015412788,10039,-4082,1234,10907.199503080523
1735577222857,74,-162,992,1007.8611015412788,10103,-3984,-553,10874.220615749893
1735577222887,212,-20,1029,1050.8020746077732,10053,-3902,-2262,11018.396298917552
1735577222916,212,-20,1029,1050.8020746077732,9865,-3879,-3861,11281.497551300536
1735577222946,212,-20,1029,1050.8020746077732,9706,-3893,-5464,11799.033053602316
1735577222976,111,-194,1001,1025.6500377809186,9556,-3932,-7058,12513.717433280968
1735577223006,111,-194,1001,1025.6500377809186,9605,-3957,-8745,13578.987407019715
1735577223036,111,-194,1001,1025.6500377809186,9651,-3972,-10432,14756.192225638699
1735577223066,111,-194,1001,1025.6500377809186,9692,-3977,-12118,16018.655280640756
1735577223096,97,-85,892,901.2757624611903,9641,-3983,-13790,17290.959198378787
1735577223126,97,-85,892,901.2757624611903,9577,-4003,-15469,18628.81904469524
1735577223156,97,-85,892,901.2757624611903,9529,-4036,-17151,20031.17415430259
1735577223186,164,-47,1003,1017.4055238694156,9520,-4076,17146,20030.713716690178
1735577223216,164,-47,1003,1017.4055238694156,9496,-4125,15470,18614.79360616174
1735577223246,164,-47,1003,1017.4055238694156,9487,-4178,13791,17252.551521441692
1735577223276,114,-63,969,977.7146823076761,9485,-4238,12127,15968.406244832326
1735577223306,114,-63,969,977.7146823076761,9532,-4301,10438,14775.29928630889
1735577223336,114,-63,969,977.7146823076761,9586,-4354,8746,13687.265176067862
1735577223366,114,-63,969,977.7146823076761,9645,-4396,7050,12730.017321276511
1735577223397,150,-140,922,944.5549216429927,9763,-4422,5348,11977.95295532588
1735577223426,150,-140,922,944.5549216429927,9878,-4424,3660,11425.509179025677
1735577223456,150,-140,922,944.5549216429927,9971,-4404,1975,11077.756180743463
1735577223487,186,-27,1018,1035.2048106534282,10019,-4353,284,10927.471162167394
1735577223516,186,-27,1018,1035.2048106534282,9977,-4301,-1386,10952.631008118551
1735577223546,186,-27,1018,1035.2048106534282,9931,-4258,-3055,11228.906892480674
1735577223576,190,-7,889,909.1039544518547,9870,-4222,-4720,11726.917071421627
1735577223606,190,-7,889,909.1039544518547,9772,-4201,-6376,12401.361255926706
1735577223636,190,-7,889,909.1039544518547,9686,-4199,-8033,13265.718450200879
1735577223666,190,-7,889,909.1039544518547,9615,-4213,-9692,14287.49306211555
1735577223697,47,-83,884,889.1310364620055,9681,-4222,-11431,15563.251781038563
1735577223727,47,-83,884,889.1310364620055,9786,-4201,-13223,16978.27806345508
1735577223755,47,-83,884,889.1310364620055,9865,-4158,-15009,18435.760629819426
1735577223786,4,-91,959,963.3161474822272,9965,-4096,-16854,20003.393637080684
1735577223816,4,-91,959,963.3161474822272,10063,-4002,17254,20371.06990317396
1735577223847,4,-91,959,963.3161474822272,10114,-3889,15376,18810.60054862683
1735577223876,34,-78,1028,1031.5153900936234,10097,-3769,13528,17296.287289473425
1735577223906,34,-78,1028,1031.5153900936234,9978,-3676,11755,15850.977414658062
1735577223936,34,-78,1028,1031.5153900936234,9859,-3610,9982,14486.970180130833
1735577223966,34,-78,1028,1031.5153900936234,9746,-3571,8207,13232.210926372056
1735577223997,266,118,1050,1089.5778999227177,9480,-3591,6546,12067.13706725833
1735577224026,266,118,1050,1089.5778999227177,9176,-3692,4964,11066.667791164602
1735577224056,266,118,1050,1089.5778999227177,8946,-3850,3382,10309.769153574682
1735577224086,343,-23,950,1010.2860980930105,8757,-4042,1880,9826.35298572161
1735577224116,343,-23,950,1010.2860980930105,8649,-4252,464,9648.834178282887
1735577224146,343,-23,950,1010.2860980930105,8595,-4474,-953,9736.473180777524
1735577224176,112,-68,1027,1035.3245867842606,8635,-4695,-2414,10120.950844658815
1735577224206,112,-68,1027,1035.3245867842606,9050,-4866,-4273,11128.2965902244
1735577224236,112,-68,1027,1035.3245867842606,9448,-4949,-6157,12315.273200380087
1735577224266,112,-68,1027,1035.3245867842606,9799,-4953,-8046,13612.153613591054
1735577224297,215,21,943,967.4269998299613,9919,-4931,-9776,14774.014281839583
1735577224326,215,21,943,967.4269998299613,9960,-4904,-11457,15953.484415637859
1735577224357,215,21,943,967.4269998299613,9986,-4869,-13134,17202.596112215157
1735577224386,101,-6,930,935.4875734075787,10047,-4816,-14862,18574.582337161715
1735577224416,101,-6,930,935.4875734075787,10158,-4724,-16678,20091.21260651034
1735577224446,101,-6,930,935.4875734075787,10219,-4612,17523,20802.74102131736
1735577224476,159,-128,939,960.9297580988946,10226,-4496,15751,19310.077498549817
1735577224506,159,-128,939,960.9297580988946,10240,-4400,14080,17957.282645211108
1735577224536,159,-128,939,960.9297580988946,10227,-4301,12417,16651.48699065642
1735577224566,159,-128,939,960.9297580988946,10193,-4205,10760,15406.39068698441
1735577224596,-54,-69,997,1000.8426449747233,10239,-4062,8949,14192.30657786112
1735577224626,-54,-69,997,1000.8426449747233,10260,-3891,7076,13056.693953677554
1735577224657,-54,-69,997,1000.8426449747233,10228,-3718,5217,12068.661773369904
1735577224686,159,-82,1014,1029.6606237008386,10100,-3601,3459,11266.848805233874
1735577224716,159,-82,1014,1029.6606237008386,9896,-3566,1855,10681.207656440352
1735577224746,159,-82,1014,1029.6606237008386,9722,-3572,248,10360.404046175034
1735577224776,67,-136,1002,1013.4046575776134,9579,-3603,-1364,10324.69592772591
1735577224806,67,-136,1002,1013.4046575776134,9557,-3621,-3083,10674.866697059968
1735577224836,67,-136,1002,1013.4046575776134,9543,-3643,-4804,11287.989812185338
1735577224866,67,-136,1002,1013.4046575776134,9537,-3667,-6525,12123.402286487073
1735577224896,166,-161,912,940.8618389540518,9519,-3666,-8201,13088.44215328929
1735577224926,166,-161,912,940.8618389540518,9493,-3675,-9843,14160.060840264776
1735577224957,166,-161,912,940.8618389540518,9474,-3689,-11486,15339.282675536037
1735577224986,325,98,803,871.801582930428,9350,-3750,-13062,16495.479501972655
1735577225016,325,98,803,871.801582930428,9060,-3892,-14514,17546.722201026605
1735577225046,325,98,803,871.801582930428,8841,-4080,-15964,18699.17048962333
1735577225076,75,-97,1071,1077.9958255948861,8709,-4291,-17435,19955.91609022247
1735577225106,75,-97,1071,1077.9958255948861,9027,-4454,16734,19528.225751460373
1735577225136,75,-97,1071,1077.9958255948861,9338,-4545,14887,18151.529907971944
1735577225166,75,-97,1071,1077.9958255948861,9619,-4570,13034,16831.375968707966
1735577225196,185,-105,1003,1025.309221649742,9759,-4591,11319,15634.421095774542
1735577225226,185,-105,1003,1025.309221649742,9854,-4595,9649,14536.799578999498
1735577225256,185,-105,1003,1025.309221649742,9933,-4582,7982,13541.474698126493
1735577225286,113,-83,996,1005.8200634308306,10008,-4528,6257,12641.71258176676
1735577225316,113,-83,996,1005.8200634308306,10075,-4439,4469,11882.01611680442
1735577225346,113,-83,996,1005.8200634308306,10104,-4338,2692,11320.597334063252
1735577225376,150,-59,1044,1056.3697269422294,10111,-4236,927,11001.606519049843
1735577225406,150,-59,1044,1056.3697269422294,10067,-4152,-788,10918.083027711413
1735577225436,150,-59,1044,1056.3697269422294,10010,-4077,-2499,11093.558040592747
1735577225466,146,-74,891,905.9100396838529,9921,-4014,-4184,11491.052736803535
1735577225496,146,-74,891,905.9100396838529,9804,-3969,-5824,12074.367602487511
1735577225526,146,-74,891,905.9100396838529,9698,-3948,-7465,12859.398625130181
1735577225556,146,-74,891,905.9100396838529,9606,-3948,-9108,13813.674529248183
1735577225586,170,-108,892,914.4550289653396,9609,-3965,-10783,14977.556376124912
1735577225616,170,-108,892,914.4550289653396,9619,-3982,-12450,16229.10918689008
1735577225645,170,-108,892,914.4550289653396,9631,-3997,-14117,17550.551529795295
1735577225676,265,-125,874,921.8058363885532,9623,-4013,-15768,18903.336266384304
1735577225706,265,-125,874,921.8058363885532,9529,-4062,-17278,20145.246809111075
1735577225736,265,-125,874,921.8058363885532,9462,-4126,17209,20067.461249495413
1735577225766,47,-63,930,933.3155950695349,9431,-4196,15687,18778.502229943686
1735577225796,47,-63,930,933.3155950695349,9547,-4227,13893,17378.958167853445
1735577225826,47,-63,930,933.3155950695349,9650,-4233,12099,16044.519001827384
1735577225856,47,-63,930,933.3155950695349,9735,-4218,10308,14792.451216752415
1735577225886,138,-49,998,1008.6867700133674,9764,-4219,8582,13666.9814150748
1735577225915,138,-49,998,1008.6867700133674,9765,-4223,6890,12675.21415992645
1735577225946,138,-49,998,1008.6867700133674,9767,-4227,5198,11844.028959775469
1735577225976,202,-44,977,998.6335664296489,9753,-4226,3517,11195.953465426694
1735577226006,202,-44,977,998.6335664296489,9710,-4234,1877,10757.973089759986
1735577226036,202,-44,977,998.6335664296489,9677,-4251,235,10572.159429369196
1735577226066,139,-129,1036,1053.2131788009492,9640,-4275,-1394,10637.126538685154
1735577226096,139,-129,1036,1053.2131788009492,9706,-4290,-3077,11048.912389914221
1735577226126,139,-129,1036,1053.2131788009492,9763,-4292,-4760,11678.828408706071
1735577226156,139,-129,1036,1053.2131788009492,9810,-4283,-6441,12492.664647704269
1735577226186,137,42,939,949.8705174917263,9858,-4248,-8234,13528.65196536595
1735577226216,137,42,939,949.8705174917263,9846,-4214,-10024,14669.086133771252
1735577226246,137,42,939,949.8705174917263,9827,-4184,-11812,15924.796042649965
1735577226276,109,-93,1021,1031.004849649118,9797,-4177,-13547,17232.229890527808
1735577226306,109,-93,1021,1031.004849649118,9830,-4172,-15271,18634.321157477134
1735577226336,109,-93,1021,1031.004849649118,9855,-4161,-16995,20081.458388274492
1735577226367,11,-217,1020,1042.8854203602618,9884,-4146,17275,20329.987629115763
1735577226396,11,-217,1020,1042.8854203602618,10086,-4087,15427,18879.176200247723
1735577226426,11,-217,1020,1042.8854203602618,10230,-3984,13592,17471.90945489359
1735577226456,11,-217,1020,1042.8854203602618,10316,-3852,11772,16119.483366410972
1735577226486,98,-50,978,984.1686847283854,10175,-3724,10049,14777.726550454234
1735577226516,98,-50,978,984.1686847283854,9975,-3648,8353,13512.258804507854
1735577226546,98,-50,978,984.1686847283854,9795,-3615,6653,12380.333557703525
1735577226576,33,-48,949,950.7859906414271,9677,-3604,4897,11428.637451595006
1735577226606,33,-48,949,950.7859906414271,9611,-3601,3079,10715.351744109943
1735577226636,33,-48,949,950.7859906414271,9556,-3613,1260,10293.614768389189
1735577226666,253,-207,993,1045.4219243922523,9502,-3648,-540,10192.522160878532
1735577226696,253,-207,993,1045.4219243922523,9444,-3732,-2070,10363.486864950426
1735577226726,253,-207,993,1045.4219243922523,9413,-3826,-3600,10779.742343859616
1735577226756,253,-207,993,1045.4219243922523,9407,-3924,-5133,11412.147650639647
1735577226786,216,-37,998,1021.7773730123407,9388,-4018,-6727,12228.303112042979
1735577226816,216,-37,998,1021.7773730123407,9358,-4121,-8339,13194.458154846678
1735577226846,216,-37,998,1021.7773730123407,9357,-4227,-9957,14302.546171923375
1735577226876,82,-184,992,1012.2470054290109,9414,-4316,-11623,15567.446193900912
1735577226906,82,-184,992,1012.2470054290109,9601,-4357,-13395,17046.661696648996
1735577226936,82,-184,992,1012.2470054290109,9765,-4359,-15167,18557.855344839823
1735577226966,84,-81,789,797.5825976035335,9892,-4329,-16940,20088.69097278367
1735577226996,84,-81,789,797.5825976035335,9888,-4290,17282,20367.723682336225
1735577227026,84,-81,789,797.5825976035335,9874,-4253,15509,18870.955619681798
1735577227056,84,-81,789,797.5825976035335,9853,-4219,13738,17424.529089763088
1735577227086,138,-64,946,958.1523887148641,9815,-4211,12029,16086.13026802904
1735577227116,138,-64,946,958.1523887148641,9766,-4217,10340,14834.87259803737
1735577227146,138,-64,946,958.1523887148641,9728,-4231,8649,13687.240262375757
1735577227176,62,-125,1001,1010.6779902619825,9776,-4247,6901,12697.676401609862
1735577227206,62,-125,1001,1010.6779902619825,9901,-4230,5083,11906.283635123094
1735577227236,62,-125,1001,1010.6779902619825,9998,-4188,3271,11322.490406266636
1735577227266,150,-118,1112,1128.2588355514881,10065,-4128,1477,10978.439688771807
1735577227296,150,-118,1112,1128.2588355514881,10041,-4082,-192,10840.722715760237
1735577227326,150,-118,1112,1128.2588355514881,10011,-4042,-1859,10955.079461144953
1735577227357,150,-118,1112,1128.2588355514881,9977,-4008,-3525,11315.043879720484
1735577227387,210,-36,1064,1085.1230344988535,9918,-3977,-5196,11881.989269478407
1735577227417,210,-36,1064,1085.1230344988535,9830,-3969,-6846,12619.412704242619
1735577227446,210,-36,1064,1085.1230344988535,9757,-3978,-8497,13535.9721483165
1735577227476,200,-90,964,988.633400204545,9676,-4005,-10112,14557.38798686083
1735577227506,200,-90,964,988.633400204545,9631,-4045,-11716,15696.586953857199
1735577227536,200,-90,964,988.633400204545,9602,-4092,-13323,16924.69193220367
1735577227566,103,-156,953,971.1611606731398,9604,-4136,-14963,18254.716678162935
1735577227596,103,-156,953,971.1611606731398,9759,-4133,-16778,19844.925144731587
1735577227626,103,-156,953,971.1611606731398,9884,-4097,17412,20436.64867340044
1735577227656,103,-156,953,971.1611606731398,9974,-4035,15609,18957.921352300204
1735577227686,23,-78,855,858.8585448139874,9966,-3980,13832,17506.735275316183
1735577227716,23,-78,855,858.8585448139874,9941,-3925,12029,16091.176060189013
1735577227746,23,-78,855,858.8585448139874,9907,-3877,10230,14759.15573466179
1735577227776,58,-188,1000,1019.170250743221,9918,-3839,8432,13572.150492829056
1735577227806,58,-188,1000,1019.170250743221,9974,-3792,6656,12576.258426097962
1735577227836,58,-188,1000,1019.170250743221,10006,-3735,4884,11744.092855559344
1735577227866,167,-215,907,946.9757124657422,10006,-3670,3118,11104.542313846168
1735577227896,167,-215,907,946.9757124657422,9931,-3631,1470,10675.664944161557
1735577227926,167,-215,907,946.9757124657422,9860,-3608,-178,10500.902246950021
1735577227956,167,-215,907,946.9757124657422,9798,-3600,-1827,10597.109653108248
1735577227986,220,-153,990,1025.6261502126397,9656,-3597,-3428,10859.46264784773
1735577228016,220,-153,990,1025.6261502126397,9513,-3630,-5012,11348.753808238154
1735577228046,220,-153,990,1025.6261502126397,9404,-3691,-6598,12066.163474775236
1735577228076,60,-87,922,928.0371759794971,9386,-3773,-8279,13071.892211917906
1735577228106,60,-87,922,928.0371759794971,9441,-3844,-10098,14348.464064142894
1735577228136,60,-87,922,928.0371759794971,9505,-3901,-11921,15737.632191660854
1735577228166,98,3,1037,1041.624692487654,9580,-3946,-13751,17217.355110469205
1735577228196,98,3,1037,1041.624692487654,9573,-3999,-15548,18691.565852009295
1735577228226,98,3,1037,1041.624692487654,9581,-4051,-17349,20228.54327429437
1735577228256,98,3,1037,1041.624692487654,9602,-4100,16845,19818.234759937626
1735577228286,147,-78,945,959.5405150383177,9612,-4145,15126,18394.7667829739
1735577228316,147,-78,945,959.5405150383177,9641,-4186,13422,17047.62625704822
1735577228346,147,-78,945,959.5405150383177,9675,-4220,11717,15770.292134263082
1735577228376,97,-121,916,929.0349831949279,9724,-4248,10016,14591.844845666363
1735577228406,97,-121,916,929.0349831949279,9810,-4257,8289,13530.176273796287
1735577228436,97,-121,916,929.0349831949279,9882,-4248,6564,12601.012816436622
1735577228466,103,-84,1012,1020.6904525858954,9950,-4224,4831,11839.900210728129
1735577228496,103,-84,1012,1020.6904525858954,9985,-4188,3088,11259.454382873088
1735577228526,103,-84,1012,1020.6904525858954,10005,-4145,1348,10913.210068536206
1735577228557,103,-84,1012,1020.6904525858954,10009,-4099,-387,10822.737685077653
1735577228586,93,-140,1062,1075.2176523848555,10022,-4069,-2116,11021.556196835363
1735577228616,93,-140,1062,1075.2176523848555,10040,-4031,-3846,11482.25922891484
1735577228646,93,-140,1062,1075.2176523848555,10046,-3991,-5573,12161.764921260401
1735577228676,106,-99,908,919.511283236916,10021,-3927,-7328,13020.804660235097
1735577228706,106,-99,908,919.511283236916,9956,-3865,-9090,14024.559208759469
1735577228736,106,-99,908,919.511283236916,9887,-3818,-10851,15168.193498238345
1735577228766,53,-63,924,927.660498242757,9825,-3794,-12595,16418.254657545058
1735577228797,53,-63,924,927.660498242757,9787,-3793,-14365,17791.16193507327
1735577228826,53,-63,924,927.660498242757,9756,-3800,-16135,19234.28607981071
1735577228856,53,-63,924,927.660498242757,9732,-3813,-17907,20734.30592038229
1735577228886,82,-175,941,960.640411392317,9736,-3827,16348,19408.57359519241
1735577228916,82,-175,941,960.640411392317,9765,-3835,14613,17988.947134282207
1735577228946,82,-175,941,960.640411392317,9790,-3837,12879,16626.343855460225
1735577228976,153,-51,1035,1047.4898567527994,9787,-3832,11142,15317.106678482069
1735577229006,153,-51,1035,1047.4898567527994,9705,-3847,9442,14076.14286656682
1735577229037,153,-51,1035,1047.4898567527994,9641,-3878,7739,12956.847070178763
1735577229066,79,-17,898,901.6285266117084,9593,-3920,6037,11993.223836817187
1735577229096,79,-17,898,901.6285266117084,9577,-3957,4258,11203.005935908452
1735577229126,79,-17,898,901.6285266117084,9575,-3997,2476,10667.108792920413
1735577229156,79,-17,898,901.6285266117084,9583,-4035,692,10420.84343995245
1735577229186,47,-47,953,955.3151312525098,9663,-4057,-1175,10545.778444477202
1735577229216,47,-47,953,955.3151312525098,9748,-4055,-3053,10990.329294429717
1735577229246,47,-47,953,955.3151312525098,9816,-4035,-4929,11701.714489766018
1735577229276,250,-120,956,995.4074542618214,9791,-4040,-6642,12502.057630646244
1735577229306,250,-120,956,995.4074542618214,9703,-4091,-8165,13324.853282494332
1735577229336,250,-120,956,995.4074542618214,9642,-4157,-9689,14287.250750231831
1735577229366,25,-225,942,968.8209328869809,9609,-4228,-11237,15377.874820663616
1735577229396,25,-225,942,968.8209328869809,9850,-4233,-13085,16916.20566202717
1735577229426,25,-225,942,968.8209328869809,10046,-4186,-14925,18471.608944539727
1735577229456,282,-115,1005,1050.1304680847995,10193,-4105,-16741,20025.21797634173
1735577229486,282,-115,1005,1050.1304680847995,10042,-4088,17759,20807.104291563493
1735577229516,282,-115,1005,1050.1304680847995,9914,-4098,16257,19477.449756064063
1735577229546,282,-115,1005,1050.1304680847995,9810,-4130,14754,18192.67753795466
1735577229576,169,-46,1013,1028.0301551997393,9744,-4142,13106,16848.410488826536
1735577229606,169,-46,1013,1028.0301551997393,9699,-4161,11413,15544.809133598264
1735577229636,169,-46,1013,1028.0301551997393,9667,-4188,9718,14332.820971462666
1735577229666,176,-102,1010,1030.281514926867,9641,-4224,8028,13237.818589178505
1735577229696,176,-102,1010,1030.281514926867,9657,-4267,6361,12325.877615813002
1735577229727,176,-102,1010,1030.281514926867,9681,-4306,4691,11587.444843450174
1735577229756,249,-34,968,1000.0904959052456,9729,-4340,3004,11068.561650006743
1735577229786,249,-34,968,1000.0904959052456,9702,-4386,1370,10735.115276511939
1735577229816,249,-34,968,1000.0904959052456,9692,-4437,-265,10662.64779498976
1735577229846,249,-34,968,1000.0904959052456,9695,-4488,-1906,10852.096802000984
1735577229876,-85,-264,947,986.7775838556529,9981,-4467,-3788,11572.527554514614
1735577229906,-85,-264,947,986.7775838556529,10331,-4335,-5778,12605.834760141828
1735577229936,-85,-264,947,986.7775838556529,10562,-4128,-7729,13723.471463153921
1735577229966,113,-35,916,923.6070593060666,10570,-3901,-9575,14785.916474808046
1735577229996,113,-35,916,923.6070593060666,10329,-3746,-11279,15746.00260383568
1735577230026,113,-35,916,923.6070593060666,10098,-3643,-12989,16850.969527003483
1735577230056,269,-151,1046,1090.5402330955058,9890,-3607,-14687,18070.155450355152
1735577230086,269,-151,1046,1090.5402330955058,9727,-3666,-16193,19242.331823352386
1735577230116,269,-151,1046,1090.5402330955058,9604,-3756,-17700,20484.978691714572
1735577230146,269,-151,1046,1090.5402330955058,9519,-3867,16791,19685.089052376676
1735577230176,196,-57,948,969.7262500314199,9477,-3931,15136,18285.64425991056
1735577230206,196,-57,948,969.7262500314199,9449,-4002,13450,16917.508829612
1735577230236,196,-57,948,969.7262500314199,9443,-4077,11760,15623.372811272218
1735577230266,166,-77,979,995.9548182523141,9441,-4155,10073,14417.414296606725
1735577230296,166,-77,979,995.9548182523141,9469,-4231,8368,13326.167716189077
1735577230325,166,-77,979,995.9548182523141,9512,-4299,6658,12380.973669304043
1735577230356,55,-158,928,942.9597022142568,9547,-4358,4964,11609.421561817799
1735577230387,55,-158,928,942.9597022142568,9711,-4383,3177,11117.892740982888
1735577230416,55,-158,928,942.9597022142568,9850,-4374,1392,10867.016149799356
1735577230447,55,-158,928,942.9597022142568,9961,-4338,-386,10871.465448595236
1735577230476,77,-81,966,972.4433145433209,10079,-4271,-2213,11168.037025368425
1735577230506,77,-81,966,972.4433145433209,10132,-4188,-4021,11677.551498494879
1735577230536,77,-81,966,972.4433145433209,10151,-4096,-5820,12397.274579519484
1735577230566,244,-118,907,946.6303396785886,10051,-4051,-7450,13150.501967605647
1735577230626,244,-118,907,946.6303396785886,9881,-4073,-8909,13913.797863990982
1735577230626,244,-118,907,946.6303396785886,9744,-4124,-10370,14815.188557693082
1735577230656,127,-112,1021,1034.9463754224178,9668,-4189,-11871,15872.573389340494
1735577230687,127,-112,1021,1034.9463754224178,9747,-4216,-13582,17240.92193010571
1735577230716,127,-112,1021,1034.9463754224178,9818,-4228,-15295,18660.282232592304
1735577230747,127,-112,1021,1034.9463754224178,9879,-4226,-17007,20116.952204546295
1735577230776,252,-76,977,1011.8344726287991,9870,-4224,17309,20368.126006090988
1735577230806,252,-76,977,1011.8344726287991,9826,-4237,15672,18976.670651091565
1735577230836,252,-76,977,1011.8344726287991,9794,-4258,14034,17635.36662505206
1735577230866,56,-125,998,1007.3554486873043,9815,-4275,12352,16345.695274291638
1735577230896,56,-125,998,1007.3554486873043,9939,-4251,10537,15095.797130327368
1735577230926,56,-125,998,1007.3554486873043,10033,-4201,8728,13945.87659489356
1735577230956,81,-215,944,971.5564831753221,10094,-4130,6930,12921.711806103709
1735577230986,81,-215,944,971.5564831753221,10179,-4036,5172,12109.951321124292
1735577231016,81,-215,944,971.5564831753221,10222,-3925,3425,11472.817178008198
1735577231046,81,-215,944,971.5564831753221,10227,-3807,1685,11041.920258723118
1735577231076,35,-139,922,933.0755596413401,10183,-3690,-101,10831.42603723074
1735577231106,35,-139,922,933.0755596413401,10106,-3584,-1901,10889.907850849795
1735577231136,35,-139,922,933.0755596413401,10017,-3498,-3699,11236.49829795742
1735577231167,37,-87,904,908.9301403298275,9883,-3439,-5474,11809.533691048093
1735577231197,37,-87,904,908.9301403298275,9723,-3421,-7239,12595.359899582068
1735577231226,37,-87,904,908.9301403298275,9588,-3439,-9006,13596.488554034824
1735577231256,215,-102,1023,1050.3132865959565,9509,-3489,-10796,14803.642051873587
1735577231286,215,-102,1023,1050.3132865959565,9418,-3580,-12444,16011.503989319679
1735577231316,215,-102,1023,1050.3132865959565,9364,-3688,-14094,17318.391264779762
1735577231346,215,-102,1023,1050.3132865959565,9344,-3804,-15747,18701.571083735183
1735577231376,113,-153,922,941.414892595183,9381,-3886,-17486,20220.394481809697
1735577231406,113,-153,922,941.414892595183,9465,-3948,16733,19625.652040123405
1735577231436,113,-153,922,941.414892595183,9549,-3990,14950,18182.57410269514
1735577231466,152,-77,926,941.5460689737916,9567,-4032,13242,16826.61810941224
1735577231496,152,-77,926,941.5460689737916,9522,-4093,11591,15549.032574407966
1735577231526,152,-77,926,941.5460689737916,9500,-4161,9936,14362.730137407721
1735577231556,265,-83,932,972.4906169213151,9530,-4228,8236,13286.405834536292
1735577231586,265,-83,932,972.4906169213151,9555,-4297,6579,12371.154958208226
1735577231617,265,-83,932,972.4906169213151,9592,-4360,4919,11628.096361829825
1735577231646,265,-83,932,972.4906169213151,9638,-4415,3254,11089.2644030161
1735577231676,71,-49,909,913.0843334544734,9762,-4429,1456,10818.161627559462
1735577231706,71,-49,909,913.0843334544734,9903,-4401,-413,10844.75813469346
1735577231736,71,-49,909,913.0843334544734,10007,-4346,-2275,11144.65746445354
1735577231766,298,-101,954,1004.5501480762422,10036,-4334,-4012,11644.784068414494
1735577231797,298,-101,954,1004.5501480762422,9984,-4379,-5559,12237.580561532577
1735577231857,298,-101,954,1004.5501480762422,9951,-4433,-7108,13007.59601156186
1735577231857,83,-78,916,923.0541695913626,9919,-4464,-8658,13902.331495112609
1735577231886,83,-78,916,923.0541695913626,10010,-4395,-10455,15126.90153336102
1735577231916,83,-78,916,923.0541695913626,10063,-4309,-12241,16421.739585074414
1735577231946,83,-78,916,923.0541695913626,10082,-4214,-14017,17773.03600964112
1735577231976,127,-119,763,782.5975977473992,9984,-4179,-15655,19032.16545745649
1735577232006,127,-119,763,782.5975977473992,9896,-4164,-17277,20341.200579120203
1735577232036,127,-119,763,782.5975977473992,9821,-4166,17099,20153.9921107457
1735577232066,325,78,965,1021.2414014325898,9689,-4208,15525,18777.902172500526
1735577232096,325,78,965,1021.2414014325898,9410,-4323,14091,17486.929690485977
1735577232126,325,78,965,1021.2414014325898,9195,-4481,12656,16272.729396140034
1735577232156,116,-111,996,1008.8572743455835,9087,-4659,11163,15129.190956558119
1735577232186,116,-111,996,1008.8572743455835,9453,-4766,9276,14075.444611094883
1735577232216,116,-111,996,1008.8572743455835,9785,-4797,7379,13160.815894160969
1735577232246,116,-111,996,1008.8572743455835,10063,-4762,5488,12412.040807216194
1735577232276,208,-160,1070,1101.709580606432,10221,-4706,3756,11862.664666928758
1735577232306,208,-160,1070,1101.709580606432,10324,-4630,2072,11502.828347845585
1735577232336,208,-160,1070,1101.709580606432,10387,-4536,400,11341.299087847035
1735577232367,189,-114,998,1022.1159425427235,10378,-4427,-1254,11352.256559821048
1735577232396,189,-114,998,1022.1159425427235,10317,-4319,-2908,11556.414409322642
1735577232426,189,-114,998,1022.1159425427235,10241,-4224,-4558,11978.965773387952
1735577232456,178,5,921,938.0565014965783,10175,-4136,-6219,12621.928616499144
1735577232486,178,5,921,938.0565014965783,10046,-4056,-7918,13418.940941818024
1735577232516,178,5,921,938.0565014965783,9922,-4002,-9617,14385.71433749468
1735577232546,178,5,921,938.0565014965783,9808,-3975,-11317,15494.2562906388
1735577232576,280,-28,997,1035.9502883826037,9638,-4017,-12852,16559.02282744969
1735577232606,280,-28,997,1035.9502883826037,9493,-4097,-14350,17686.858341718013
1735577232636,280,-28,997,1035.9502883826037,9388,-4200,-15851,18895.204285744043
1735577232666,215,-100,958,986.908810377129,9365,-4303,-17434,20252.490957904414
1735577232696,215,-100,958,986.908810377129,9440,-4386,16899,19847.58919869111
1735577232757,215,-100,958,986.908810377129,9523,-4452,15227,18503.225718776714
1735577232757,2,-217,981,1004.7158802367961,9606,-4501,13559,17215.711370721805
1735577232787,2,-217,981,1004.7158802367961,9941,-4470,11653,15956.08943319133
1735577232816,2,-217,981,1004.7158802367961,10198,-4370,9765,14780.099086271377
1735577232846,2,-217,981,1004.7158802367961,10372,-4217,7902,13704.126276417624
1735577232876,207,-107,914,943.2359195874593,10308,-4106,6247,12733.385606349946
1735577232906,207,-107,914,943.2359195874593,10164,-4037,4667,11890.54893602478
1735577232937,207,-107,914,943.2359195874593,10031,-3995,3085,11229.345973831245
1735577232966,108,-67,948,956.4815732673578,9956,-3959,1455,10812.614947365877
1735577232996,108,-67,948,956.4815732673578,9919,-3918,-252,10667.745263175344
1735577233026,108,-67,948,956.4815732673578,9878,-3885,-1958,10793.603337162247
1735577233056,290,-100,1025,1069.9182211739362,9829,-3866,-3674,11182.731017063765
1735577233086,290,-100,1025,1069.9182211739362,9681,-3904,-5212,11667.387068234259
1735577233116,290,-100,1025,1069.9182211739362,9566,-3968,-6752,12362.964207664761
1735577233146,145,-84,969,983.3829366020136,9490,-4043,-8305,13243.072679706927
1735577233176,145,-84,969,983.3829366020136,9536,-4086,-10049,14443.44463762021
1735577233207,145,-84,969,983.3829366020136,9586,-4119,-11795,15747.367462531634
1735577233236,145,-84,969,983.3829366020136,9635,-4142,-13543,17128.98823632032
1735577233267,260,-74,979,1015.6362537838042,9583,-4186,-15142,18402.08273538623
1735577233296,260,-74,979,1015.6362537838042,9522,-4248,-16700,19687.66080569248
1735577233326,260,-74,979,1015.6362537838042,9485,-4320,17738,20573.387397315008
1735577233356,102,-114,996,1007.6785201640452,9485,-4396,16151,19239.14868178943
1735577233386,102,-114,996,1007.6785201640452,9682,-4430,14324,17847.772970317612
1735577233416,102,-114,996,1007.6785201640452,9852,-4422,12499,16517.89904921325
1735577233446,69,-12,964,966.5407389241283,9980,-4378,10685,15262.257663923774
1735577233477,69,-12,964,966.5407389241283,9999,-4309,8852,14032.297958638135
1735577233506,69,-12,964,966.5407389241283,9995,-4237,7025,12930.69290486786
1735577233536,69,-12,964,966.5407389241283,9972,-4168,5205,11996.042389054817
1735577233566,83,-136,994,1006.6881344289303,9993,-4124,3459,11350.423163917723
1735577233596,83,-136,994,1006.6881344289303,10027,-4070,1722,10957.68739287629
1735577233626,83,-136,994,1006.6881344289303,10040,-4010,-9,10811.18777008336
1735577233656,199,-115,1068,1092.4513719154734,10032,-3957,-1720,10920.497836637302
1735577233686,199,-115,1068,1092.4513719154734,9923,-3958,-3269,11172.200051914573
1735577233716,199,-115,1068,1092.4513719154734,9833,-3978,-4819,11650.542219141562
1735577233746,165,40,987,1001.4958811697629,9773,-3997,-6412,12353.189142889378
1735577233776,165,40,987,1001.4958811697629,9638,-4000,-8126,13225.842884292857
1735577233806,165,40,987,1001.4958811697629,9529,-4031,-9842,14279.907772811419
1735577233836,165,40,987,1001.4958811697629,9447,-4083,-11562,15478.906356716549
1735577233866,266,-83,1005,1042.914186306812,9415,-4170,-13192,16734.992948907984
1735577233896,266,-83,1005,1042.914186306812,9418,-4262,-14787,18042.137816788785
1735577233927,266,-83,1005,1042.914186306812,9441,-4351,-16388,19406.963337936206
1735577233956,36,-129,933,942.5635257106017,9574,-4410,17900,20773.04927062948
1735577233986,36,-129,933,942.5635257106017,9839,-4393,16001,19290.836451538333
1735577234016,36,-129,933,942.5635257106017,10046,-4321,14115,17855.710067090582
1735577234046,186,-194,1030,1064.4867307768566,10178,-4223,12259,16483.582559625804
1735577234076,186,-194,1030,1064.4867307768566,10192,-4169,10608,15290.097743310866
1735577234106,186,-194,1030,1064.4867307768566,10191,-4113,8961,14180.013081799325
1735577234136,186,-194,1030,1064.4867307768566,10176,-4057,7317,13173.788900692161
1735577234167,158,-58,890,905.7748064502567,10088,-3961,5632,12213.790934840828
1735577234196,158,-58,890,905.7748064502567,9965,-3889,3938,11398.832834987976
1735577234227,158,-58,890,905.7748064502567,9849,-3843,2244,10807.728068377739
1735577234256,251,-119,947,986.8996909514158,9727,-3853,620,10480.674501195044
1735577234285,251,-119,947,986.8996909514158,9618,-3909,-917,10422.432249719832
1735577234317,251,-119,947,986.8996909514158,9539,-3983,-2458,10625.374064003583
1735577234346,187,-191,988,1023.5203954978132,9473,-4072,-3992,11056.897259177187
1735577234376,187,-191,988,1023.5203954978132,9509,-4155,-5587,11785.570626830082
1735577234406,187,-191,988,1023.5203954978132,9558,-4230,-7187,12684.684978350862
1735577234436,187,-191,988,1023.5203954978132,9616,-4294,-8790,13717.5067705469
1735577234467,103,-128,958,971.9861110118807,9702,-4323,-10451,14901.024595644421
1735577234497,103,-128,958,971.9861110118807,9782,-4332,-12145,16185.016929246629
1735577234527,103,-128,958,971.9861110118807,9850,-4326,-13838,17527.892628607697
1735577234557,53,-103,948,955.0507839900453,9952,-4311,-15578,18981.59922135119
1735577234586,53,-103,948,955.0507839900453,10059,-4270,-17365,20517.30016352054
1735577234616,53,-103,948,955.0507839900453,10134,-4208,16854,20111.25396388798
1735577234646,231,-77,1006,1035.048791120496,10197,-4132,15061,18651.701102044284
1735577234676,231,-77,1006,1035.048791120496,10129,-4095,13428,17311.177025263187
1735577234706,231,-77,1006,1035.048791120496,10065,-4070,11795,16030.943515588844
1735577234736,231,-77,1006,1035.048791120496,10007,-4058,10161,14827.452040050577
1735577234766,91,-149,1027,1041.7346111174381,10011,-4012,8412,13677.646325300271
1735577234796,91,-149,1027,1041.7346111174381,10046,-3947,6616,12659.872866660233
1735577234825,91,-149,1027,1041.7346111174381,10056,-3876,4826,11808.335530463217
1735577234857,50,-92,969,974.6409595333042,10021,-3803,3036,11140.042459524111
1735577234887,50,-92,969,974.6409595333042,9952,-3740,1226,10702.008222758941
1735577234916,50,-92,969,974.6409595333042,9880,-3694,-583,10564.086567233346
1735577234946,46,-103,907,913.9879649098231,9797,-3658,-2383,10725.71032612759
1735577234976,46,-103,907,913.9879649098231,9706,-3628,-4169,11169.126241564289
1735577235006,46,-103,907,913.9879649098231,9625,-3618,-5956,11882.949339284418
1735577235036,46,-103,907,913.9879649098231,9558,-3627,-7745,12825.580610639037
1735577235066,174,-157,964,992.0791299084967,9560,-3696,-9461,13948.639252629628
1735577235096,174,-157,964,992.0791299084967,9570,-3768,-11135,15158.19741921842
1735577235126,174,-157,964,992.0791299084967,9596,-3837,-12811,16459.875637440276
1735577235156,131,-155,1054,1073.360144592671,9636,-3898,-14489,17831.93822891948
1735577235186,131,-155,1054,1073.360144592671,9696,-3944,-16192,19280.778407522866
1735577235216,131,-155,1054,1073.360144592671,9756,-3977,-17897,20767.73155643148
1735577235246,115,-100,1021,1032.3109996507835,9803,-3992,16390,19510.68868594853
1735577235276,115,-100,1021,1032.3109996507835,9790,-3992,14648,18064.995654580158
1735577235306,115,-100,1021,1032.3109996507835,9779,-3994,12905,16676.927234955485
1735577235337,115,-100,1021,1032.3109996507835,9770,-3999,11163,15364.161871055641
1735577235367,204,-58,863,888.6782319827577,9676,-4005,9459,14111.615144978976
1735577235397,204,-58,863,888.6782319827577,9573,-4040,7786,12984.05656950092
1735577235426,204,-58,863,888.6782319827577,9496,-4095,6110,12011.45873738906
1735577235457,130,-113,919,935.0026737929684,9487,-4165,4410,11260.483737388904
1735577235486,130,-113,919,935.0026737929684,9561,-4221,2654,10783.0087637913
1735577235516,130,-113,919,935.0026737929684,9637,-4261,895,10574.919148627096
1735577235546,184,-83,882,904.8032935395405,9700,-4287,-848,10638.960146555677
1735577235576,184,-83,882,904.8032935395405,9679,-4322,-2495,10889.800273650568
1735577235606,184,-83,882,904.8032935395405,9671,-4361,-4145,11389.801885897752
1735577235636,184,-83,882,904.8032935395405,9673,-4401,-5798,12105.88840193069
1735577235667,112,-278,1019,1062.1624169589131,9827,-4439,-7461,13112.634022194015
1735577235696,112,-278,1019,1062.1624169589131,10028,-4429,-9151,14279.972899133947
1735577235726,112,-278,1019,1062.1624169589131,10190,-4381,-10834,15504.993292484844
1735577235756,62,-86,954,959.8729082540042,10326,-4286,-12586,16834.591411733163
1735577235786,62,-86,954,959.8729082540042,10356,-4162,-14391,18211.805539264908
1735577235816,62,-86,954,959.8729082540042,10346,-4033,-16183,19626.36731542544
1735577235846,241,-142,954,994.1634674438606,10306,-3909,-17969,21080.295965664238
1735577235876,241,-142,954,994.1634674438606,10186,-3842,16434,19712.734868607145
1735577235906,241,-142,954,994.1634674438606,10074,-3799,14837,18331.787856071212
1735577235936,241,-142,954,994.1634674438606,9973,-3777,13238,16999.150037575408
1735577235966,163,-115,1068,1086.4704321793577,9898,-3770,11571,15686.661372006472
1735577235996,163,-115,1068,1086.4704321793577,9842,-3774,9875,14443.810612161875
