Timestamp,Acc_X,Acc_Y,Acc_Z,Acc_Betrag,Ori_X,Ori_Y,Ori_Z,Ori_Betrag
1735561441206,14,332,976,1031.0169736721118,-10267,4776,12648,16976.258981295025
1735561441206,-13,327,852,912.6894323919829,-10200,4786,16003,19571.453829493606
1735561441224,-13,327,852,912.6894323919829,-10126,4768,-16617,20034.829397826175
1735561441252,-13,327,852,912.6894323919829,-10094,4730,-13266,17327.679937025616
1735561441284,-59,330,937,995.1633031819451,-10114,4690,-9959,14948.938992450267
1735561441314,-59,330,937,995.1633031819451,-10139,4661,-6645,12987.696755006255
1735561441344,-59,330,937,995.1633031819451,-10179,4647,-3349,11680.002183218974
1735561441374,-59,330,937,995.1633031819451,-10218,4648,-56,11225.620873697811
1735561441404,-19,348,974,1034.476195956195,-10288,4677,3226,11752.631577651024
1735561441434,-19,348,974,1034.476195956195,-10323,4726,6528,13096.342581041472
1735561441464,-19,348,974,1034.476195956195,-10304,4775,9873,15048.228134900135
1735561441494,25,304,945,993.008559882542,-10227,4797,13237,17401.750113135175
1735561441524,25,304,945,993.008559882542,-10156,4778,16564,20008.49109753157
1735561441554,25,304,945,993.008559882542,-10127,4741,-16135,19630.879628788924
1735561441584,-52,354,988,1050.7920821932378,-10146,4702,-12864,17045.01733645349
1735561441614,-52,354,988,1050.7920821932378,-10177,4684,-9516,14699.164636128136
1735561441644,-52,354,988,1050.7920821932378,-10213,4680,-6176,12819.9354522556
1735561441674,-52,354,988,1050.7920821932378,-10239,4688,-2832,11611.834006736404
1735561441704,-17,300,950,996.3879766436365,-10216,4693,501,11253.528602176297
1735561441734,-17,300,950,996.3879766436365,-10195,4685,3818,11851.766703745057
1735561441764,-17,300,950,996.3879766436365,-10189,4671,7124,13281.01419320076
1735561441794,-53,297,972,1017.7435826375914,-10177,4662,10463,15322.530535130285
1735561441824,-53,297,972,1017.7435826375914,-10153,4650,13835,17779.57069222989
1735561441854,-53,297,972,1017.7435826375914,-10148,4632,17194,20495.632803111985
1735561441884,-3,329,955,1010.0866299481446,-10157,4616,-15461,19066.059529960563
1735561441914,-3,329,955,1010.0866299481446,-10237,4613,-12187,16571.026129965518
1735561441944,-3,329,955,1010.0866299481446,-10292,4636,-8903,14376.41015692026
1735561441974,-3,329,955,1010.0866299481446,-10309,4672,-5592,12624.322912536736
1735561442004,-132,350,976,1045.2272480183435,-10236,4711,-2170,11475.108583364256
1735561442034,-132,350,976,1045.2272480183435,-10124,4713,1320,11245.005335703492
1735561442064,-132,350,976,1045.2272480183435,-10052,4677,4792,12078.091612502365
1735561442094,-28,273,944,983.081380151206,-10046,4624,8177,13753.792967759839
1735561442124,-28,273,944,983.081380151206,-10108,4574,11432,15930.592079392403
1735561442154,-28,273,944,983.081380151206,-10190,4554,14661,18426.066780515044
1735561442184,-43,243,967,997.991482929589,-10261,4567,17889,21122.545561555784
1735561442214,-43,243,967,997.991482929589,-10258,4599,-14842,18618.870239625176
1735561442244,-43,243,967,997.991482929589,-10229,4623,-11551,16106.836157358775
1735561442275,-43,243,967,997.991482929589,-10189,4633,-8247,13903.000359634607
1735561442304,16,259,942,977.0880205999866,-10213,4632,-5009,12282.136377682833
1735561442334,16,259,942,977.0880205999866,-10247,4644,-1790,11391.744598611751
1735561442364,16,259,942,977.0880205999866,-10260,4663,1442,11361.80148567999
1735561442394,-144,309,1078,1130.6197415576999,-10217,4690,4766,12210.566940154744
1735561442424,-144,309,1078,1130.6197415576999,-10098,4697,8241,13854.439505082839
1735561442454,-144,309,1078,1130.6197415576999,-10017,4663,11700,16092.664726514375
1735561442484,-13,234,1003,1030.016504722133,-9994,4609,15111,18693.98935487019
1735561442514,-13,234,1003,1030.016504722133,-10076,4550,-17694,20863.986004596532
1735561442544,-13,234,1003,1030.016504722133,-10179,4527,-14529,18308.402743003007
1735561442574,-13,234,1003,1030.016504722133,-10267,4542,-11363,15973.691558309243
1735561442604,-91,273,1019,1058.8536253892698,-10289,4587,-8093,13870.859346125604
1735561442634,-91,273,1019,1058.8536253892698,-10253,4631,-4753,12213.155980335305
1735561442664,-91,273,1019,1058.8536253892698,-10190,4654,-1385,11287.782820377082
1735561442694,-5,244,894,926.7130084335711,-10150,4651,1941,11332.333475502739
1735561442724,-5,244,894,926.7130084335711,-10162,4636,5183,12313.497837738878
1735561442754,-5,244,894,926.7130084335711,-10181,4628,8415,13995.834023022708
1735561442784,-45,265,961,997.8832597052623,-10203,4631,11642,16158.079526973495
1735561442814,-45,265,961,997.8832597052623,-10197,4648,14922,18661.425374284783
1735561442844,-45,265,961,997.8832597052623,-10178,4660,-17785,21014.60228031927
1735561442874,-45,265,961,997.8832597052623,-10155,4664,-14488,18296.968738017782
1735561442905,-20,252,831,868.5994473864233,-10138,4650,-11188,15797.876059774617
1735561442934,-20,252,831,868.5994473864233,-10142,4635,-7911,13672.136263217975
1735561442964,-20,252,831,868.5994473864233,-10158,4623,-4645,12088.55318059196
1735561442994,-38,252,989,1021.3074953215609,-10175,4624,-1365,11259.450519452537
1735561443024,-38,252,989,1021.3074953215609,-10177,4631,1940,11348.175624301908
1735561443054,-38,252,989,1021.3074953215609,-10172,4637,5251,12350.884745636646
1735561443084,-48,284,960,1002.2774067093401,-10152,4641,8580,14079.005113998644
1735561443114,-48,284,960,1002.2774067093401,-10131,4643,11951,16340.777551879226
1735561443144,-48,284,960,1002.2774067093401,-10114,4638,15320,18934.266291567783
1735561443174,-48,284,960,1002.2774067093401,-10108,4628,-17317,20578.351173016752
1735561443234,-88,311,917,972.2931656655826,-10105,4619,-13965,17845.65524154269
1735561443235,-88,311,917,972.2931656655826,-10105,4612,-10605,15357.330301846087
1735561443265,-88,311,917,972.2931656655826,-10113,4606,-7249,13267.856119207805
1735561443293,-62,253,924,960.0151040478478,-10134,4599,-3940,11805.607015312682
1735561443324,-62,253,924,960.0151040478478,-10151,4592,-673,11161.639395716025
1735561443354,-62,253,924,960.0151040478478,-10169,4592,2591,11454.619417510125
1735561443384,-94,285,961,1006.7680964353211,-10179,4599,5876,12621.022858706818
1735561443414,-94,285,961,1006.7680964353211,-10172,4618,9246,14501.173193917793
1735561443444,-94,285,961,1006.7680964353211,-10150,4632,12630,16852.145976106425
1735561443474,-94,285,961,1006.7680964353211,-10125,4635,16020,19509.97821628717
1735561443504,-71,308,920,972.7820927628139,-10142,4627,-16664,20048.894957079305
1735561443564,-71,308,920,972.7820927628139,-10171,4629,-13361,17418.18598476891
1735561443565,-71,308,920,972.7820927628139,-10187,4640,-10052,15044.842072949785
1735561443595,-62,322,890,948.4872165717364,-10187,4653,-6723,13062.31629535895
1735561443624,-62,322,890,948.4872165717364,-10184,4665,-3386,11702.18257420384
1735561443654,-62,322,890,948.4872165717364,-10171,4674,-40,11193.619477184313
1735561443684,-32,273,871,913.3422140687466,-10160,4676,3312,11664.472555585186
1735561443714,-32,273,871,913.3422140687466,-10146,4667,6632,12988.673103900952
1735561443744,-32,273,871,913.3422140687466,-10144,4656,9943,14947.987188916106
1735561443775,-32,273,871,913.3422140687466,-10154,4646,13245,17323.94461431922
1735561443804,-18,266,846,887.0152197115898,-10172,4653,16527,19956.49573447202
1735561443834,-18,266,846,887.0152197115898,-10182,4664,-16188,19684.444721657757
1735561443864,-18,266,846,887.0152197115898,-10178,4676,-12894,17079.57540455851
1735561443894,-47,297,1002,1046.146261284721,-10139,4672,-9547,14689.18357159444
1735561443924,-47,297,1002,1046.146261284721,-10106,4652,-6170,12721.683850811574
1735561443954,-47,297,1002,1046.146261284721,-10102,4626,-2814,11461.626237144535
1735561443984,-43,310,977,1025.9035042341945,-10136,4606,497,11144.538617636892
1735561444014,-43,310,977,1025.9035042341945,-10213,4610,3750,11816.089412322504
1735561444044,-43,310,977,1025.9035042341945,-10261,4638,7018,13268.439584216374
1735561444074,-82,298,925,975.2707316432704,-10264,4677,10322,15289.463986680501
1735561444104,-82,298,925,975.2707316432704,-10182,4704,13715,17717.278713165855
1735561444134,-82,298,925,975.2707316432704,-10104,4699,17115,20422.895044532743
1735561444164,-82,298,925,975.2707316432704,-10058,4671,-15501,19059.449257520533
1735561444194,-115,321,913,974.5947875912327,-10048,4632,-12108,16401.871600521692
1735561444224,-115,321,913,974.5947875912327,-10071,4600,-8731,14100.191558982453
1735561444254,-115,321,913,974.5947875912327,-10113,4582,-5374,12334.803160164332
1735561444284,-16,281,847,892.5390747748806,-10152,4580,-2022,11319.363409662223
1735561444314,-16,281,847,892.5390747748806,-10226,4584,1214,11271.997515968498
1735561444344,-16,281,847,892.5390747748806,-10274,4610,4464,12113.400513480927
1735561444374,-83,271,936,977.9703471987277,-10285,4648,7733,13681.535659420693
1735561444404,-83,271,936,977.9703471987277,-10197,4681,11100,15782.920198746491
1735561444434,-83,271,936,977.9703471987277,-10111,4678,14478,18268.237161806283
1735561444464,-83,271,936,977.9703471987277,-10057,4649,17839,20999.67549749281
1735561444494,-23,263,1014,1047.8043710540628,-10106,4606,-14912,18593.39172932147
1735561444524,-23,263,1014,1047.8043710540628,-10187,4589,-11711,16185.839829925415
1735561444585,-23,263,1014,1047.8043710540628,-10255,4601,-8509,14097.421998365517
1735561444585,-79,319,987,1040.274483009172,-10284,4624,-5259,12441.82916616363
1735561444614,-79,319,987,1040.274483009172,-10280,4653,-1938,11449.220628496945
1735561444644,-79,319,987,1040.274483009172,-10252,4674,1403,11354.214591947784
1735561444674,-65,277,974,1014.7068542194834,-10205,4686,4770,12200.55412675998
1735561444704,-65,277,974,1014.7068542194834,-10123,4678,8149,13811.770849532655
1735561444735,-65,277,974,1014.7068542194834,-10076,4646,11507,15985.05993107314
1735561444765,-65,277,974,1014.7068542194834,-10074,4605,14833,18512.411782369145
1735561444794,-46,342,829,897.953785002324,-10168,4575,-17898,21086.897661818344
1735561444824,-46,342,829,897.953785002324,-10274,4589,-14640,18464.658052615
1735561444854,-46,342,829,897.953785002324,-10331,4634,-11355,16035.571146672637
1735561444884,-89,308,1041,1089.2502008262381,-10309,4684,-7992,13859.559913648052
1735561444914,-89,308,1041,1089.2502008262381,-10213,4706,-4553,12131.842976234073
1735561444944,-89,308,1041,1089.2502008262381,-10131,4692,-1114,11220.20592502651
1735561444974,-42,304,1091,1133.3406372313666,-10096,4657,2275,11348.677896565749
1735561445004,-42,304,1091,1133.3406372313666,-10143,4624,5528,12442.692996293044
1735561445034,-42,304,1091,1133.3406372313666,-10203,4612,8765,14219.598376888147
1735561445064,-42,304,1091,1133.3406372313666,-10252,4622,12004,16448.781231446905
1735561445094,5,333,880,940.9112604278897,-10370,4663,15218,18996.525813948192
1735561445124,5,333,880,940.9112604278897,-10432,4737,-17537,20947.84385085969
1735561445154,5,333,880,940.9112604278897,-10408,4817,-14224,18271.620864061293
1735561445185,38,349,882,949.2992152108839,-10300,4859,-10829,15715.187622169835
1735561445214,38,349,882,949.2992152108839,-10204,4855,-7429,13523.412365227941
1735561445244,38,349,882,949.2992152108839,-10146,4822,-4050,11941.33577117736
1735561445274,-108,379,1046,1117.7750220862872,-10137,4777,-704,11228.272974950332
1735561445304,-108,379,1046,1117.7750220862872,-10067,4732,2787,11467.505482885108
1735561445334,-108,379,1046,1117.7750220862872,-10062,4676,6233,12726.315609790605
1735561445364,-108,379,1046,1117.7750220862872,-10108,4631,9634,14711.620610932026
1735561445394,-11,340,915,976.1895307777071,-10206,4608,12923,17099.708447806937
1735561445424,-11,340,915,976.1895307777071,-10308,4620,16171,19725.630661654395
1735561445454,-11,340,915,976.1895307777071,-10365,4662,-16555,20080.724439123205
1735561445484,-55,285,893,938.9882853369364,-10325,4713,-13223,17426.00708710977
1735561445514,-55,285,893,938.9882853369364,-10200,4727,-9827,14931.659586261669
1735561445544,-55,285,893,938.9882853369364,-10107,4697,-6442,12872.941466502518
1735561445604,-39,275,959,998.4122395083106,-10068,4640,-3088,11507.822035467876
1735561445605,-39,275,959,998.4122395083106,-10092,4576,213,11083.032482132316
1735561445634,-39,275,959,998.4122395083106,-10162,4532,3472,11655.902024296533
1735561445664,-39,275,959,998.4122395083106,-10244,4520,6711,13054.020721601448
1735561445694,-20,286,912,956.0020920479202,-10337,4553,9931,15040.217385397062
1735561445724,-20,286,912,956.0020920479202,-10378,4611,13182,17399.118627102926
1735561445754,-20,286,912,956.0020920479202,-10357,4670,16483,20019.131799356335
1735561445784,-60,311,969,1019.4518134762427,-10301,4721,-16152,19730.320473829106
1735561445814,-60,311,969,1019.4518134762427,-10212,4751,-12719,16989.11139524372
1735561445844,-60,311,969,1019.4518134762427,-10128,4745,-9278,14531.782168749984
1735561445874,0,276,934,973.9260752233713,-10079,4714,-5878,12584.074101816152
1735561445904,0,276,934,973.9260752233713,-10102,4669,-2631,11435.564087529745
1735561445935,0,276,934,973.9260752233713,-10154,4640,585,11179.245994252027
1735561445965,0,276,934,973.9260752233713,-10214,4633,3789,11838.370073620777
1735561445994,-34,256,958,992.197560972612,-10194,4642,7090,13256.46634665513
1735561446024,-34,256,958,992.197560972612,-10160,4640,10407,15266.330567624953
1735561446054,-34,256,958,992.197560972612,-10139,4628,13716,17673.323428263287
1735561446085,-59,275,950,990.7603141022555,-10152,4617,17009,20339.269259243312
1735561446114,-59,275,950,990.7603141022555,-10172,4619,-15687,19258.419301697635
1735561446144,-59,275,950,990.7603141022555,-10183,4626,-12380,16684.05721040299
1735561446174,-27,331,873,934.0337253011799,-10177,4634,-9061,14392.602474882713
1735561446205,-27,331,873,934.0337253011799,-10223,4647,-5764,12622.520905112417
1735561446234,-27,331,873,934.0337253011799,-10242,4672,-2450,11520.791986664806
1735561446264,-27,331,873,934.0337253011799,-10234,4698,886,11295.616671966165
1735561446294,-86,312,938,992.2620621589842,-10158,4724,4284,11993.906619613144
1735561446323,-86,312,938,992.2620621589842,-10067,4715,7713,13530.191535968735
1735561446354,-86,312,938,992.2620621589842,-10016,4679,11119,15679.459748345924
1735561446384,-28,364,945,1013.0671251205421,-10048,4637,14477,18222.173361045603
1735561446414,-28,364,945,1013.0671251205421,-10158,4630,17776,20990.665544474763
1735561446444,-28,364,945,1013.0671251205421,-10236,4659,-14912,18677.51913397494
1735561446474,-104,310,949,1003.7514632616981,-10271,4711,-11582,16181.152183945369
1735561446504,-104,310,949,1003.7514632616981,-10155,4754,-8147,13859.947691098982
1735561446534,-104,310,949,1003.7514632616981,-10040,4750,-4697,12059.266519983708
1735561446564,-104,310,949,1003.7514632616981,-9970,4710,-1272,11099.683959464792
1735561446624,-22,311,922,973.2877272420525,-10010,4658,2028,11225.410816535847
1735561446625,-22,311,922,973.2877272420525,-10101,4634,5266,12297.760487178142
1735561446654,-22,311,922,973.2877272420525,-10182,4644,8501,14053.713423860614
1735561446684,-25,327,829,891.5127593029727,-10226,4673,11766,16274.11321700817
1735561446714,-25,327,829,891.5127593029727,-10234,4711,15067,18813.366684355035
1735561446744,-25,327,829,891.5127593029727,-10207,4743,-17601,20891.96254543838
1735561446774,-45,331,867,929.125933337349,-10153,4757,-14228,18114.867981854022
1735561446805,-45,331,867,929.125933337349,-10077,4746,-10788,15506.495058523058
1735561446834,-45,331,867,929.125933337349,-10039,4713,-7371,13316.363279814801
1735561446864,-45,331,867,929.125933337349,-10043,4675,-3987,11773.429534337052
1735561446894,-142,385,949,1033.9197260909573,-10057,4648,-557,11093.12408656822
1735561446924,-142,385,949,1033.9197260909573,-10076,4633,2894,11461.487730656958
1735561446954,-142,385,949,1033.9197260909573,-10101,4627,6338,12790.995817370906
1735561446984,-50,347,1057,1113.6238144005363,-10149,4624,9729,14799.899256413875
1735561447014,-50,347,1057,1113.6238144005363,-10220,4635,13040,17203.87238385591
1735561447044,-50,347,1057,1113.6238144005363,-10258,4666,16372,19875.625876937815
1735561447074,-109,289,1042,1086.8146116058617,-10251,4704,-16268,19795.41464582139
1735561447104,-109,289,1042,1086.8146116058617,-10110,4716,-12819,16993.513968570478
1735561447134,-109,289,1042,1086.8146116058617,-10009,4679,-9385,14496.597773270803
1735561447164,-109,289,1042,1086.8146116058617,-9977,4618,-5999,12524.154821783384
1735561447194,-78,288,945,990.9858727550055,-10018,4553,-2682,11326.219890148699
1735561447224,-78,288,945,990.9858727550055,-10105,4516,583,11083.554032890353
1735561447254,-78,288,945,990.9858727550055,-10193,4516,3837,11790.422977993623
1735561447284,-51,336,857,921.9251596523441,-10287,4548,7087,13294.06792520634
1735561447314,-51,336,857,921.9251596523441,-10364,4618,10354,15360.460149357505
1735561447344,-51,336,857,921.9251596523441,-10355,4697,13685,17792.331466112024
1735561447374,-65,333,998,1054.0958210713104,-10287,4757,17066,20486.57545808962
1735561447404,-65,333,998,1054.0958210713104,-10191,4781,-15521,19173.31173793406
1735561447434,-65,333,998,1054.0958210713104,-10107,4770,-12106,16476.030620267735
1735561447464,-65,333,998,1054.0958210713104,-10063,4734,-8716,14129.521612567072
1735561447494,12,340,879,942.5417762624636,-10096,4691,-5398,12372.271456769771
1735561447524,12,340,879,942.5417762624636,-10175,4672,-2136,11398.276404790331
1735561447554,12,340,879,942.5417762624636,-10244,4682,1123,11319.089583531
1735561447584,-80,369,855,934.6582263052094,-10260,4715,4447,12135.67608335028
1735561447614,-80,369,855,934.6582263052094,-10202,4745,7879,13735.882570843418
1735561447644,-80,369,855,934.6582263052094,-10138,4750,11325,15924.734503281366
1735561447674,-56,359,881,952.9837354330871,-10089,4730,14767,18499.32728506634
1735561447704,-56,359,881,952.9837354330871,-10085,4692,-17842,21025.200427106516
1735561447734,-56,359,881,952.9837354330871,-10116,4661,-14481,18269.037686752963
1735561447764,-67,377,893,971.631102836874,-10166,4649,-11140,15781.646206907568
1735561447794,-67,377,893,971.631102836874,-10217,4666,-7787,13667.333829244093
1735561447824,-67,377,893,971.631102836874,-10235,4695,-4413,12094.330035185909
1735561447854,-67,377,893,971.631102836874,-10221,4724,-1012,11305.271381085904
1735561447884,-105,317,1032,1084.6833639362226,-10131,4734,2417,11440.70828226994
1735561447914,-105,317,1032,1084.6833639362226,-10042,4703,5851,12537.710078000688
1735561447944,-105,317,1032,1084.6833639362226,-10013,4651,9245,14400.069270666721
1735561447974,-113,299,914,968.2799182054742,-10038,4601,12594,16749.312851576928
1735561448004,-113,299,914,968.2799182054742,-10076,4566,15919,19385.270000698983
1735561448034,-113,299,914,968.2799182054742,-10130,4552,-16774,20117.273175060283
1735561448064,10,300,968,1013.4712625427521,-10179,4557,-13459,17479.215400011522
1735561448094,10,300,968,1013.4712625427521,-10310,4587,-10254,15247.333701339392
1735561448124,10,300,968,1013.4712625427521,-10373,4651,-7009,13355.036914962086
1735561448154,10,300,968,1013.4712625427521,-10360,4722,-3706,11973.35876018087
1735561448184,-48,316,1003,1052.6960624985732,-10245,4776,-327,11308.277057094065
1735561448214,-48,316,1003,1052.6960624985732,-10109,4779,3099,11603.211753648211
1735561448244,-48,316,1003,1052.6960624985732,-10019,4739,6504,12850.700292201978
1735561448274,-60,310,882,936.8158837252921,-9984,4666,9872,14795.54649210363
1735561448304,-60,310,882,936.8158837252921,-10015,4589,13189,17184.553151013268
1735561448334,-60,310,882,936.8158837252921,-10100,4538,16455,19833.569245095547
1735561448364,-50,313,972,1022.3761538690151,-10213,4529,-16307,19767.029594757023
1735561448394,-50,313,972,1022.3761538690151,-10328,4573,-13083,17284.235649863145
1735561448424,-50,313,972,1022.3761538690151,-10369,4645,-9810,15010.93887803158
1735561448454,-50,313,972,1022.3761538690151,-10334,4715,-6476,13075.219195103384
1735561448484,-3,272,909,948.8276977407437,-10265,4751,-3156,11743.192155457562
1735561448514,-3,272,909,948.8276977407437,-10193,4755,159,11248.669032378897
1735561448544,-3,272,909,948.8276977407437,-10142,4735,3465,11716.937057098155
1735561448574,-45,333,963,1019.9426454463015,-10120,4705,6788,13062.47943539051
1735561448604,-45,333,963,1019.9426454463015,-10131,4682,10134,15075.0204311636
1735561448634,-45,333,963,1019.9426454463015,-10159,4668,13464,17500.70858565447
1735561448664,-94,327,936,995.9221857153299,-10188,4666,16786,20182.583977281007
1735561448694,-94,327,936,995.9221857153299,-10161,4670,-15832,19383.163957414177
1735561448724,-94,327,936,995.9221857153299,-10139,4664,-12453,16722.12384836328
1735561448754,-94,327,936,995.9221857153299,-10130,4653,-9082,14378.804992070794
1735561448784,-7,361,903,972.5116965877583,-10214,4656,-5803,12636.413296501503
1735561448814,-7,361,903,972.5116965877583,-10297,4692,-2542,11597.622040746111
1735561448844,-7,361,903,972.5116965877583,-10322,4746,759,11386.144255190165
1735561448874,-124,321,978,1036.7743245277634,-10235,4788,4184,12049.316370649416
1735561448904,-124,321,978,1036.7743245277634,-10057,4773,7733,13554.485124858118
1735561448934,-124,321,978,1036.7743245277634,-9960,4702,11234,15732.55096924844
1735561448964,-29,316,932,984.5410098111709,-9960,4621,14652,18309.46053274099
1735561448994,-29,316,932,984.5410098111709,-10097,4570,17880,21036.366344975075
1735561449024,-29,316,932,984.5410098111709,-10231,4572,-14906,18648.46859664353
1735561449054,-29,316,932,984.5410098111709,-10319,4616,-11670,16247.403392542452
1735561449084,-59,334,867,930.9812028177583,-10332,4673,-8355,14085.21132251838
1735561449114,-59,334,867,930.9812028177583,-10286,4724,-4981,12366.419570756929
1735561449144,-59,334,867,930.9812028177583,-10212,4748,-1575,11371.414731685763
1735561449204,-69,306,868,922.9414932702939,-10120,4739,1848,11326.41271541877
1735561449206,-69,306,868,922.9414932702939,-10048,4693,5256,12272.411702676862
1735561449235,-69,306,868,922.9414932702939,-10041,4635,8617,14019.899963979771
1735561449265,-61,307,964,1013.5413163754105,-10096,4590,11923,16283.588210219516
1735561449294,-61,307,964,1013.5413163754105,-10192,4579,15177,18846.363946395602
1735561449324,-61,307,964,1013.5413163754105,-10264,4600,-17561,20854.21820639652
1735561449354,-61,307,964,1013.5413163754105,-10294,4641,-14272,18198.771964063948
1735561449384,-17,267,953,989.8419065689228,-10283,4678,-10987,15758.741764493763
1735561449414,-17,267,953,989.8419065689228,-10247,4701,-7696,13650.23171964491
1735561449444,-17,267,953,989.8419065689228,-10203,4708,-4394,12065.393031310667
1735561449474,-38,293,925,971.0396490360216,-10172,4702,-1067,11256.859109005496
1735561449504,-38,293,925,971.0396490360216,-10156,4693,2277,11417.23758183213
1735561449534,-38,293,925,971.0396490360216,-10155,4680,5611,12510.385525634292
1735561449564,-28,257,963,997.0967856732866,-10156,4669,8937,14311.319505901613
1735561449594,-28,257,963,997.0967856732866,-10134,4648,12239,16555.81411468491
1735561449623,-28,257,963,997.0967856732866,-10138,4624,15521,19106.592082315463
1735561449654,-28,257,963,997.0967856732866,-10161,4607,-17212,20511.540995254356
1735561449684,-6,279,860,904.1443468827309,-10183,4596,-13978,17894.166339899715
1735561449714,-6,279,860,904.1443468827309,-10217,4598,-10756,15531.26617504188
1735561449744,-6,279,860,904.1443468827309,-10238,4610,-7528,13518.118508135665
1735561449774,-37,263,930,967.1804381810045,-10249,4631,-4276,12032.137715302299
1735561449804,-37,263,930,967.1804381810045,-10222,4651,-981,11273.12937919192
1735561449834,-37,263,930,967.1804381810045,-10187,4658,2324,11439.969798911185
1735561449864,-50,294,891,939.583418329634,-10153,4650,5640,12510.615852147328
1735561449894,-50,294,891,939.583418329634,-10144,4633,8978,14316.770201410653
1735561449924,-50,294,891,939.583418329634,-10152,4617,12302,16604.788375646345
1735561449954,-50,294,891,939.583418329634,-10171,4606,15616,19196.97718392143
1735561449984,-68,342,934,996.9674016736957,-10220,4613,-17069,20422.510374584217
1735561450014,-68,342,934,996.9674016736957,-10251,4639,-13732,17753.06018690862
1735561450044,-68,342,934,996.9674016736957,-10249,4669,-10371,15310.101338658735
1735561450074,26,293,973,1016.4910230789055,-10251,4693,-7033,13287.977235079838
1735561450104,26,293,973,1016.4910230789055,-10267,4713,-3758,11905.722237646904
1735561450134,26,293,973,1016.4910230789055,-10260,4733,-465,11308.630067342374
1735561450164,-40,284,940,982.7797311707237,-10221,4748,2851,11624.99660215004
1735561450194,-40,284,940,982.7797311707237,-10090,4735,6271,12788.814096701852
1735561450224,-40,284,940,982.7797311707237,-10016,4683,9657,14680.204153893774
1735561450254,-40,284,940,982.7797311707237,-10014,4619,12991,17040.582090996773
1735561450284,-114,252,933,973.1335982279103,-10013,4569,16339,19700.22464338922
1735561450314,-114,252,933,973.1335982279103,-10031,4522,-16323,19685.26794331233
1735561450344,-114,252,933,973.1335982279103,-10081,4491,-13016,17064.931819377423
1735561450374,-18,262,954,989.4867356362086,-10177,4485,-9778,14808.6406533483
1735561450404,-18,262,954,989.4867356362086,-10302,4518,-6611,13047.944244209506
1735561450434,-18,262,954,989.4867356362086,-10359,4586,-3402,11828.51981441465
1735561450464,-54,289,907,953.460014893126,-10344,4657,-144,11344.898457015823
1735561450494,-54,289,907,953.460014893126,-10268,4710,3192,11739.028409540544
1735561450524,-54,289,907,953.460014893126,-10170,4728,6558,12991.930110649457
1735561450554,-54,289,907,953.460014893126,-10091,4711,9921,14914.692185895088
1735561450584,-37,334,940,998.2609879184902,-10088,4683,13277,17319.843013145357
1735561450614,-37,334,940,998.2609879184902,-10124,4666,16607,20001.484469908726
1735561450644,-37,334,940,998.2609879184902,-10162,4665,-16067,19574.906334386378
1735561450674,-28,281,964,1004.5103284685529,-10185,4672,-12760,16981.737514165034
1735561450704,-28,281,964,1004.5103284685529,-10180,4676,-9463,14664.438107203427
1735561450734,-28,281,964,1004.5103284685529,-10173,4678,-6165,12782.051400303473
1735561450764,-14,247,916,948.8208471571438,-10159,4679,-2866,11546.09362511841
1735561450794,-14,247,916,948.8208471571438,-10120,4672,410,11153.926842148463
1735561450824,-14,247,916,948.8208471571438,-10102,4654,3675,11713.912454854697
1735561450854,-14,247,916,948.8208471571438,-10105,4633,6924,13096.468607987423
1735561450884,-62,276,979,1019.0490665321273,-10134,4624,10222,15118.485903026136
1735561450914,-62,276,979,1019.0490665321273,-10154,4627,13539,17544.724734232794
1735561450944,-62,276,979,1019.0490665321273,-10165,4636,16861,20226.54300665341
1735561450974,-50,266,906,945.5643817318839,-10155,4641,-15811,19355.893856910872
1735561451034,-50,266,906,945.5643817318839,-10144,4638,-12493,16747.741011849925
1735561451035,-50,266,906,945.5643817318839,-10139,4631,-9179,14439.512561025043
1735561451064,-103,305,912,967.1494196865343,-10147,4625,-5873,12603.347293477238
1735561451094,-103,305,912,967.1494196865343,-10151,4630,-2512,11436.338793512547
1735561451124,-103,305,912,967.1494196865343,-10149,4637,854,11190.767891436226
1735561451154,-103,305,912,967.1494196865343,-10143,4641,4225,11927.696969658477
1735561451184,-101,264,1050,1087.380798064781,-10113,4633,7585,13463.643006259486
1735561451214,-101,264,1050,1087.380798064781,-10093,4613,10930,15576.049499150931
1735561451244,-101,264,1050,1087.380798064781,-10097,4591,14257,18063.464202638428
1735561451274,-69,255,909,946.6081554687769,-10110,4574,17570,20780.72366401132
1735561451304,-69,255,909,946.6081554687769,-10139,4564,-15145,18788.305990695382
1735561451334,-69,255,909,946.6081554687769,-10166,4565,-11864,16277.016833560136
1735561451364,-30,237,921,951.477797954319,-10182,4575,-8579,14078.458367307125
1735561451394,-30,237,921,951.477797954319,-10201,4585,-5335,12391.321600216823
1735561451424,-30,237,921,951.477797954319,-10206,4599,-2082,11386.305853963348
1735561451458,-48,280,930,972.4217192144569,-10196,4613,1183,11253.340570692775
1735561451483,-48,280,930,972.4217192144569,-10194,4630,4485,12061.084569805487
1735561451514,-48,280,930,972.4217192144569,-10177,4644,7799,13636.80556435414
1735561451545,-48,280,930,972.4217192144569,-10154,4649,11121,15760.506273594132
1735561451574,7,223,947,972.9270270683203,-10162,4636,14374,18203.587997974464
1735561451605,7,223,947,972.9270270683203,-10181,4625,17595,20847.7195635398
1735561451635,7,223,947,972.9270270683203,-10204,4622,-15188,18872.19764627321
1735561451664,-51,234,1004,1032.1690752972597,-10215,4627,-11965,16398.676135590948
1735561451694,-51,234,1004,1032.1690752972597,-10169,4632,-8658,14135.945281444747
1735561451724,-51,234,1004,1032.1690752972597,-10134,4621,-5355,12358.30174417181
1735561451754,-19,330,909,967.2342012149901,-10128,4602,-2074,11316.194766793296
1735561451784,-19,330,909,967.2342012149901,-10252,4608,1142,11297.846343440859
1735561451814,-19,330,909,967.2342012149901,-10328,4652,4383,12145.755513758706
1735561451844,-19,330,909,967.2342012149901,-10342,4711,7669,13709.998030634431
1735561451874,-50,260,895,933.3407737798665,-10217,4759,11055,15787.596238819891
1735561451904,-50,260,895,933.3407737798665,-10071,4747,14467,18255.222239129274
1735561451934,-50,260,895,933.3407737798665,-9988,4691,17843,20979.47268164765
1735561451964,30,210,964,987.0643342761402,-10005,4611,-14877,18511.792862929295
1735561451994,30,210,964,987.0643342761402,-10108,4548,-11724,16134.06780697292
1735561452024,30,210,964,987.0643342761402,-10229,4529,-8598,14109.21280582301
1735561452054,-70,279,919,962.9652122480853,-10320,4554,-5460,12532.075486526563
1735561452084,-70,279,919,962.9652122480853,-10316,4619,-2148,11505.169316442067
1735561452114,-70,279,919,962.9652122480853,-10256,4669,1212,11333.756702876588
1735561452144,-70,279,919,962.9652122480853,-10173,4689,4603,12110.502012716071
1735561452174,39,213,880,906.2505172412317,-10131,4668,7887,13661.337928621779
1735561452204,39,213,880,906.2505172412317,-10137,4635,11102,15732.01824306087
1735561452234,39,213,880,906.2505172412317,-10168,4611,14294,18137.474493434856
1735561452264,-83,306,1005,1053.8263614087475,-10208,4606,17518,20791.79703633142
1735561452294,-83,306,1005,1053.8263614087475,-10218,4623,-15153,18851.871578174938
1735561452354,-83,306,1005,1053.8263614087475,-10210,4641,-11809,16286.05114814515
1735561452354,-59,291,922,968.6309926901988,-10190,4653,-8457,14035.930963067609
1735561452384,-59,291,922,968.6309926901988,-10177,4657,-5129,12311.198926180992
1735561452415,-59,291,922,968.6309926901988,-10164,4657,-1801,11324.228273926661
1735561452444,-59,291,922,968.6309926901988,-10157,4652,1523,11274.984789346725
1735561452474,-13,268,932,969.854112740674,-10155,4639,4832,12165.21968564481
1735561452504,-13,268,932,969.854112740674,-10171,4629,8113,13809.332025843973
1735561452534,-13,268,932,969.854112740674,-10190,4626,11388,15966.293245459323
1735561452564,-47,331,853,916.1762930790121,-10217,4631,14673,18469.709770323952
1735561452594,-47,331,853,916.1762930790121,-10242,4653,17996,21222.746971115685
1735561452624,-47,331,853,916.1762930790121,-10239,4679,-14660,18483.66202893788
1735561452654,-6,182,1013,1029.2370961056545,-10219,4698,-11302,15944.728564638533
1735561452684,-6,182,1013,1029.2370961056545,-10119,4683,-7998,13721.977044143458
1735561452714,-6,182,1013,1029.2370961056545,-10069,4638,-4724,12050.39339606803
1735561452744,-6,182,1013,1029.2370961056545,-10074,4586,-1492,11168.837719297384
1735561452774,-22,287,972,1013.7243214996867,-10164,4558,1736,11273.684224777631
1735561452804,-22,287,972,1013.7243214996867,-10264,4576,4971,12288.218463227287
1735561452833,-22,287,972,1013.7243214996867,-10316,4621,8233,13984.126215105469
1735561452864,-69,217,1016,1041.2041106334532,-10282,4671,11533,16141.49478827782
1735561452895,-69,217,1016,1041.2041106334532,-10162,4684,14886,18622.542683532774
1735561452924,-69,217,1016,1041.2041106334532,-10072,4656,-17770,20949.854892098894
1735561452955,-13,279,945,985.4110817318831,-10039,4606,-14468,18202.191653754227
1735561452985,-13,279,945,985.4110817318831,-10154,4573,-11279,15850.296085562566
1735561453014,-13,279,945,985.4110817318831,-10258,4582,-8096,13847.978336204891
1735561453044,-13,279,945,985.4110817318831,-10320,4623,-4889,12319.774754434433
1735561453074,-102,278,904,951.2644217040812,-10256,4669,-1529,11372.024358046372
1735561453135,-102,278,904,951.2644217040812,-10149,4681,1890,11335.169253257756
1735561453135,-102,278,904,951.2644217040812,-10070,4656,5301,12295.683673549836
1735561453164,-56,272,913,954.3002672115313,-10067,4614,8642,14046.98006690406
1735561453194,-56,272,913,954.3002672115313,-10126,4587,11907,16289.662181887014
1735561453224,-56,272,913,954.3002672115313,-10188,4583,15162,18833.095258082245
1735561453254,-6,186,993,1010.2875828198622,-10235,4598,-17581,20856.37528431055
1735561453284,-6,186,993,1010.2875828198622,-10239,4607,-14384,18247.219678625013
1735561453314,-6,186,993,1010.2875828198622,-10235,4614,-11182,15845.5465352256
1735561453344,-6,186,993,1010.2875828198622,-10226,4619,-7975,13766.14913474353
1735561453375,-9,286,854,900.6625339160056,-10230,4621,-4704,12171.037630374823
1735561453404,-9,286,854,900.6625339160056,-10249,4634,-1426,11337.964235258461
1735561453434,-9,286,854,900.6625339160056,-10250,4651,1865,11409.317508072076
1735561453464,-45,236,951,980.8781779609535,-10221,4666,5187,12375.191554073012
1735561453494,-45,236,951,980.8781779609535,-10151,4659,8542,14061.111122525133
1735561453524,-45,236,951,980.8781779609535,-10111,4631,11880,16273.072297510387
1735561453554,12,255,942,975.9779710628719,-10115,4600,15182,18813.993435738197
1735561453584,12,255,942,975.9779710628719,-10212,4590,-17620,20876.2411367564
1735561453614,12,255,942,975.9779710628719,-10286,4612,-14415,18299.305041448977
1735561453645,12,255,942,975.9779710628719,-10316,4654,-11182,15909.641605014238
1735561453675,-51,245,1016,1046.36609272281,-10245,4694,-7857,13737.76219040059
1735561453705,-51,245,1016,1046.36609272281,-10144,4699,-4487,12046.348243347442
1735561453735,-51,245,1016,1046.36609272281,-10074,4670,-1131,11161.251587523686
1735561453764,-33,269,909,948.5415120067229,-10069,4619,2164,11287.285679028417
1735561453794,-33,269,909,948.5415120067229,-10132,4579,5399,12360.172571610803
1735561453824,-33,269,909,948.5415120067229,-10207,4567,8616,14116.507854281808
1735561453854,-63,243,972,1003.8934206378683,-10268,4586,11841,16330.11025682313
1735561453883,-63,243,972,1003.8934206378683,-10248,4623,15140,18857.710173825453
1735561453914,-63,243,972,1003.8934206378683,-10203,4647,-17535,20812.785565608465
1735561453944,-63,243,972,1003.8934206378683,-10154,4650,-14201,18066.39468737468
1735561453974,-100,293,1019,1064.9929577231956,-10117,4628,-10846,15537.303144368394
1735561454035,-100,293,1019,1064.9929577231956,-10112,4602,-7496,13402.274583069846
1735561454035,-100,293,1019,1064.9929577231956,-10131,4580,-4167,11873.392522779663
1735561454065,-17,270,959,996.4286226318471,-10192,4573,-904,11207.42651102384
1735561454094,-17,270,959,996.4286226318471,-10277,4591,2287,11485.83383999612
1735561454124,-17,270,959,996.4286226318471,-10318,4632,5504,12578.178087465609
1735561454154,-49,246,966,998.0345685395872,-10297,4676,8772,14312.273369384753
1735561454184,-49,246,966,998.0345685395872,-10179,4688,12130,16514.42657194006
1735561454214,-49,246,966,998.0345685395872,-10092,4660,15478,19056.037048662558
1735561454244,-49,246,966,998.0345685395872,-10058,4610,-17210,20459.705862988354
1735561454274,12,259,962,996.327757316838,-10144,4569,-13984,17869.77204667144
1735561454303,12,259,962,996.327757316838,-10252,4568,-10798,15574.560411131995
1735561454334,12,259,962,996.327757316838,-10326,4601,-7595,13619.085945833516
1735561454364,-104,240,1034,1066.5702039715904,-10310,4657,-4312,12106.902700525845
1735561454394,-104,240,1034,1066.5702039715904,-10177,4689,-895,11240.9552530023
1735561454424,-104,240,1034,1066.5702039715904,-10063,4670,2522,11376.877998818482
1735561454454,-84,296,981,1028.121101816318,-10003,4617,5907,12500.773856045873
1735561454484,-84,296,981,1028.121101816318,-10060,4565,9226,14393.119918905699
1735561454514,-84,296,981,1028.121101816318,-10141,4543,12517,16737.80209585476
1735561454544,-84,296,981,1028.121101816318,-10212,4552,15806,19360.663315082984
1735561454574,-56,313,953,1004.6462063831227,-10277,4590,-16926,20326.68947467836
1735561454604,-56,313,953,1004.6462063831227,-10299,4644,-13631,17704.24519712716
1735561454634,-56,313,953,1004.6462063831227,-10267,4694,-10292,15276.458653758731
1735561454664,-68,259,997,1032.3342481967748,-10210,4725,-6923,13209.756015914903
1735561454694,-68,259,997,1032.3342481967748,-10124,4726,-3535,11718.6465515434
1735561454724,-68,259,997,1032.3342481967748,-10068,4699,-161,11111.757106776588
1735561454754,-61,267,927,966.6121248980896,-10047,4659,3181,11522.467227117637
1735561454784,-61,267,927,966.6121248980896,-10065,4619,6481,12831.31898909851
1735561454814,-61,267,927,966.6121248980896,-10111,4592,9755,14781.028719273905
1735561454844,-61,267,927,966.6121248980896,-10163,4586,13016,17138.676174080658
1735561454874,-82,280,899,945.1587168301417,-10170,4582,16299,19750.46898177357
1735561454904,-82,280,899,945.1587168301417,-10175,4581,-16412,19846.156554859685
1735561454934,-82,280,899,945.1587168301417,-10180,4582,-13123,17229.052585676323
1735561454964,-94,293,937,986.2322241744081,-10178,4590,-9799,14855.308310499651
1735561454994,-94,293,937,986.2322241744081,-10165,4600,-6443,12884.078313950129
1735561455024,-94,293,937,986.2322241744081,-10149,4603,-3082,11562.375793927475
1735561455055,-90,331,920,981.8660804814473,-10140,4600,278,11138.082599801457
1735561455085,-90,331,920,981.8660804814473,-10178,4603,3630,11745.47542673348
1735561455114,-90,331,920,981.8660804814473,-10200,4619,6992,13200.879705534779
1735561455144,-89,293,995,1041.0547536032866,-10196,4637,10376,15268.318866201347
1735561455174,-89,293,995,1041.0547536032866,-10140,4639,13784,17729.596075489142
1735561455205,-89,293,995,1041.0547536032866,-10102,4622,17183,20461.397239680384
1735561455234,-89,293,995,1041.0547536032866,-10093,4596,-15437,19007.704595768526
1735561455264,-51,266,1027,1062.1139298587511,-10148,4578,-12142,16473.255658794347
1735561455294,-51,266,1027,1062.1139298587511,-10204,4580,-8867,14273.111258586896
1735561455324,-51,266,1027,1062.1139298587511,-10239,4600,-5582,12536.181436147133
1735561455354,-42,287,884,930.370356363529,-10245,4626,-2280,11469.886703886836
1735561455384,-42,287,884,930.370356363529,-10250,4654,1025,11303.66493664776
1735561455414,-42,287,884,930.370356363529,-10229,4678,4354,12061.237125602
1735561455444,-61,319,964,1017.2403845699403,-10192,4692,7693,13604.18968553438
1735561455475,-61,319,964,1017.2403845699403,-10158,4698,11050,15727.64025529577
1735561455504,-61,319,964,1017.2403845699403,-10130,4692,14407,18226.17384422743
1735561455534,-61,319,964,1017.2403845699403,-10117,4678,17754,20962.869293109663
1735561455564,-78,322,932,989.1369975893127,-10132,4668,-14938,18643.805727372295
1735561455594,-78,322,932,989.1369975893127,-10147,4664,-11630,16123.628778907061
1735561455624,-78,322,932,989.1369975893127,-10160,4666,-8321,13936.864676102728
1735561455654,-42,288,917,962.079518543036,-10156,4666,-4988,12239.11908594732
1735561455684,-42,288,917,962.079518543036,-10153,4658,-1668,11294.36129225553
1735561455714,-42,288,917,962.079518543036,-10158,4651,1644,11292.453276414297
1735561455744,-113,295,977,1026.8023178781784,-10173,4650,4946,12230.099958708432
1735561455774,-113,295,977,1026.8023178781784,-10140,4658,8321,13919.612243162523
1735561455804,-113,295,977,1026.8023178781784,-10112,4654,11697,16147.20003591954
1735561455834,-113,295,977,1026.8023178781784,-10097,4641,15065,18720.109908865386
1735561455865,-74,268,922,963.007788130501,-10089,4612,-17593,20798.36806098017
1735561455895,-74,268,922,963.007788130501,-10113,4586,-14291,18097.97905844738
1735561455924,-74,268,922,963.007788130501,-10150,4573,-11004,15653.205582244169
1735561455954,17,303,985,1030.6905452171375,-10209,4568,-7743,13603.100896486802
1735561455984,17,303,985,1030.6905452171375,-10312,4589,-4543,12166.968151515808
1735561456014,17,303,985,1030.6905452171375,-10363,4638,-1312,11429.09257115367
1735561456044,-95,286,914,962.4016832902985,-10372,4689,1947,11547.98311394678
1735561456074,-95,286,914,962.4016832902985,-10260,4720,5348,12495.883482171239
1735561456104,-95,286,914,962.4016832902985,-10159,4708,8754,14212.778088748168
1735561456134,-95,286,914,962.4016832902985,-10104,4667,12133,16464.549614246967
1735561456164,-61,305,972,1020.5537712438282,-10147,4617,15432,19037.461017688256
1735561456194,-61,305,972,1020.5537712438282,-10229,4595,-17309,20623.965355866945
1735561456224,-61,305,972,1020.5537712438282,-10302,4604,-14053,18022.619926081778
1735561456254,-20,316,954,1005.1726219908697,-10352,4634,-10796,15658.591124363647
1735561456284,-20,316,954,1005.1726219908697,-10384,4677,-7540,13658.454707616085
1735561456314,-20,316,954,1005.1726219908697,-10368,4721,-4248,12158.485473117118
1735561456345,-82,318,963,1017.4561415609029,-10320,4750,-920,11397.863834947319
1735561456375,-82,318,963,1017.4561415609029,-10211,4753,2502,11537.57054149616
1735561456405,-82,318,963,1017.4561415609029,-10138,4721,5908,12647.978059753266
1735561456435,-82,318,963,1017.4561415609029,-10120,4673,9277,14502.208728328247
1735561456464,-2,276,917,957.6371964371476,-10151,4628,12575,16810.46727488561
1735561456494,-2,276,917,957.6371964371476,-10221,4601,15813,19382.698754301477
1735561456524,-2,276,917,957.6371964371476,-10290,4602,-16957,20361.786586643128
1735561456553,-21,311,886,939.2326655307512,-10317,4631,-13692,17758.308309070435
1735561456583,-21,311,886,939.2326655307512,-10304,4668,-10376,15350.049381028062
1735561456613,-21,311,886,939.2326655307512,-10263,4693,-7034,13297.76575218559
1735561456644,17,301,925,972.8900246173768,-10217,4700,-3676,11831.73972837469
1735561456673,17,301,925,972.8900246173768,-10212,4693,-364,11244.62934026729
1735561456703,17,301,925,972.8900246173768,-10214,4686,2941,11616.104037068539
1735561456733,17,301,925,972.8900246173768,-10222,4681,6242,12859.37825091089
1735561456763,-46,267,960,997.4993734333872,-10155,4671,9602,14735.69374003138
1735561456793,-46,267,960,997.4993734333872,-10096,4634,12966,17073.966381599796
1735561456823,-46,267,960,997.4993734333872,-10090,4587,16292,19704.769295782175
1735561456853,-60,318,873,931.0494079263462,-10158,4558,-16436,19852.013096912866
1735561456883,-60,318,873,931.0494079263462,-10249,4572,-13172,17304.530302784875
1735561456913,-60,318,873,931.0494079263462,-10299,4612,-9883,15000.45445978221
1735561456943,-24,255,865,902.1230514735781,-10303,4659,-6572,13078.580733397643
1735561456973,-24,255,865,902.1230514735781,-10259,4687,-3301,11752.09134579884
1735561457003,-24,255,865,902.1230514735781,-10206,4695,-16,11234.131786658016
1735561457033,-24,255,865,902.1230514735781,-10164,4685,3265,11658.316602322995
1735561457063,21,271,949,987.1590550666089,-10142,4659,6565,12948.577914195828
1735561457093,21,271,949,987.1590550666089,-10165,4635,9825,14877.535918289695
1735561457123,21,271,949,987.1590550666089,-10200,4624,13071,17212.565671624903
1735561457153,-53,266,965,1002.3921388358949,-10213,4632,16342,19819.731506758613
1735561457183,-53,266,965,1002.3921388358949,-10171,4639,-16319,19780.781657962863
1735561457213,-53,266,965,1002.3921388358949,-10138,4631,-12983,17110.917392121322
1735561457243,5,237,888,919.0962952814031,-10131,4615,-9666,14743.36942493133
1735561457273,5,237,888,919.0962952814031,-10182,4600,-6451,12901.493130641895
1735561457303,5,237,888,919.0962952814031,-10228,4603,-3240,11674.638880924755
1735561457333,5,237,888,919.0962952814031,-10257,4621,-18,11249.889510568537
1735561457363,-11,284,930,972.4592536451078,-10272,4653,3222,11727.98691165709
1735561457393,-11,284,930,972.4592536451078,-10261,4688,6498,13018.812119390925
1735561457423,-11,284,930,972.4592536451078,-10223,4712,9799,14924.244503491625
1735561457453,-45,257,868,906.3652685314017,-10156,4712,13142,17264.39816500998
1735561457483,-45,257,868,906.3652685314017,-10080,4681,16508,19900.55840925073
1735561457513,-45,257,868,906.3652685314017,-10058,4633,-16163,19592.616517453713
1735561457543,-77,321,987,1040.7396408324225,-10089,4591,-12874,16988.38067621514
1735561457573,-77,321,987,1040.7396408324225,-10170,4584,-9569,14697.200992025659
1735561457634,-77,321,987,1040.7396408324225,-10229,4606,-6254,12843.682999825245
1735561457634,-77,321,987,1040.7396408324225,-10248,4642,-2914,11621.577517703869
1735561457663,-30,307,977,1024.5379446365077,-10236,4666,441,11257.96309285121
1735561457693,-30,307,977,1024.5379446365077,-10216,4682,3793,11860.633583413663
1735561457723,-30,307,977,1024.5379446365077,-10189,4687,7154,13302.759337821608
1735561457753,-23,306,896,947.0908087401123,-10165,4686,10510,15354.019701693756
1735561457783,-23,306,896,947.0908087401123,-10152,4678,13855,17801.904757637592
1735561457844,-23,306,896,947.0908087401123,-10150,4667,17191,20502.045507704835
1735561457845,-17,246,981,1011.5166830062666,-10160,4658,-15486,19098.1349874798
1735561457873,-17,246,981,1011.5166830062666,-10138,4640,-12192,16521.30467003136
1735561457903,-17,246,981,1011.5166830062666,-10140,4620,-8915,14270.291692884206
1735561457933,-17,246,981,1011.5166830062666,-10158,4604,-5653,12503.527062393236
1735561457963,-88,287,880,929.7919122040157,-10161,4601,-2318,11392.464439268617
1735561457993,-88,287,880,929.7919122040157,-10156,4602,1045,11198.873380836128
1735561458023,-88,287,880,929.7919122040157,-10151,4601,4409,11985.461317779971
1735561458053,-115,296,1023,1071.153583759117,-10160,4607,7776,13598.39052976491
1735561458083,-115,296,1023,1071.153583759117,-10154,4621,11169,15786.193904801752
1735561458113,-115,296,1023,1071.153583759117,-10139,4630,14571,18345.30626618155
1735561458143,-22,291,1008,1049.3945873693078,-10126,4631,17968,21138.378864047263
1735561458173,-22,291,1008,1049.3945873693078,-10199,4632,-14767,18534.813567986057
1735561458204,-22,291,1008,1049.3945873693078,-10246,4655,-11491,16083.924334564621
1735561458234,-22,291,1008,1049.3945873693078,-10258,4688,-8190,13938.43635419698
1735561458263,-31,224,847,876.6675538652038,-10153,4698,-4839,12188.951308459642
1735561458293,-31,224,847,876.6675538652038,-10060,4664,-1498,11189.302927349854
1735561458324,-31,224,847,876.6675538652038,-10029,4608,1801,11182.938164901028
1735561458353,-20,305,909,959.0130343222661,-10101,4561,5018,12166.069455662335
1735561458383,-20,305,909,959.0130343222661,-10238,4564,8194,13884.825386010441
1735561458413,-20,305,909,959.0130343222661,-10327,4609,11393,16052.733692427591
1735561458443,-35,261,847,886.9921081948813,-10343,4671,14648,18529.970156478936
1735561458473,-35,261,847,886.9921081948813,-10246,4711,17986,21228.995101040462
1735561458503,-35,261,847,886.9921081948813,-10148,4711,-14660,18441.55701127212
1735561458533,-35,261,847,886.9921081948813,-10085,4680,-11325,15870.263072803802
1735561458563,-38,307,985,1032.4330486767653,-10086,4648,-7977,13673.471724474366
1735561458593,-38,307,985,1032.4330486767653,-10122,4629,-4648,12061.775532648582
1735561458623,-38,307,985,1032.4330486767653,-10162,4626,-1327,11243.978343984838
1735561458653,-41,281,883,927.5402956206269,-10195,4637,1967,11371.40637740117
1735561458683,-41,281,883,927.5402956206269,-10199,4654,5261,12383.757022810161
1735561458713,-41,281,883,927.5402956206269,-10187,4668,8568,14105.87880991468
1735561458743,-78,263,943,982.0906271826445,-10157,4672,11891,16321.400491379409
1735561458773,-78,263,943,982.0906271826445,-10078,4650,15262,18871.06854420279
1735561458803,-78,263,943,982.0906271826445,-10046,4607,-17397,20610.7295843694
1735561458833,-25,247,886,920.1249915093058,-10064,4563,-14095,17910.16722423328
1735561458863,-25,247,886,920.1249915093058,-10150,4536,-10888,15561.052020991383
1735561458893,-25,247,886,920.1249915093058,-10229,4541,-7687,13577.300578539167
1735561458923,-25,247,886,920.1249915093058,-10278,4571,-4470,12104.223436470429
1735561458953,-95,287,1077,1118.6254958653499,-10275,4628,-1140,11326.67687364657
1735561458983,-95,287,1077,1118.6254958653499,-10212,4673,2263,11456.135561348774
1735561459013,-95,287,1077,1118.6254958653499,-10132,4688,5691,12530.851886444114
1735561459043,-75,254,994,1028.6773060586104,-10068,4674,9101,14354.062177655494
1735561459073,-75,254,994,1028.6773060586104,-10034,4635,12432,16634.873158518523
1735561459134,-75,254,994,1028.6773060586104,-10046,4594,15728,19219.70176667682
1735561459134,-53,312,927,979.5315206771041,-10080,4566,-16987,20273.453701823968
1735561459163,-53,312,927,979.5315206771041,-10174,4568,-13708,17671.620299225535
1735561459193,-53,312,927,979.5315206771041,-10233,4599,-10412,15306.039134929715
1735561459223,-53,312,927,979.5315206771041,-10246,4644,-7084,13293.995185797232
1735561459253,-34,234,954,982.8672341674637,-10181,4670,-3733,11806.648550710739
1735561459283,-34,234,954,982.8672341674637,-10105,4663,-384,11135.620772996897
1735561459313,-34,234,954,982.8672341674637,-10062,4633,2945,11462.179461167061
1735561459343,-91,360,896,969.8953551801349,-10082,4598,6264,12728.944339575062
1735561459373,-91,360,896,969.8953551801349,-10152,4596,9611,14715.897560121843
1735561459403,-91,360,896,969.8953551801349,-10199,4617,12969,17132.753748303276
1735561459433,-75,304,890,943.4728400966294,-10221,4649,16337,19823.71335042958
1735561459463,-75,304,890,943.4728400966294,-10196,4672,-16316,19798.93572897291
1735561459493,-75,304,890,943.4728400966294,-10160,4681,-12958,17118.61924922685
1735561459523,-75,304,890,943.4728400966294,-10129,4677,-9598,14717.084425931653
1735561459554,-48,349,907,973.0128467805552,-10161,4674,-6243,12808.87372097953
1735561459583,-48,349,907,973.0128467805552,-10200,4688,-2893,11592.531776967446
1735561459613,-48,349,907,973.0128467805552,-10213,4712,474,11257.57473881475
1735561459643,-97,284,919,966.7605701516793,-10150,4734,3882,11853.403730574606
1735561459673,-97,284,919,966.7605701516793,-10027,4712,7329,13283.746233649603
1735561459703,-97,284,919,966.7605701516793,-9968,4656,10738,15373.483795158467
1735561459733,-60,272,927,967.942663591186,-9984,4594,14081,17862.240984826065
1735561459763,-60,272,927,967.942663591186,-10078,4554,17314,20544.57582915744
1735561459793,-60,272,927,967.942663591186,-10174,4552,-15464,19062.16871187536
1735561459824,-60,272,927,967.942663591186,-10239,4581,-12230,16595.04691165409
1735561459854,-15,256,938,972.422233394527,-10279,4614,-9012,14427.854344981446
1735561459884,-15,256,938,972.422233394527,-10286,4653,-5782,12683.994993691853
1735561459914,-15,256,938,972.422233394527,-10257,4687,-2522,11555.712959398048
1735561459944,-30,304,923,972.2371109971065,-10198,4707,810,11261.045821769841
1735561459974,-30,304,923,972.2371109971065,-10145,4710,4185,11942.334361421974
1735561460035,-30,304,923,972.2371109971065,-10108,4696,7554,13464.285944676012
1735561460035,-95,298,892,945.2475866142161,-10098,4673,10902,15577.552343035153
1735561460065,-95,298,892,945.2475866142161,-10054,4645,14303,18089.63100784535
1735561460095,-95,298,892,945.2475866142161,-10049,4610,17675,20848.02451073003
1735561460124,-95,298,892,945.2475866142161,-10076,4580,-14978,18623.712304478933
1735561460154,-59,320,963,1016.4890555239638,-10170,4573,-11699,16161.925318476138
1735561460184,-59,320,963,1016.4890555239638,-10252,4600,-8423,14043.163212040228
1735561460214,-59,320,963,1016.4890555239638,-10282,4649,-5113,12388.522672215602
1735561460244,-92,347,1019,1080.386042116428,-10254,4691,-1731,11408.170668428835
1735561460274,-92,347,1019,1080.386042116428,-10192,4715,1714,11359.836486499267
1735561460304,-92,347,1019,1080.386042116428,-10130,4714,5169,12310.859312005803
1735561460334,2,281,858,902.8449479284913,-10085,4693,8611,14067.010876515309
1735561460364,2,281,858,902.8449479284913,-10092,4656,11911,16291.062611137433
1735561460394,2,281,858,902.8449479284913,-10129,4628,15183,18829.19313194275
1735561460424,2,281,858,902.8449479284913,-10178,4617,-17557,20812.4150929199
1735561460454,-39,343,850,917.4257463141091,-10233,4635,-14280,18169.092272317845
1735561460484,-39,343,850,917.4257463141091,-10255,4672,-10961,15720.56392118298
1735561460514,-39,343,850,917.4257463141091,-10238,4708,-7610,13597.573607081522
1735561460544,-28,317,931,983.8871886552848,-10206,4732,-4251,12026.024322277084
1735561460575,-28,317,931,983.8871886552848,-10163,4739,-895,11249.253975264315
1735561460605,-28,317,931,983.8871886552848,-10130,4731,2458,11447.315187414035
1735561460635,-73,302,985,1032.8397746020435,-10112,4712,5808,12577.295098708624
1735561460665,-73,302,985,1032.8397746020435,-10064,4683,9208,14422.269204254926
1735561460694,-73,302,985,1032.8397746020435,-10059,4644,12577,16761.000745778874
1735561460724,-73,302,985,1032.8397746020435,-10089,4613,15916,19400.689317650547
1735561460754,20,275,942,981.5238152994557,-10167,4596,-16846,20205.910546174353
1735561460784,20,275,942,981.5238152994557,-10251,4608,-13647,17679.28940879695
1735561460814,20,275,942,981.5238152994557,-10297,4645,-10426,15372.238288551216
1735561460844,-48,278,981,1020.7590313095446,-10273,4693,-7152,13368.241544795635
1735561460904,-48,278,981,1020.7590313095446,-10176,4721,-3795,11842.332624951894
1735561460904,-48,278,981,1020.7590313095446,-10088,4712,-432,11142.590004123816
1735561460934,12,301,915,963.3119951500656,-10051,4675,2890,11455.580561455627
1735561460964,12,301,915,963.3119951500656,-10147,4642,6073,12703.979770135027
1735561460994,12,301,915,963.3119951500656,-10240,4645,9247,14558.180999012206
1735561461024,12,301,915,963.3119951500656,-10299,4676,12438,16811.847637901075
1735561461054,-83,267,929,970.1644190548321,-10220,4718,15801,19400.503215123055
1735561461084,-83,267,929,970.1644190548321,-10099,4718,-16778,20143.252195214158
1735561461114,-83,267,929,970.1644190548321,-10022,4679,-13380,17359.663735222523
1735561461144,-100,314,950,1005.5326946449827,-10005,4625,-10005,14885.922040639605
1735561461174,-100,314,950,1005.5326946449827,-10049,4586,-6649,12892.74982305947
1735561461204,-100,314,950,1005.5326946449827,-10110,4569,-3314,11578.879781740547
1735561461234,-32,384,930,1006.667770418821,-10166,4574,5,11147.603195306156
1735561461264,-32,384,930,1006.667770418821,-10313,4609,3234,11749.876850418475
1735561461294,-32,384,930,1006.667770418821,-10381,4683,6511,13118.260974687155
1735561461324,-32,384,930,1006.667770418821,-10362,4764,9856,15073.402933644413
1735561461354,-64,302,1000,1046.5658125507446,-10227,4814,13281,17439.92792416299
1735561461384,-64,302,1000,1046.5658125507446,-10069,4799,16731,20108.245149689217
1735561461414,-64,302,1000,1046.5658125507446,-9981,4737,-15859,19327.892047504818
1735561461444,-17,385,882,962.5164933651787,-10008,4657,-12507,16681.509583967512
1735561461474,-17,385,882,962.5164933651787,-10153,4618,-9228,14476.370988614515
1735561461504,-17,385,882,962.5164933651787,-10281,4633,-5953,12751.543396781426
1735561461534,-13,348,867,934.3243548147506,-10344,4689,-2639,11659.73318734181
1735561461564,-13,348,867,934.3243548147506,-10292,4749,738,11358.825159319955
1735561461594,-13,348,867,934.3243548147506,-10206,4779,4155,12011.049163166388
1735561461624,-13,348,867,934.3243548147506,-10123,4774,7580,13517.492555943947
1735561461654,-62,267,936,975.309694404808,-10036,4739,10983,15614.278913865988
1735561461684,-62,267,936,975.309694404808,-9983,4674,14359,18102.139265843693
1735561461714,-62,267,936,975.309694404808,-10005,4605,17676,20826.594200684853
1735561461744,-94,250,942,979.1322688993556,-10072,4552,-15069,18687.981405170543
1735561461775,-94,250,942,979.1322688993556,-10141,4522,-11833,16226.775835020338
1735561461835,-94,250,942,979.1322688993556,-10211,4520,-8607,14098.7719323351
1735561461835,-81,301,889,942.0631613644597,-10260,4545,-5364,12437.729736571702
1735561461865,-81,301,889,942.0631613644597,-10320,4601,-2089,11490.671085711227
1735561461895,-81,301,889,942.0631613644597,-10311,4665,1236,11384.491292982748
1735561461925,-81,301,889,942.0631613644597,-10249,4713,4610,12186.32307137801
1735561461954,-83,268,913,955.1345454960783,-10131,4726,8028,13763.030952519144
1735561461984,-83,268,913,955.1345454960783,-10036,4695,11436,15923.1409275934
1735561462014,-83,268,913,955.1345454960783,-10001,4641,14802,18456.92515019769
1735561462044,-39,315,971,1021.5610603385389,-10049,4582,-17902,21034.702969141257
1735561462074,-39,315,971,1021.5610603385389,-10174,4558,-14679,18432.54407291625
1735561462104,-39,315,971,1021.5610603385389,-10276,4579,-11453,16054.115547111276
1735561462134,-107,332,962,1023.2873496726128,-10332,4630,-8187,13971.903699925791
1735561462164,-107,332,962,1023.2873496726128,-10286,4695,-4770,12271.826310700457
1735561462195,-107,332,962,1023.2873496726128,-10198,4730,-1310,11317.605930584436
1735561462224,-107,332,962,1023.2873496726128,-10110,4728,2161,11368.20148484359
1735561462255,-65,300,1066,1109.3155547453573,-10035,4693,5608,12416.728151973048
1735561462284,-65,300,1066,1109.3155547453573,-10023,4640,8997,14245.565555638708
1735561462313,-65,300,1066,1109.3155547453573,-10060,4595,12343,16573.08884909509
1735561462345,-97,310,853,912.75297863113,-10117,4569,15652,19188.917478586434
1735561462374,-97,310,853,912.75297863113,-10167,4563,-17035,20356.32783681772
1735561462405,-97,310,853,912.75297863113,-10204,4575,-13719,17699.242978161525
1735561462434,-106,332,844,913.1243069812565,-10216,4594,-10381,15272.087381887259
1735561462465,-106,332,844,913.1243069812565,-10213,4611,-7004,13214.488488019504
1735561462495,-106,332,844,913.1243069812565,-10196,4624,-3615,11764.693663670125
1735561462525,-51,326,908,966.0957509481138,-10185,4629,-229,11189.919883538041
1735561462554,-51,326,908,966.0957509481138,-10233,4637,3074,11647.554850697206
1735561462584,-51,326,908,966.0957509481138,-10258,4658,6392,12953.037944822056
1735561462614,-51,326,908,966.0957509481138,-10257,4683,9730,14893.26821083942
1735561462644,-56,288,917,962.7922932803316,-10200,4698,13073,17234.109579551827
1735561462675,-56,288,917,962.7922932803316,-10141,4688,16419,19859.52632869173
1735561462704,-56,288,917,962.7922932803316,-10112,4661,-16252,19700.37992019443
1735561462734,-67,401,849,941.3240674709215,-10117,4631,-12937,17063.581658022445
1735561462764,-67,401,849,941.3240674709215,-10226,4634,-9600,14771.764688079757
1735561462794,-67,401,849,941.3240674709215,-10293,4672,-6241,12912.145987402713
1735561462824,-27,355,873,942.8059185219405,-10303,4725,-2838,11684.677060150187
1735561462854,-27,355,873,942.8059185219405,-10263,4762,564,11328.014344976793
1735561462884,-27,355,873,942.8059185219405,-10203,4778,3989,11951.678292189763
1735561462914,-27,355,873,942.8059185219405,-10151,4771,7415,13445.723000270384
1735561462944,10,332,958,1013.9467441636173,-10128,4737,10767,15522.365863488723
1735561462975,10,332,958,1013.9467441636173,-10149,4702,14072,17975.877975776315
1735561463004,10,332,958,1013.9467441636173,-10193,4681,17354,20663.2602945421
1735561463034,-67,351,922,988.8245547112996,-10216,4688,-15325,19005.252563436246
1735561463064,-67,351,922,988.8245547112996,-10186,4702,-11923,16371.356968803777
1735561463094,-67,351,922,988.8245547112996,-10154,4704,-8515,14061.883124247619
1735561463124,-11,319,904,958.6959893522034,-10142,4696,-5129,12297.12246828501
1735561463154,-11,319,904,958.6959893522034,-10182,4689,-1854,11362.093161033314
1735561463185,-11,319,904,958.6959893522034,-10215,4695,1421,11331.747040946511
1735561463214,-11,319,904,958.6959893522034,-10231,4711,4707,12207.486678264286
1735561463244,-60,382,875,956.6342038626885,-10227,4723,8063,13853.166677695031
1735561463275,-60,382,875,956.6342038626885,-10213,4736,11451,16058.034313078299
1735561463305,-60,382,875,956.6342038626885,-10192,4741,14847,18622.227417792965
1735561463334,24,312,841,897.3299281758076,-10177,4739,-17769,21018.249475158485
1735561463364,24,312,841,897.3299281758076,-10182,4728,-14451,18299.13956993607
1735561463394,24,312,841,897.3299281758076,-10195,4720,-11141,15822.082859092858
1735561463424,-32,337,972,1029.2604140838216,-10204,4718,-7843,13707.435536963141
1735561463454,-32,337,972,1029.2604140838216,-10174,4716,-4493,12080.479336516411
1735561463484,-32,337,972,1029.2604140838216,-10156,4705,-1149,11251.735954953796
1735561463514,-32,337,972,1029.2604140838216,-10153,4691,2182,11395.175031564895
1735561463544,11,334,871,932.9083556277112,-10184,4669,5460,12462.945759329934
1735561463574,11,334,871,932.9083556277112,-10234,4663,8710,14224.71177212389
1735561463604,11,334,871,932.9083556277112,-10273,4674,11963,16446.707086830484
1735561463634,-46,340,977,1035.4926363813506,-10282,4702,15276,19004.854748195263
1735561463664,-46,340,977,1035.4926363813506,-10235,4730,-17325,20670.842992002043
1735561463694,-46,340,977,1035.4926363813506,-10180,4736,-13913,17878.301513286995
1735561463724,-67,358,920,989.4710708252162,-10137,4723,-10511,15347.528107157843
1735561463754,-67,358,920,989.4710708252162,-10115,4701,-7109,13226.885763474333
1735561463784,-67,358,920,989.4710708252162,-10121,4676,-3728,11755.747572995942
1735561463814,-67,358,920,989.4710708252162,-10145,4659,-365,11169.625374201232
1735561463844,-44,312,813,871.9225883070125,-10157,4655,2979,11563.222517966175
1735561463874,-44,312,813,871.9225883070125,-10165,4652,6311,12837.3303299401
1735561463904,-44,312,813,871.9225883070125,-10173,4652,9643,14768.834822016259
1735561463934,-44,313,972,1022.1002886214249,-10175,4643,12984,17136.87048442626
1735561463964,-44,313,972,1022.1002886214249,-10186,4632,16322,19789.333086286664
1735561463994,-44,313,972,1022.1002886214249,-10202,4627,-16346,19816.196633057516
1735561464024,-50,356,992,1055.1303237041384,-10229,4631,-13020,17192.992816842565
1735561464054,-50,356,992,1055.1303237041384,-10285,4662,-9682,14874.6964002631
1735561464084,-50,356,992,1055.1303237041384,-10295,4705,-6310,12959.172427280995
1735561464114,-50,356,992,1055.1303237041384,-10263,4741,-2904,11672.166294223194
1735561464145,-85,300,923,974.2453489752979,-10164,4761,523,11235.993325024718
1735561464174,-85,300,923,974.2453489752979,-10063,4735,3959,11804.993646758137
1735561464204,-85,300,923,974.2453489752979,-10020,4683,7357,13283.686912901854
1735561464234,-6,361,916,984.5877309818562,-10089,4628,10665,15393.13255968388
1735561464264,-6,361,916,984.5877309818562,-10255,4621,13879,17864.638451421288
1735561464294,-6,361,916,984.5877309818562,-10372,4668,17115,20549.740460648158
1735561464324,-50,355,961,1025.6929365068281,-10403,4742,-15592,19334.41069699307
1735561464354,-50,355,961,1025.6929365068281,-10301,4806,-12179,16659.420097950588
1735561464384,-50,355,961,1025.6929365068281,-10177,4823,-8731,14250.01821051468
1735561464414,-50,355,961,1025.6929365068281,-10082,4796,-5292,12355.30671412086
1735561464444,-114,300,932,985.7078674739286,-9973,4730,-1859,11193.279680236708
1735561464474,-114,300,932,985.7078674739286,-9935,4634,1523,11067.868358450962
1735561464505,-114,300,932,985.7078674739286,-9992,4547,4828,11992.700154677428
1735561464534,-36,322,865,923.6909656373175,-10122,4505,8093,13720.297299985887
1735561464565,-36,322,865,923.6909656373175,-10285,4527,11313,15945.4985183907
1735561464595,-36,322,865,923.6909656373175,-10376,4596,14574,18471.222699106846
1735561464624,-63,323,891,949.8310376061629,-10377,4677,17895,21208.1937703332
1735561464654,-63,323,891,949.8310376061629,-10287,4733,-14704,18558.85971712702
1735561464684,-63,323,891,949.8310376061629,-10179,4748,-11274,15914.101325554013
1735561464714,-63,323,891,949.8310376061629,-10096,4724,-7853,13635.065126357116
1735561464744,-72,295,944,991.6375345861006,-10019,4678,-4417,11906.885990887793
1735561464774,-72,295,944,991.6375345861006,-10002,4614,-1029,11062.903823137938
1735561464804,-72,295,944,991.6375345861006,-10046,4559,2308,11270.912163618346
1735561464834,6,322,923,977.5730151758487,-10171,4531,5562,12446.487295618792
1735561464864,6,322,923,977.5730151758487,-10339,4560,8746,14289.193014302802
1735561464894,6,322,923,977.5730151758487,-10428,4637,11976,16542.96010392336
1735561464924,-45,358,873,944.6258518588193,-10416,4726,15276,19083.613599106433
1735561464954,-45,358,873,944.6258518588193,-10302,4796,-17290,20690.019816326905
1735561464984,-45,358,873,944.6258518588193,-10163,4813,-13820,17816.95647410073
1735561465014,-45,358,873,944.6258518588193,-10058,4782,-10361,15211.219839315978
1735561465044,-110,314,974,1029.2579851524106,-9956,4719,-6919,13010.129053933324
1735561465074,-110,314,974,1029.2579851524106,-9922,4629,-3522,11501.226412865717
1735561465104,-110,314,974,1029.2579851524106,-9977,4548,-197,10966.478103748714
1735561465134,-102,369,993,1064.243393214165,-10106,4508,3091,11489.455209016658
1735561465164,-102,369,993,1064.243393214165,-10254,4534,6382,12900.83702710797
1735561465195,-102,369,993,1064.243393214165,-10330,4602,9715,14908.672945638053
1735561465225,-25,358,935,1001.5058661835187,-10328,4679,13102,17326.945172187738
1735561465255,-25,358,935,1001.5058661835187,-10330,4738,16436,19982.483329156064
1735561465285,-25,358,935,1001.5058661835187,-10279,4785,-16183,19759.64460712793
1735561465314,-25,358,935,1001.5058661835187,-10203,4805,-12774,17040.079518593804
1735561465345,-108,415,990,1078.8832188888657,-10111,4807,-9272,14536.490429261115
1735561465375,-108,415,990,1078.8832188888657,-10041,4780,-5750,12519.288358369256
1735561465404,-108,415,990,1078.8832188888657,-10021,4737,-2262,11312.659015456977
1735561465434,-40,333,875,937.0773714053712,-10043,4692,1154,11144.883534609055
1735561465465,-40,333,875,937.0773714053712,-10096,4653,4477,11984.287796944798
1735561465495,-40,333,875,937.0773714053712,-10164,4639,7781,13615.10844613439
1735561465524,-106,344,896,965.6024026482121,-10212,4650,11087,15774.314977202655
1735561465554,-106,344,896,965.6024026482121,-10173,4671,14495,18314.289366502868
1735561465584,-106,344,896,965.6024026482121,-10128,4675,17912,21101.46329049244
1735561465614,-106,344,896,965.6024026482121,-10096,4664,-14674,18412.180424925235
1735561465644,-9,373,877,953.0682032257713,-10200,4667,-11390,15986.024802933342
1735561465674,-9,373,877,953.0682032257713,-10297,4709,-8125,13936.230300909927
1735561465705,-9,373,877,953.0682032257713,-10325,4774,-4811,12350.806532368646
1735561465734,-98,295,899,951.2255253093243,-10214,4829,-1379,11381.85740553799
1735561465764,-98,295,899,951.2255253093243,-9997,4811,2157,11302.140460992334
1735561465794,-98,295,899,951.2255253093243,-9877,4728,5638,12316.49938091177
1735561465824,-125,332,904,971.1153381550515,-9870,4628,9031,14156.067427078751
1735561465855,-125,332,904,971.1153381550515,-9946,4555,12383,16523.003056345417
1735561465885,-125,332,904,971.1153381550515,-10055,4523,15696,19181.370388999843
1735561465914,-125,332,904,971.1153381550515,-10153,4534,-16995,20309.37197453432
1735561465944,-101,386,941,1022.094907530607,-10253,4570,-13655,17676.762542954522
1735561465974,-101,386,941,1022.094907530607,-10304,4639,-10279,15275.816770307243
1735561466004,-101,386,941,1022.094907530607,-10278,4709,-6843,13215.090389399536
1735561466034,-88,390,848,937.5222664022439,-10181,4749,-3349,11722.694357527198
1735561466064,-88,390,848,937.5222664022439,-10083,4745,153,11144.744187283977
1735561466094,-88,390,848,937.5222664022439,-10025,4711,3634,11657.619911457055
1735561466124,-63,362,857,932.4494624375093,-10023,4667,7074,13125.65785018031
1735561466154,-63,362,857,932.4494624375093,-10064,4633,10443,15225.144794056969
1735561466184,-63,362,857,932.4494624375093,-10120,4620,13794,17720.98292984901
1735561466214,-70,357,833,908.9763473270358,-10179,4632,17125,20453.192660315894
1735561466244,-70,357,833,908.9763473270358,-10213,4672,-15552,19183.265024494656
1735561466274,-70,357,833,908.9763473270358,-10201,4714,-12194,16582.39527330114
1735561466304,-70,357,833,908.9763473270358,-10156,4742,-8805,14253.382931781493
1735561466334,-79,370,905,980.900606585601,-10112,4738,-5383,12396.68814643653
1735561466364,-79,370,905,980.900606585601,-10087,4721,-1968,11309.661091297121
1735561466394,-79,370,905,980.900606585601,-10086,4700,1429,11218.709239480271
1735561466424,-152,379,965,1047.84063673824,-10106,4687,4817,12136.832123746295
1735561466454,-152,379,965,1047.84063673824,-10076,4688,8300,13870.58470288834
1735561466484,-152,379,965,1047.84063673824,-10056,4679,11779,16179.030193432485
1735561466514,-37,389,899,980.2504781942215,-10053,4663,15238,18841.52387679935
1735561466544,-37,389,899,980.2504781942215,-10176,4656,-17474,20750.180432950456
1735561466574,-37,389,899,980.2504781942215,-10264,4688,-14173,18116.31775499646
1735561466604,-37,389,899,980.2504781942215,-10293,4741,-10833,15677.270776509538
1735561466634,-83,349,916,983.740819525143,-10191,4785,-7402,13473.763765184545
1735561466664,-83,349,916,983.740819525143,-10065,4778,-3938,11816.994245577003
1735561466694,-83,349,916,983.740819525143,-9991,4733,-503,11066.814311264105
1735561466724,-81,317,961,1015.1704290413506,-9980,4675,2902,11396.386664201947
1735561466754,-81,317,961,1015.1704290413506,-10012,4622,6270,12685.264206945001
1735561466784,-81,317,961,1015.1704290413506,-10077,4592,9605,14659.072890193294
1735561466814,-49,414,924,1013.6927542406526,-10146,4587,12928,17062.094508002236
1735561466845,-49,414,924,1013.6927542406526,-10299,4625,16223,19764.76043366071
1735561466874,-49,414,924,1013.6927542406526,-10367,4704,-16427,19986.211096653613
1735561466904,-49,414,924,1013.6927542406526,-10341,4788,-13006,17292.115573289462
1735561466934,-41,290,833,882.9892411575579,-10175,4827,-9559,14771.764789624833
1735561466964,-41,290,833,882.9892411575579,-10010,4790,-6120,12672.750293444593
1735561466994,-41,290,833,882.9892411575579,-9938,4709,-2742,11333.891167644058
1735561467024,-51,297,871,921.6566605846235,-9976,4629,551,11011.440323590734
1735561467054,-51,297,871,921.6566605846235,-10072,4582,3795,11697.945674348124
1735561467084,-51,297,871,921.6566605846235,-10174,4575,7022,13181.40299816374
1735561467114,-32,347,856,924.2126378707445,-10245,4600,10270,15218.177453295779
1735561467145,-32,347,856,924.2126378707445,-10324,4648,13546,17654.546043441616
1735561467174,-32,347,856,924.2126378707445,-10334,4712,16871,20337.776205868722
1735561467204,-32,347,856,924.2126378707445,-10284,4765,-15752,19405.96261461925
1735561467234,-80,339,950,1011.8404024350876,-10138,4782,-12276,16623.680218291014
1735561467264,-80,339,950,1011.8404024350876,-10015,4744,-8794,14147.091467860098
1735561467294,-80,339,950,1011.8404024350876,-9971,4675,-5366,12250.323342671409
1735561467324,-89,315,1014,1065.5242840968008,-9999,4611,-2023,11195.260202424954
1735561467355,-89,315,1014,1065.5242840968008,-10058,4566,1268,11118.43262335119
1735561467384,-89,315,1014,1065.5242840968008,-10133,4550,4539,11999.279561707028
1735561467414,-89,323,968,1024.3407636133593,-10198,4562,7808,13629.963756371475
1735561467445,-89,323,968,1024.3407636133593,-10239,4596,11097,15783.020813519825
1735561467475,-89,323,968,1024.3407636133593,-10237,4636,14417,18279.457158241872
1735561467504,-89,323,968,1024.3407636133593,-10201,4667,17767,21012.081738847297
1735561467534,-52,309,926,977.5791528055414,-10190,4682,-14889,18639.73028238338
1735561467564,-52,309,926,977.5791528055414,-10177,4690,-11553,16094.695958606984
1735561467594,-52,309,926,977.5791528055414,-10161,4692,-8212,13881.560755188877
1735561467624,-32,306,1000,1046.2600059258693,-10159,4686,-4868,12200.872960571305
1735561467654,-32,306,1000,1046.2600059258693,-10175,4682,-1540,11305.898858560517
1735561467712,-32,306,1000,1046.2600059258693,-10189,4683,1788,11355.313910236035
1735561467715,-67,338,936,997.4111489250558,-10196,4689,5119,12334.881353300485
1735561467745,-67,338,936,997.4111489250558,-10187,4700,8501,14075.935848106157
1735561467774,-67,338,936,997.4111489250558,-10171,4706,11889,16338.420915131303
1735561467804,-67,338,936,997.4111489250558,-10156,4706,15280,18941.20302409538
1735561467834,-57,304,932,981.9821790643657,-10126,4695,-17337,20619.17723867759
1735561467864,-57,304,932,981.9821790643657,-10113,4674,-13974,17871.533817778483
1735561467894,-57,304,932,981.9821790643657,-10122,4654,-10629,15397.734930826677
1735561467924,-61,319,920,975.6444024335916,-10145,4642,-7305,13335.374535422692
1735561467954,-61,319,920,975.6444024335916,-10172,4643,-3986,11870.772047343846
1735561467985,-61,319,920,975.6444024335916,-10190,4653,-661,11221.56094311304
1735561468014,-123,323,993,1051.43092973338,-10193,4662,2676,11523.561472045003
1735561468045,-123,323,993,1051.43092973338,-10139,4662,6104,12719.76340188763
1735561468075,-123,323,993,1051.43092973338,-10104,4645,9523,14640.845945504652
1735561468105,-123,323,993,1051.43092973338,-10097,4620,12923,17038.126011976787
1735561468135,-35,273,974,1012.1412944841248,-10139,4597,16206,19661.28597014956
1735561468164,-35,273,974,1012.1412944841248,-10199,4590,-16556,19979.710633540217
1735561468194,-35,273,974,1012.1412944841248,-10244,4604,-13314,17418.35089783186
1735561468224,-22,309,907,958.4435298962584,-10283,4634,-10067,15118.152466488755
1735561468255,-22,309,907,958.4435298962584,-10310,4679,-6802,13208.192344147628
1735561468285,-22,309,907,958.4435298962584,-10289,4723,-3499,11849.609740409176
1735561468315,-40,252,874,910.4833880966747,-10230,4748,-163,11279.316158349317
1735561468345,-40,252,874,910.4833880966747,-10106,4729,3199,11607.251095759064
1735561468375,-40,252,874,910.4833880966747,-10042,4674,6524,12854.984091783233
1735561468403,-40,252,874,910.4833880966747,-10048,4610,9797,14771.445866942071
1735561468435,-61,233,997,1025.6797745885408,-10080,4561,13047,17106.52887058038
1735561468465,-61,233,997,1025.6797745885408,-10132,4529,16275,19698.855042869876
1735561468495,-61,233,997,1025.6797745885408,-10193,4520,-16511,19923.372455485543
1735561468525,-110,370,940,1016.1692772368194,-10281,4539,-13278,17395.596166846368
1735561468555,-110,370,940,1016.1692772368194,-10365,4608,-9969,15101.25325924971
1735561468585,-110,370,940,1016.1692772368194,-10361,4690,-6596,13147.38137425092
1735561468615,-98,322,1037,1090.2554746480293,-10283,4753,-3146,11757.058050379781
1735561468645,-98,322,1037,1090.2554746480293,-10143,4769,353,11213.760252475528
1735561468675,-98,322,1037,1090.2554746480293,-10040,4734,3838,11744.896764126963
1735561468705,-98,322,1037,1090.2554746480293,-10005,4675,7278,13225.919022888353
1735561468735,-94,312,852,912.1863844631754,-10002,4606,10658,15324.757877369548
1735561468765,-94,312,852,912.1863844631754,-10059,4550,13985,17817.581373463683
1735561468795,-94,312,852,912.1863844631754,-10142,4525,17281,20541.877956993125
1735561468825,-11,313,814,872.1731479471264,-10244,4530,-15457,19088.721408203328
1735561468855,-11,313,814,872.1731479471264,-10352,4572,-12239,16669.139419898078
1735561468885,-11,313,814,872.1731479471264,-10389,4639,-8975,14491.454964909493
1735561468914,-86,302,1004,1051.9581740734752,-10362,4708,-5650,12706.644246220165
1735561468945,-86,302,1004,1051.9581740734752,-10217,4757,-2172,11477.531180528329
1735561468974,-86,302,1004,1051.9581740734752,-10079,4748,1318,11219.040466991819
1735561469005,-86,302,1004,1051.9581740734752,-10000,4695,4777,12035.894399669682
1735561469035,-94,293,896,947.3652938544878,-10007,4627,8170,13722.174681878962
1735561469064,-94,293,896,947.3652938544878,-10067,4574,11517,15965.815168665833
1735561469094,-94,293,896,947.3652938544878,-10150,4552,14836,18543.195517493743
1735561469124,29,325,934,989.3543349073677,-10264,4563,-17897,21129.91419764879
1735561469154,29,325,934,989.3543349073677,-10410,4620,-14703,18598.137245434016
1735561469185,29,325,934,989.3543349073677,-10460,4711,-11445,16204.726039029478
1735561469214,-64,285,824,874.2408135062101,-10399,4800,-8120,14039.715132437696
1735561469245,-64,285,824,874.2408135062101,-10144,4829,-4645,12157.137903306024
1735561469274,-64,285,824,874.2408135062101,-9954,4769,-1192,11101.636861292121
1735561469304,-64,285,824,874.2408135062101,-9886,4663,2176,11145.023149370305
1735561469335,-131,328,914,979.8678482326073,-9914,4560,5549,12242.23823489806
1735561469364,-131,328,914,979.8678482326073,-10009,4490,8881,14114.26023566237
1735561469394,-131,328,914,979.8678482326073,-10129,4466,12180,16458.86378216917
1735561469425,-51,277,985,1024.477915818589,-10270,4489,15411,19055.785000886215
1735561469454,-51,277,985,1024.477915818589,-10379,4552,-17405,20769.650213713277
1735561469485,-51,277,985,1024.477915818589,-10399,4638,-14160,18170.191110717577
1735561469514,-83,388,1002,1077.6998654541997,-10336,4712,-10838,15700.257450118454
1735561469545,-83,388,1002,1077.6998654541997,-10278,4769,-7403,13534.58732285547
1735561469574,-83,388,1002,1077.6998654541997,-10186,4796,-3931,11925.140376532261
1735561469605,-83,388,1002,1077.6998654541997,-10104,4787,-453,11189.789720991186
1735561469635,-19,277,1048,1084.1558928493632,-10048,4751,2930,11494.311854130285
1735561469665,-19,277,1048,1084.1558928493632,-10039,4696,6244,12720.90692521567
1735561469694,-19,277,1048,1084.1558928493632,-10080,4651,9516,14621.643443881403
1735561469724,-87,256,961,998.3115746098509,-10089,4618,12811,16948.02543071021
1735561469754,-87,256,961,998.3115746098509,-10068,4579,16143,19568.5542133291
1735561469785,-87,256,961,998.3115746098509,-10087,4541,-16556,19911.539016359333
1735561469814,-57,331,987,1042.5828504248475,-10133,4517,-13274,17299.712540964374
1735561469845,-57,331,987,1042.5828504248475,-10268,4530,-10023,15047.0346912606
1735561469875,-57,331,987,1042.5828504248475,-10348,4584,-6742,13173.789280233686
1735561469905,16,309,865,918.6740444793246,-10366,4657,-3412,11865.215927238745
1735561469935,16,309,865,918.6740444793246,-10376,4732,-117,11404.687150465812
1735561469964,16,309,865,918.6740444793246,-10317,4794,3236,11827.705652407825
1735561469994,16,309,865,918.6740444793246,-10222,4824,6631,13104.595415349533
1735561470025,-30,294,899,946.3281671809203,-10081,4810,10045,15022.139860885332
1735561470055,-30,294,899,946.3281671809203,-9988,4750,13439,17404.866129907463
1735561470086,-30,294,899,946.3281671809203,-9982,4674,16770,20067.872333658095
1735561470115,-23,312,913,965.1124286838295,-10039,4611,-15948,19400.55530133094
1735561470145,-23,312,913,965.1124286838295,-10144,4581,-12696,16884.155679215943
1735561470174,-23,312,913,965.1124286838295,-10238,4591,-9448,14668.286505246617
1735561470204,-107,285,985,1030.9699316662925,-10298,4631,-6175,12869.560598559689
1735561470235,-107,285,985,1030.9699316662925,-10218,4679,-2751,11570.158425881644
1735561470265,-107,285,985,1030.9699316662925,-10123,4690,696,11178.356095598314
1735561470295,-107,285,985,1030.9699316662925,-10052,4667,4136,11829.20491833665
1735561470324,-33,298,1003,1046.8533803737753,-10060,4624,7455,13347.733927524927
1735561470355,-33,298,1003,1046.8533803737753,-10124,4597,10715,15441.470461066847
1735561470386,-33,298,1003,1046.8533803737753,-10188,4596,13966,17887.641432005505
1735561470415,-62,322,960,1014.4594619796299,-10241,4620,17229,20568.444812381902
1735561470445,-62,322,960,1014.4594619796299,-10253,4661,-15459,19126.672763447383
1735561470505,-62,322,960,1014.4594619796299,-10226,4698,-12115,16535.280614492152
1735561470506,-55,354,956,1020.9196834227461,-10173,4716,-8738,14215.598088015853
1735561470536,-55,354,956,1020.9196834227461,-10145,4717,-5345,12399.199127363025
1735561470565,-55,354,956,1020.9196834227461,-10126,4710,-1957,11337.981522299284
1735561470595,-55,354,956,1020.9196834227461,-10121,4698,1422,11248.463406172417
1735561470625,-98,312,875,934.1161598002681,-10060,4686,4842,12108.144366499766
1735561470655,-98,312,875,934.1161598002681,-10012,4650,8256,13784.925824972726
1735561470686,-98,312,875,934.1161598002681,-10013,4606,11634,16025.771775487132
1735561470715,-63,306,824,881.2383332561061,-10084,4577,14955,18608.815384112982
1735561470745,-63,306,824,881.2383332561061,-10181,4583,-17764,20981.333275080495
1735561470775,-63,306,824,881.2383332561061,-10239,4619,-14465,18314.161378561672
1735561470805,-21,340,793,863.0701014402017,-10248,4662,-11142,15839.820453527875
1735561470835,-21,340,793,863.0701014402017,-10283,4701,-7860,13770.224762145315
1735561470865,-21,340,793,863.0701014402017,-10272,4743,-4543,12192.164779070205
1735561470895,-21,340,793,863.0701014402017,-10229,4772,-1196,11350.543643367924
1735561470924,-8,221,966,990.9899091312686,-10112,4761,2176,11386.59918500691
1735561470954,-8,221,966,990.9899091312686,-10026,4703,5507,12367.93976376017
1735561470985,-8,221,966,990.9899091312686,-10019,4631,8781,14104.342700033916
1735561471015,-134,385,1021,1099.3734579295608,-10099,4578,12025,16356.910160540712
1735561471045,-134,385,1021,1099.3734579295608,-10210,4585,15343,18991.418430438524
1735561471075,-134,385,1021,1099.3734579295608,-10277,4627,-17314,20659.149401657367
1735561471105,-71,356,856,929.7919122040157,-10265,4677,-13912,17910.56386605402
1735561471135,-71,356,856,929.7919122040157,-10212,4698,-10516,15392.933573559005
1735561471165,-71,356,856,929.7919122040157,-10160,4697,-7113,13262.05783428801
1735561471195,-71,356,856,929.7919122040157,-10128,4679,-3720,11760.434728359322
1735561471225,-107,289,920,970.2422377942531,-10078,4662,-329,11108.94094862332
1735561471255,-107,289,920,970.2422377942531,-10039,4622,3049,11464.763669609592
1735561471286,-107,289,920,970.2422377942531,-10048,4579,6392,12758.809074517887
1735561471315,-44,314,906,959.879159061181,-10137,4552,9667,14728.556005257271
1735561471345,-44,314,906,959.879159061181,-10272,4570,12882,17098.093694912306
1735561471374,-44,314,906,959.879159061181,-10346,4628,16131,19714.64585023023
1735561471405,-6,332,889,948.9894625336996,-10343,4697,-16558,20080.010507965377
1735561471436,-6,332,889,948.9894625336996,-10320,4755,-13228,17438.24558262671
1735561471465,-6,332,889,948.9894625336996,-10254,4793,-9856,15008.600900816838
1735561471495,-6,332,889,948.9894625336996,-10177,4801,-6464,12977.065384747046
1735561471525,-33,305,885,936.6637603750878,-10052,4766,-3024,11528.314534223986
1735561471555,-33,305,885,936.6637603750878,-9991,4695,375,11045.529910330242
1735561471585,-33,305,885,936.6637603750878,-10014,4620,3709,11635.346019779558
1735561471615,-75,309,1033,1080.8306990458775,-10093,4572,6998,13105.107286855762
1735561471645,-75,309,1033,1080.8306990458775,-10171,4558,10294,15172.048016006276
1735561471675,-75,309,1033,1080.8306990458775,-10233,4573,13594,17618.83804341251
1735561471735,-31,307,884,936.3044376697144,-10268,4604,16909,20311.152626082057
1735561471736,-31,307,884,936.3044376697144,-10313,4644,-15808,19437.529909944835
1735561471765,-31,307,884,936.3044376697144,-10309,4689,-12490,16860.08013029594
1735561471795,-31,307,884,936.3044376697144,-10266,4724,-9137,14532.436168791523
1735561471825,2,279,928,969.0350870840539,-10200,4732,-5788,12646.452783290657
1735561471855,2,279,928,969.0350870840539,-10152,4717,-2459,11461.233528726303
1735561471885,2,279,928,969.0350870840539,-10135,4689,850,11199.439539548397
1735561471915,-41,337,916,976.8858684616131,-10139,4665,4144,11905.22078753687
1735561471945,-41,337,916,976.8858684616131,-10160,4654,7454,13433.072321699157
1735561471975,-41,337,916,976.8858684616131,-10183,4652,10759,15527.094834514279
1735561472005,-8,270,923,961.7135748236062,-10219,4658,14057,17992.336535314138
1735561472035,-8,270,923,961.7135748236062,-10243,4671,17307,20646.29601163366
1735561472065,-8,270,923,961.7135748236062,-10249,4688,-15428,19106.08617692279
1735561472094,-8,270,923,961.7135748236062,-10238,4704,-12151,16570.78938976656
1735561472125,7,278,938,978.3542303276457,-10250,4720,-8913,14379.932857979553
1735561472154,7,278,938,978.3542303276457,-10251,4738,-5667,12635.13094510698
1735561472185,7,278,938,978.3542303276457,-10236,4752,-2407,11539.100874851558
1735561472214,-80,304,1055,1100.836500121612,-10154,4752,938,11250.113954978411
1735561472245,-80,304,1055,1100.836500121612,-10049,4717,4362,11927.260121251653
1735561472305,-80,304,1055,1100.836500121612,-10012,4656,7739,13483.716142073
1735561472306,-140,361,1018,1089.1487501714355,-10045,4598,11070,15639.326360172934
1735561472335,-140,361,1018,1089.1487501714355,-10116,4575,14453,18225.07311370794
1735561472364,-140,361,1018,1089.1487501714355,-10181,4582,17832,21038.71928136311
1735561472424,-140,361,1018,1089.1487501714355,-10217,4608,-14772,18542.727334456493
1735561472427,-23,321,875,932.306280146176,-10265,4633,-11477,16079.690388810352
1735561472459,-23,321,875,932.306280146176,-10298,4669,-8204,13969.752360009823
1735561472484,-23,321,875,932.306280146176,-10289,4708,-4900,12330.400845065824
1735561472515,-73,243,877,912.9660453708013,-10211,4739,-1550,11363.324425536744
1735561472545,-73,243,877,912.9660453708013,-10068,4724,1845,11273.190542166845
1735561472575,-73,243,877,912.9660453708013,-9989,4666,5203,12191.098637940717
1735561472605,-36,328,937,993.402738067497,-9993,4592,8517,13909.917397310453
1735561472635,-36,328,937,993.402738067497,-10163,4554,11767,16201.474439074982
1735561472665,-36,328,937,993.402738067497,-10307,4578,15018,18781.17826442207
1735561472695,-36,328,937,993.402738067497,-10382,4643,-17690,21030.44157881617
1735561472724,-116,354,1036,1100.9395987064868,-10300,4710,-14244,18197.95691829168
1735561472755,-116,354,1036,1100.9395987064868,-10170,4734,-10727,15521.217252522432
1735561472785,-116,354,1036,1100.9395987064868,-10067,4709,-7215,13250.486594838696
1735561472814,-5,289,958,1000.6547856278908,-10055,4666,-3823,11725.609152619747
1735561472845,-5,289,958,1000.6547856278908,-10120,4631,-574,11144.058372065358
1735561472875,-5,289,958,1000.6547856278908,-10192,4624,2659,11503.413449928677
1735561472906,21,243,966,996.3162148635341,-10248,4639,5898,12701.504989567182
1735561472935,21,243,966,996.3162148635341,-10265,4657,9117,14497.501957233873
1735561472965,21,243,966,996.3162148635341,-10261,4677,12352,16725.260954615926
1735561472995,21,243,966,996.3162148635341,-10242,4691,15601,19243.057085608823
1735561473025,16,254,964,997.0295883272472,-10197,4700,-17155,20502.751864079124
1735561473055,16,254,964,997.0295883272472,-10162,4693,-13910,17854.37181756894
1735561473085,16,254,964,997.0295883272472,-10144,4677,-10676,15451.603185430307
1735561473114,-71,247,947,981.2537898015987,-10106,4654,-7411,13368.390815651674
1735561473145,-71,247,947,981.2537898015987,-10046,4612,-4098,11789.243572002404
1735561473174,-71,247,947,981.2537898015987,-10042,4561,-825,11060.0682638038
1735561473205,-64,243,980,1011.70400809723,-10088,4521,2411,11314.597032152758
1735561473235,-64,243,980,1011.70400809723,-10161,4512,5628,12461.077361127327
1735561473264,-64,243,980,1011.70400809723,-10216,4528,8849,14253.920197615813
1735561473294,-64,243,980,1011.70400809723,-10240,4559,12090,16486.66676438873
1735561473325,-52,196,998,1018.3928515067257,-10212,4576,15357,19001.635955885482
1735561473355,-52,196,998,1018.3928515067257,-10172,4577,-17375,20647.25497493553
1735561473385,-52,196,998,1018.3928515067257,-10146,4565,-14113,17971.013048796107
1735561473415,15,298,964,1009.120904550094,-10204,4559,-10893,15606.522546679
1735561473445,15,298,964,1009.120904550094,-10333,4602,-7714,13691.423921564916
1735561473475,15,298,964,1009.120904550094,-10384,4677,-4484,12239.609511745053
1735561473505,-75,282,844,893.0201565474321,-10344,4750,-1178,11443.27400703138
1735561473534,-75,282,844,893.0201565474321,-10147,4774,2306,11448.594717256787
1735561473565,-75,282,844,893.0201565474321,-9999,4730,5776,12478.584735457784
1735561473594,-20,224,859,887.9510121622701,-9949,4649,9183,14315.142018156857
1735561473624,-20,224,859,887.9510121622701,-9994,4567,12453,16607.670938454918
1735561473654,-20,224,859,887.9510121622701,-10091,4516,15673,19179.81923793861
1735561473685,-20,224,859,887.9510121622701,-10197,4506,-17127,20435.678946391774
1735561473714,-42,293,992,1035.2183344589682,-10316,4548,-13915,17908.974984627122
1735561473745,-42,293,992,1035.2183344589682,-10370,4626,-10644,15563.788484813073
1735561473774,-42,293,992,1035.2183344589682,-10338,4705,-7306,13505.14364973583
1735561473804,-21,240,995,1023.7509462755089,-10241,4754,-3910,11948.501872619847
1735561473835,-21,240,995,1023.7509462755089,-10107,4744,-522,11177.185200219239
1735561473865,-21,240,995,1023.7509462755089,-10029,4692,2833,11428.980444466602
1735561473895,-121,315,925,984.6273406726019,-10022,4626,6134,12627.997307570191
1735561473925,-121,315,925,984.6273406726019,-10046,4576,9505,14567.323604560997
1735561473955,-121,315,925,984.6273406726019,-10102,4546,12844,16961.275187909665
1735561473985,-121,315,925,984.6273406726019,-10164,4541,16170,19631.517440075793
1735561474015,-47,265,1025,1059.744780595781,-10233,4555,-16577,20006.480025231824
1735561474045,-47,265,1025,1059.744780595781,-10276,4585,-13336,17448.9912888969
1735561474075,-47,265,1025,1059.744780595781,-10280,4623,-10066,15112.077454804154
1735561474105,-50,283,936,979.1246090258379,-10274,4665,-6774,13160.713392517899
1735561474136,-50,283,936,979.1246090258379,-10246,4706,-3448,11790.49006615077
1735561474165,-50,283,936,979.1246090258379,-10192,4729,-94,11236.064302058796
1735561474195,-23,290,981,1023.2252928851984,-10146,4726,3263,11658.626033971585
1735561474225,-23,290,981,1023.2252928851984,-10167,4709,6571,12989.249824374001
1735561474255,-23,290,981,1023.2252928851984,-10196,4703,9870,14949.699829762469
1735561474285,-23,290,981,1023.2252928851984,-10221,4707,13168,17321.111800343533
1735561474315,-44,275,915,956.4444573523336,-10152,4706,16518,19951.287276764877
1735561474345,-44,275,915,956.4444573523336,-10100,4680,-16136,19603.134851344566
1735561474404,-44,275,915,956.4444573523336,-10088,4643,-12820,16961.061081194184
1735561474405,-28,250,1103,1131.3235611442024,-10094,4598,-9530,14623.656861400981
1735561474435,-28,250,1103,1131.3235611442024,-10130,4554,-6286,12762.03792503376
1735561474465,-28,250,1103,1131.3235611442024,-10190,4531,-3066,11565.743253245768
1735561474495,-58,370,970,1039.7903634867944,-10250,4535,153,11209.46626740096
1735561474525,-58,370,970,1039.7903634867944,-10347,4592,3452,11834.828980597904
1735561474555,-58,370,970,1039.7903634867944,-10362,4670,6809,13249.242431173188
1735561474585,-58,370,970,1039.7903634867944,-10303,4736,10228,15270.674150148054
1735561474615,2,317,942,993.9099556800908,-10255,4776,13556,17656.169941411415
1735561474645,2,317,942,993.9099556800908,-10195,4789,16879,20292.195223780003
1735561474675,2,317,942,993.9099556800908,-10143,4780,-15797,19371.9915857921
1735561474705,-71,317,928,983.2161512098954,-10103,4755,-12456,16728.19685441321
1735561474735,-71,317,928,983.2161512098954,-10062,4715,-9082,14351.229668568474
1735561474765,-71,317,928,983.2161512098954,-10071,4672,-5745,12500.305996254652
1735561474795,-132,354,996,1065.249266603831,-10100,4638,-2414,11373.145563123686
1735561474824,-132,354,996,1065.249266603831,-10103,4618,1018,11154.947646672304
1735561474855,-132,354,996,1065.249266603831,-10122,4604,4437,11972.412831171501
1735561474885,-132,354,996,1065.249266603831,-10146,4600,7849,13627.476545567783
1735561474915,-124,312,836,900.8973304433753,-10108,4590,11267,15817.239108011234
1735561474945,-124,312,836,900.8973304433753,-10086,4566,14665,18374.927945436957
1735561474975,-124,312,836,900.8973304433753,-10093,4540,-17958,21094.312337689513
1735561475005,-62,322,865,925.0691866017373,-10178,4529,-14642,18398.143629181723
1735561475035,-62,322,865,925.0691866017373,-10295,4561,-11376,16006.346303888342
1735561475065,-62,322,865,925.0691866017373,-10345,4624,-8068,13910.1770297865
1735561475095,-40,287,959,1001.8233377197798,-10327,4692,-4708,12281.16676053216
1735561475125,-40,287,959,1001.8233377197798,-10250,4740,-1331,11371.08882209615
1735561475155,-40,287,959,1001.8233377197798,-10158,4753,2069,11404.241930088996
1735561475185,-40,287,959,1001.8233377197798,-10087,4733,5463,12409.40075104354
1735561475215,-75,339,1033,1089.7866763729496,-10058,4697,8858,14201.737112057806
1735561475245,-75,339,1033,1089.7866763729496,-10073,4663,12236,16520.55065668212
1735561475274,-75,339,1033,1089.7866763729496,-10111,4642,15591,19153.58363335697
1735561475305,-101,321,998,1053.2074819331658,-10152,4643,-17080,20404.5816668708
1735561475335,-101,321,998,1053.2074819331658,-10158,4655,-13739,17709.153282977702
1735561475364,-101,321,998,1053.2074819331658,-10152,4666,-10388,15255.989119031254
1735561475394,-66,307,858,913.6569378054326,-10133,4673,-7025,13185.79701800388
1735561475424,-66,307,858,913.6569378054326,-10125,4669,-3694,11745.67247968374
1735561475454,-66,307,858,913.6569378054326,-10123,4663,-368,11151.417936746879
1735561475485,-66,307,858,913.6569378054326,-10126,4657,2952,11529.866824903052
1735561475515,-65,295,932,979.7315958975703,-10108,4635,6279,12770.30657423697
1735561475545,-65,295,932,979.7315958975703,-10113,4611,9586,14677.38007956461
1735561475575,-65,295,932,979.7315958975703,-10137,4593,12875,17018.22678777081
1735561475605,-71,307,923,975.3045678145878,-10173,4594,16179,19655.9102053301
1735561475636,-71,307,923,975.3045678145878,-10196,4611,-16492,19930.02260410158
1735561475665,-71,307,923,975.3045678145878,-10197,4632,-13147,17270.722104185454
1735561475695,-63,302,990,1036.9537115995101,-10185,4651,-9782,14867.869719633678
1735561475725,-63,302,990,1036.9537115995101,-10170,4669,-6405,12893.893360812319
1735561475755,-63,302,990,1036.9537115995101,-10144,4678,-3016,11570.681743095349
1735561475785,-63,302,990,1036.9537115995101,-10120,4676,374,11154.33781091464
1735561475814,-46,339,877,941.3639041305971,-10147,4669,3730,11775.995499319792
1735561475845,-46,339,877,941.3639041305971,-10183,4677,7081,13255.503724868398
1735561475875,-46,339,877,941.3639041305971,-10200,4695,10444,15334.932702819404
1735561475905,18,297,859,909.0731543720781,-10199,4708,13769,17769.92476067358
1735561475935,18,297,859,909.0731543720781,-10205,4711,17033,20407.318172655614
1735561475965,18,297,859,909.0731543720781,-10206,4716,-15699,19309.626951342172
1735561475995,-126,295,948,1000.8021782550236,-10199,4719,-12420,16749.47646943032
1735561476025,-126,295,948,1000.8021782550236,-10062,4705,-8954,14267.26971077508
1735561476055,-126,295,948,1000.8021782550236,-9986,4650,-5522,12322.141859271058
1735561476085,-126,295,948,1000.8021782550236,-9984,4584,-2145,11193.495298609814
1735561476115,-96,322,1014,1068.2209509272882,-10106,4541,1120,11135.812363720934
1735561476145,-96,322,1014,1068.2209509272882,-10235,4550,4366,12021.633873979028
1735561476175,-96,322,1014,1068.2209509272882,-10312,4598,7638,13631.507326777915
1735561476205,-86,333,933,994.3711580692594,-10309,4664,10981,15767.394775294997
1735561476235,-86,333,933,994.3711580692594,-10249,4716,14379,18276.714639124835
1735561476265,-86,333,933,994.3711580692594,-10164,4738,17808,21044.723899353015
1735561476295,-53,388,881,964.1130639090003,-10086,4725,-14760,18490.82531960107
1735561476326,-53,388,881,964.1130639090003,-10109,4700,-11389,15937.101430310344
1735561476355,-53,388,881,964.1130639090003,-10146,4687,-8033,13763.661358810017
1735561476385,-53,388,881,964.1130639090003,-10182,4690,-4681,12148.291443655771
1735561476415,2,331,940,996.5766403041965,-10192,4688,-1380,11303.035344543518
1735561476445,2,331,940,996.5766403041965,-10203,4686,1895,11386.431837937642
1735561476475,2,331,940,996.5766403041965,-10212,4688,5171,12369.378682860348
1735561476505,-28,293,839,889.1310364620055,-10187,4698,8487,14066.817052908593
1735561476535,-28,293,839,889.1310364620055,-10124,4691,11842,16270.642919073603
1735561476565,-28,293,839,889.1310364620055,-10089,4665,15181,18815.230718755483
1735561476595,-163,291,924,982.3573687818501,-10113,4635,-17518,20751.77867075495
1735561476624,-163,291,924,982.3573687818501,-10081,4620,-14098,17936.68210678887
1735561476655,-163,291,924,982.3573687818501,-10072,4599,-10694,15393.427850871944
1735561476685,-163,291,924,982.3573687818501,-10084,4580,-7308,13269.149181466008
1735561476715,-69,328,945,1002.6814050335231,-10168,4569,-3987,11838.925373529473
1735561476745,-69,328,945,1002.6814050335231,-10263,4596,-694,11266.499944525807
1735561476775,-69,328,945,1002.6814050335231,-10304,4648,2632,11606.19420826655
1735561476805,-3,273,950,988.4523256080689,-10274,4696,5961,12772.666636219705
1735561476835,-3,273,950,988.4523256080689,-10219,4716,9256,14571.964623893375
1735561476865,-3,273,950,988.4523256080689,-10166,4713,12556,16828.935230726867
1735561476895,-49,296,990,1034.4645958175659,-10139,4696,15843,19386.912750616073
1735561476925,-49,296,990,1034.4645958175659,-10126,4679,-16836,20196.03458602703
1735561476955,-49,296,990,1034.4645958175659,-10132,4661,-13531,17534.831222455494
1735561476985,-49,296,990,1034.4645958175659,-10150,4649,-10245,15152.416506947002
1735561477015,-46,296,940,986.5758967256396,-10173,4643,-6985,13184.748878913091
1735561477045,-46,296,940,986.5758967256396,-10194,4646,-3726,11806.18600564975
1735561477075,-46,296,940,986.5758967256396,-10205,4655,-461,11226.022047012022
1735561477105,17,294,1018,1059.7400624681507,-10234,4665,2798,11589.900128991621
1735561477135,17,294,1018,1059.7400624681507,-10282,4688,6026,12806.6211000404
1735561477165,17,294,1018,1059.7400624681507,-10294,4721,9278,14640.203584650044
1735561477195,-67,307,980,1029.1443047503105,-10271,4752,12561,16907.207516322735
1735561477224,-67,307,980,1029.1443047503105,-10158,4769,15979,19525.797448503865
1735561477255,-67,307,980,1029.1443047503105,-10070,4746,-16609,19994.70672453087
1735561477285,-35,254,1000,1032.347325273815,-10019,4696,-13224,17242.59124957731
1735561477315,-35,254,1000,1032.347325273815,-10000,4621,-9917,14822.298404768404
1735561477345,-35,254,1000,1032.347325273815,-10051,4555,-6670,12894.166355371719
1735561477374,-35,254,1000,1032.347325273815,-10139,4518,-3460,11626.83297377235
1735561477405,-12,273,966,1003.9068681904712,-10257,4529,-302,11216.465307751814
1735561477435,-12,273,966,1003.9068681904712,-10337,4578,2873,11664.72382870679
1735561477464,-12,273,966,1003.9068681904712,-10351,4643,6096,12878.736972234505
1735561477495,-55,218,969,994.7411723659577,-10311,4698,9369,14702.587731416535
1735561477525,-55,218,969,994.7411723659577,-10169,4716,12723,16956.531072126752
1735561477554,-55,218,969,994.7411723659577,-10060,4684,16067,19526.69826161095
1735561477585,-82,290,1027,1070.3050966897242,-10019,4624,-16626,19954.588770505896
1735561477615,-82,290,1027,1070.3050966897242,-10078,4573,-13328,17323.798573061278
1735561477645,-82,290,1027,1070.3050966897242,-10158,4553,-10056,15001.263580112176
1735561477675,-82,290,1027,1070.3050966897242,-10227,4563,-6785,13093.8429423909
1735561477705,-70,262,889,929.4433818151593,-10238,4588,-3473,11744.280182284481
1735561477735,-70,262,889,929.4433818151593,-10220,4609,-146,11212.162904631738
1735561477765,-70,262,889,929.4433818151593,-10190,4620,3192,11634.834077029203
1735561477795,-59,312,899,953.4285500235453,-10178,4619,6531,12945.300537260617
1735561477825,-59,312,899,953.4285500235453,-10198,4623,9862,14920.803497131112
1735561477855,-59,312,899,953.4285500235453,-10209,4633,13199,17317.677991000986
1735561477885,-19,291,919,964.1592192164113,-10205,4644,16550,19990.27916263302
1735561477915,-19,291,919,964.1592192164113,-10207,4648,-16129,19645.136650071945
1735561477945,-19,291,919,964.1592192164113,-10205,4652,-12807,17023.582995362638
1735561477975,-19,291,919,964.1592192164113,-10201,4654,-9482,14684.292322069865
1735561478005,-57,295,875,925.1480962527027,-10187,4658,-6124,12766.178323993441
1735561478036,-57,295,875,925.1480962527027,-10166,4655,-2750,11514.298979964
1735561478065,-57,295,875,925.1480962527027,-10154,4646,617,11183.457470746693
1735561478095,-12,235,890,920.5807949332856,-10148,4627,3948,11831.218745336424
1735561478125,-12,235,890,920.5807949332856,-10159,4599,7217,13283.11601244226
1735561478155,-12,235,890,920.5807949332856,-10189,4580,10468,15309.184988104364
1735561478185,-21,250,985,1016.4477359903951,-10231,4574,13701,17700.628180943182
1735561478215,-21,250,985,1016.4477359903951,-10278,4585,16929,20328.56487802324
1735561478245,-21,250,985,1016.4477359903951,-10300,4608,-15827,19437.53052730722
1735561478275,-21,250,985,1016.4477359903951,-10295,4634,-12562,16889.784634506148
1735561478305,-84,237,950,982.7130812195388,-10230,4660,-9253,14559.756488348286
1735561478335,-84,237,950,982.7130812195388,-10147,4654,-5911,12631.755459950924
1735561478365,-84,237,950,982.7130812195388,-10097,4623,-2588,11402.599791275672
1735561478395,36,275,917,958.0240080499027,-10149,4585,662,11156.283879500377
1735561478425,36,275,917,958.0240080499027,-10300,4588,3806,11900.6462009422
1735561478455,36,275,917,958.0240080499027,-10400,4637,6975,13353.366392037628
1735561478485,12,244,1028,1056.6286007864826,-10427,4709,10185,15317.677206417427
1735561478515,12,244,1028,1056.6286007864826,-10343,4769,13462,17633.673865646942
1735561478545,12,244,1028,1056.6286007864826,-10233,4790,16773,20223.548600579474
1735561478575,12,244,1028,1056.6286007864826,-10143,4773,-15916,19467.435218846884
1735561478605,-41,280,1020,1058.527751171409,-10072,4722,-12560,16777.84455763016
1735561478635,-41,280,1020,1058.527751171409,-10063,4661,-9231,14429.145886018341
1735561478665,-41,280,1020,1058.527751171409,-10108,4611,-5950,12602.99508053542
1735561478695,-87,350,1044,1104.538365110058,-10180,4581,-2648,11473.005926957416
1735561478725,-87,350,1044,1104.538365110058,-10256,4588,699,11257.170203918922
1735561478755,-87,350,1044,1104.538365110058,-10300,4618,4065,11997.5059491546
1735561478785,-51,267,889,929.6294960897056,-10294,4660,7461,13540.626167205119
1735561478815,-51,267,889,929.6294960897056,-10205,4678,10839,15604.79509637983
1735561478845,-51,267,889,929.6294960897056,-10132,4662,14215,18068.14580968396
1735561478875,-51,267,889,929.6294960897056,-10098,4626,17566,20783.017971411176
1735561478905,-27,263,824,865.3750631951443,-10147,4579,-15182,18826.098214978058
1735561478935,-27,263,824,865.3750631951443,-10223,4558,-11966,16385.061763691952
1735561478965,-27,263,824,865.3750631951443,-10291,4565,-8753,14260.396733611586
1735561478995,0,264,953,988.8907927572185,-10347,4594,-5549,12607.800997794977
1735561479025,0,264,953,988.8907927572185,-10380,4638,-2345,11608.379258104897
1735561479055,0,264,953,988.8907927572185,-10365,4683,895,11408.976246797956
1735561479085,-19,316,972,1022.2529041289147,-10319,4714,4168,12086.181406879512
1735561479115,-19,316,972,1022.2529041289147,-10288,4735,7482,13573.632269956337
1735561479145,-19,316,972,1022.2529041289147,-10249,4742,10808,15631.424407263721
1735561479175,-19,316,972,1022.2529041289147,-10217,4736,14132,18070.146900343672
1735561479205,25,235,930,959.5571895410924,-10163,4710,17407,20699.621204263618
1735561479235,25,235,930,959.5571895410924,-10145,4666,-15369,18997.335128906896
1735561479265,25,235,930,959.5571895410924,-10170,4625,-12181,16528.650459127024
1735561479294,51,292,833,884.1685359703771,-10221,4599,-8993,14369.888343337954
1735561479323,51,292,833,884.1685359703771,-10306,4603,-5816,12697.523419942961
1735561479355,51,292,833,884.1685359703771,-10360,4633,-2623,11647.936212050614
1735561479385,-32,201,954,975.4696304857471,-10377,4675,603,11397.42791159479
1735561479415,-32,201,954,975.4696304857471,-10222,4700,3970,11930.640552795143
1735561479445,-32,201,954,975.4696304857471,-10099,4669,7329,13323.04781196855
1735561479475,-32,201,954,975.4696304857471,-10046,4605,10644,15343.496244337533
1735561479534,74,247,902,938.1305879247302,-10178,4553,13805,17745.408363855706
1735561479535,74,247,902,938.1305879247302,-10345,4561,16911,20342.164756977072
1735561479565,74,247,902,938.1305879247302,-10452,4619,-15953,19623.396087323927
1735561479595,8,258,948,982.5131042383099,-10470,4702,-12748,17153.460525503302
1735561479625,8,258,948,982.5131042383099,-10382,4775,-9429,14815.282312531206
1735561479655,8,258,948,982.5131042383099,-10259,4804,-6067,12850.446918298212
1735561479685,-46,267,938,976.3447137153968,-10147,4786,-2696,11538.449679224675
1735561479715,-46,267,938,976.3447137153968,-10045,4729,720,11125.81979001997
1735561479745,-46,267,938,976.3447137153968,-10028,4653,4074,11781.709086545976
1735561479775,-46,267,938,976.3447137153968,-10083,4588,7368,13304.287166173166
1735561479805,16,246,976,1006.6518762710374,-10171,4554,10606,15384.257960655756
1735561479835,16,246,976,1006.6518762710374,-10268,4555,13808,17800.02002807862
1735561479865,16,246,976,1006.6518762710374,-10332,4586,17026,20436.88567272421
1735561479895,-102,199,958,983.7525095266593,-10304,4639,-15702,19345.42687562102
1735561479925,-102,199,958,983.7525095266593,-10155,4658,-12316,16628.43483314049
1735561479955,-102,199,958,983.7525095266593,-10041,4625,-8940,14217.450756025146
1735561479985,24,264,881,920.0179346077988,-10002,4561,-5617,12344.772739908985
1735561480015,24,264,881,920.0179346077988,-10190,4520,-2504,11425.257808907421
1735561480045,24,264,881,920.0179346077988,-10350,4544,608,11319.898409438134
1735561480105,24,264,881,920.0179346077988,-10439,4614,3760,12016.626689716211
1735561480106,-65,302,890,942.0875755469871,-10379,4703,7083,13416.808077929712
1735561480135,-65,302,890,942.0875755469871,-10244,4754,10504,15423.166600928618
1735561480165,-65,302,890,942.0875755469871,-10111,4749,13943,17865.961239183296
1735561480195,-19,249,932,964.8761578565407,-10039,4702,17330,20572.292652983528
1735561480225,-19,249,932,964.8761578565407,-10038,4637,-15374,18937.34640861808
1735561480255,-19,249,932,964.8761578565407,-10092,4586,-12127,16429.972276300407
1735561480285,-1,317,892,946.6541078979164,-10169,4564,-8908,14268.536049644335
1735561480315,-1,317,892,946.6541078979164,-10299,4586,-5713,12638.796066081612
1735561480345,-1,317,892,946.6541078979164,-10368,4646,-2482,11629.3191546195
1735561480375,-1,317,892,946.6541078979164,-10363,4715,803,11413.492147454257
1735561480405,-46,260,902,939.8510520289904,-10228,4756,4187,12031.72842944853
1735561480435,-46,260,902,939.8510520289904,-10081,4736,7595,13481.108337225096
1735561480464,-46,260,902,939.8510520289904,-10003,4673,10960,15556.945008580573
1735561480495,-57,216,959,984.6755810925749,-10006,4599,14271,18025.87800912899
1735561480525,-57,216,959,984.6755810925749,-10050,4535,17535,20713.400252010775
1735561480554,-57,216,959,984.6755810925749,-10131,4498,-15237,18842.381325087335
1735561480585,-87,290,997,1041.9587323881883,-10217,4494,-12026,16407.55316919619
1735561480615,-87,290,997,1041.9587323881883,-10311,4531,-8771,14275.052469255586
1735561480645,-87,290,997,1041.9587323881883,-10342,4592,-5473,12569.692000999865
1735561480675,-87,290,997,1041.9587323881883,-10310,4649,-2125,11507.602964996664
1735561480705,-36,306,934,983.5080070848433,-10255,4684,1236,11341.630262003782
1735561480735,-36,306,934,983.5080070848433,-10205,4698,4596,12138.22248107193
1735561480765,-36,306,934,983.5080070848433,-10161,4692,7959,13733.406933459737
1735561480795,81,200,1002,1024.9707312894354,-10190,4684,11199,15849.08694531013
1735561480825,81,200,1002,1024.9707312894354,-10251,4684,14310,18215.34948882398
1735561480855,81,200,1002,1024.9707312894354,-10292,4703,17429,20780.12305064626
1735561480885,-10,299,1010,1053.376001245519,-10298,4725,-15417,19132.650574345418
1735561480915,-10,299,1010,1053.376001245519,-10270,4749,-12103,16568.29834352339
1735561480946,-10,299,1010,1053.376001245519,-10229,4761,-8774,14292.74774142467
1735561480976,-87,314,969,1022.3140417699445,-10175,4762,-5427,12476.361568983162
1735561481005,-87,314,969,1022.3140417699445,-10051,4745,-1960,11286.24056096626
1735561481035,-87,314,969,1022.3140417699445,-9986,4694,1471,11131.831520464186
1735561481065,-87,314,969,1022.3140417699445,-9990,4633,4851,12033.162094811156
1735561481095,12,277,923,963.743741873326,-10110,4575,8073,13722.829664467894
1735561481125,12,277,923,963.743741873326,-10254,4566,11234,15880.668373843715
1735561481155,12,277,923,963.743741873326,-10358,4605,14410,18334.183619676114
1735561481185,-10,306,861,913.8145326049482,-10386,4668,17638,20994.24359199445
1735561481215,-10,306,861,913.8145326049482,-10333,4728,-15036,18846.914044479538
1735561481245,-10,306,861,913.8145326049482,-10245,4759,-11672,16243.26598932616
1735561481275,-31,289,951,994.4259650672844,-10164,4755,-8301,13957.919687403277
1735561481335,-31,289,951,994.4259650672844,-10093,4723,-4929,12184.843823373363
1735561481336,-31,289,951,994.4259650672844,-10074,4676,-1595,11220.270807783563
1735561481365,-31,289,951,994.4259650672844,-10103,4632,1700,11243.488471110735
1735561481395,16,243,832,866.907722886352,-10158,4605,4907,12184.811775320946
1735561481425,16,243,832,866.907722886352,-10220,4598,8081,13816.387552468264
1735561481455,16,243,832,866.907722886352,-10268,4611,11260,15921.078638082283
1735561481485,-22,309,893,945.2057976969883,-10287,4636,14513,18383.199775882327
1735561481515,-22,309,893,945.2057976969883,-10282,4671,17843,21116.590965399693
1735561481545,-22,309,893,945.2057976969883,-10249,4697,-14799,18604.144995134822
1735561481574,-23,299,967,1012.4322199535137,-10207,4707,-11436,16034.986560642948
1735561481605,-23,299,967,1012.4322199535137,-10168,4700,-8087,13815.852959553384
1735561481635,-23,299,967,1012.4322199535137,-10150,4682,-4750,12145.20991996433
1735561481665,-23,299,967,1012.4322199535137,-10153,4662,-1429,11263.200877192949
1735561481695,-72,307,979,1028.5300190077098,-10141,4638,1914,11314.341386046295
1735561481725,-72,307,979,1028.5300190077098,-10143,4614,5257,12320.93722084485
1735561481755,-72,307,979,1028.5300190077098,-10165,4596,8582,14074.84156216332
1735561481785,-21,320,909,963.9097468124285,-10222,4594,11868,16323.098480374369
1735561481815,-21,320,909,963.9097468124285,-10296,4620,15117,18864.668165647654
1735561481845,-21,320,909,963.9097468124285,-10324,4664,-17601,20931.62853196091
1735561481875,-59,281,929,972.3595014190996,-10314,4709,-14298,18247.90620865857
1735561481905,-59,281,929,972.3595014190996,-10221,4735,-10947,15707.510146423589
1735561481935,-59,281,929,972.3595014190996,-10137,4726,-7592,13517.851493488157
1735561481965,-59,281,929,972.3595014190996,-10091,4692,-4259,11915.629484001254
1735561481995,-2,314,982,1030.982056099911,-10122,4645,-930,11175.679352952106
1735561482025,-2,314,982,1030.982056099911,-10203,4626,2349,11446.348151266411
1735561482055,-2,314,982,1030.982056099911,-10272,4636,5628,12596.859291109035
1735561482085,-38,316,943,995.2632817501105,-10294,4666,8921,14398.688586117834
1735561482115,-38,316,943,995.2632817501105,-10261,4694,12259,16661.47766556136
1735561482145,-38,316,943,995.2632817501105,-10215,4706,15612,19241.289068043232
1735561482175,-26,268,971,1007.6413052272123,-10179,4704,-17033,20392.71306128736
1735561482205,-26,268,971,1007.6413052272123,-10133,4691,-13700,17674.08187148628
1735561482236,-26,268,971,1007.6413052272123,-10114,4666,-10384,15228.000788022044
1735561482265,-26,268,971,1007.6413052272123,-10124,4640,-7091,13202.54736783777
1735561482295,-17,303,923,971.6105186750501,-10184,4618,-3825,11818.223428248426
1735561482324,-17,303,923,971.6105186750501,-10251,4624,-566,11259.872690221679
1735561482355,-17,303,923,971.6105186750501,-10291,4650,2706,11612.476781462256
1735561482386,-9,318,917,970.6152687857326,-10304,4687,5999,12811.260125374085
1735561482415,-9,318,917,970.6152687857326,-10291,4726,9318,14665.090555465384
1735561482445,-9,318,917,970.6152687857326,-10248,4752,12663,16969.22440773296
1735561482475,-82,293,921,969.9556690900879,-10190,4759,16028,19580.11657268669
1735561482505,-82,293,921,969.9556690900879,-10053,4733,-16512,19902.51848385023
1735561482536,-82,293,921,969.9556690900879,-9989,4669,-13099,17122.01749210647
1735561482565,-82,293,921,969.9556690900879,-10003,4599,-9745,14702.919267954918
1735561482595,20,271,964,1001.5672718295062,-10152,4556,-6583,12928.887384458107
1735561482625,20,271,964,1001.5672718295062,-10309,4569,-3469,11797.677864732534
1735561482655,20,271,964,1001.5672718295062,-10404,4629,-323,11391.891238947113
1735561482685,-63,278,946,988.012651740857,-10381,4706,2960,11775.958432331527
1735561482715,-63,278,946,988.012651740857,-10249,4754,6393,12981.254407798962
1735561482745,-63,278,946,988.012651740857,-10119,4748,9841,14892.378789165954
1735561482775,-29,310,928,978.8385975225947,-10042,4701,13251,17278.02552376862
1735561482805,-29,310,928,978.8385975225947,-10089,4645,16552,19933.204709729944
1735561482836,-29,310,928,978.8385975225947,-10166,4616,-16180,19658.265742430078
1735561482865,-29,310,928,978.8385975225947,-10242,4617,-12921,17122.134621594352
1735561482895,-68,304,930,980.7853995650629,-10241,4633,-9607,14786.386272514323
1735561482925,-68,304,930,980.7853995650629,-10216,4642,-6268,12853.118065278946
1735561482955,-68,304,930,980.7853995650629,-10192,4642,-2925,11575.001209503176
1735561482985,-37,313,901,954.5360129403185,-10205,4626,384,11211.126482205078
1735561483015,-37,313,901,954.5360129403185,-10258,4619,3651,11827.574814813051
1735561483045,-37,313,901,954.5360129403185,-10299,4630,6921,13244.113484865644
1735561483075,-35,276,911,952.534513810392,-10309,4655,10216,15241.75718216243
1735561483105,-35,276,911,952.534513810392,-10254,4673,13551,17624.160859456544
1735561483135,-35,276,911,952.534513810392,-10202,4670,16891,20277.958107265138
1735561483165,-35,276,911,952.534513810392,-10171,4651,-15780,19341.391935432155
1735561483195,32,259,1050,1081.9450078446687,-10226,4633,-12550,16838.59450785605
1735561483225,32,259,1050,1081.9450078446687,-10291,4637,-9352,14658.32029940675
1735561483255,32,259,1050,1081.9450078446687,-10331,4660,-6141,12890.191697566022
1735561483286,24,296,971,1015.3979515441224,-10354,4691,-2924,11737.145010606284
1735561483315,24,296,971,1015.3979515441224,-10358,4728,316,11390.434759042342
1735561483345,24,296,971,1015.3979515441224,-10329,4759,3587,11924.88536632533
1735561483375,-61,261,1019,1053.6617104175325,-10272,4774,6896,13261.216987893682
1735561483405,-61,261,1019,1053.6617104175325,-10103,4749,10344,15219.130921310849
1735561483435,-61,261,1019,1053.6617104175325,-10017,4676,13742,17636.54810329958
1735561483465,-61,261,1019,1053.6617104175325,-10024,4592,17069,20320.37895808048
1735561483495,-3,289,920,964.3287821070156,-10153,4536,-15715,19251.49163052048
1735561483525,-3,289,920,964.3287821070156,-10304,4538,-12539,16852.07349260025
1735561483555,-3,289,920,964.3287821070156,-10403,4586,-9339,14712.944164918183
1735561483586,-40,328,971,1025.6826994738676,-10413,4658,-6065,12919.433346706814
1735561483615,-40,328,971,1025.6826994738676,-10348,4721,-2698,11689.65991806434
1735561483645,-40,328,971,1025.6826994738676,-10250,4749,706,11318.742730533282
1735561483675,-21,312,880,933.9084537576475,-10168,4739,4108,11946.6317010277
1735561483705,-21,312,880,933.9084537576475,-10139,4706,7451,13433.657655307434
1735561483735,-21,312,880,933.9084537576475,-10149,4671,10763,15513.304322419515
1735561483765,-21,312,880,933.9084537576475,-10186,4646,14050,17965.033036429406
1735561483795,-61,316,919,973.7237801347977,-10227,4643,17363,20679.041249535723
1735561483825,-61,316,919,973.7237801347977,-10247,4653,-15302,18994.805131930152
1735561483855,-61,316,919,973.7237801347977,-10251,4667,-11957,16426.61678496214
1735561483886,-15,280,990,1028.943633052851,-10237,4674,-8612,14170.708839010136
1735561483915,-15,280,990,1028.943633052851,-10229,4668,-5300,12430.312345230912
1735561483945,-15,280,990,1028.943633052851,-10229,4661,-1994,11416.36535855436
1735561483975,-9,331,1009,1061.9430304870407,-10232,4656,1302,11316.685203715795
1735561484006,-9,331,1009,1061.9430304870407,-10281,4661,4581,12182.341441611296
1735561484035,-9,331,1009,1061.9430304870407,-10307,4681,7872,13788.197634208758
1735561484065,-9,331,1009,1061.9430304870407,-10308,4705,11183,15920.156343453415
1735561484095,-42,295,936,982.2856000166144,-10228,4729,14537,18392.92782566169
1735561484125,-42,295,936,982.2856000166144,-10139,4716,17908,21112.471219636984
1735561484155,-42,295,936,982.2856000166144,-10093,4678,-14746,18471.514529133772
1735561484185,-46,311,958,1008.266333862239,-10112,4627,-11435,15950.576729385053
1735561484215,-46,311,958,1008.266333862239,-10179,4593,-8154,13827.342694820289
1735561484245,-46,311,958,1008.266333862239,-10251,4588,-4887,12248.082053938078
1735561484275,-13,265,907,945.0095237615333,-10306,4608,-1616,11404.330580967915
1735561484336,-13,265,907,945.0095237615333,-10321,4638,1629,11431.873249822183
1735561484336,-13,265,907,945.0095237615333,-10306,4666,4898,12327.838253319193
1735561484365,-13,265,907,945.0095237615333,-10273,4684,8187,13946.374224148727
1735561484395,-4,281,930,971.5333241839932,-10261,4698,11467,16088.859934749882
1735561484425,-4,281,930,971.5333241839932,-10247,4708,14753,18569.256366370733
1735561484455,-4,281,930,971.5333241839932,-10229,4711,-17954,21193.68014291053
1735561484486,-51,335,958,1016.1643567848657,-10226,4706,-14641,18468.25365322883
1735561484515,-51,335,958,1016.1643567848657,-10232,4708,-11291,15948.22149959048
1735561484545,-51,335,958,1016.1643567848657,-10234,4712,-7938,13782.218399082203
1735561484575,47,297,939,985.971094911002,-10222,4713,-4578,12151.53229020933
1735561484605,47,297,939,985.971094911002,-10254,4700,-1335,11358.553649122761
1735561484635,47,297,939,985.971094911002,-10287,4699,1901,11468.076168215835
1735561484665,-45,272,917,957.547910028527,-10299,4710,5153,12442.142500389553
1735561484695,-45,272,917,957.547910028527,-10177,4711,8546,14099.60871797512
1735561484725,-45,272,917,957.547910028527,-10098,4673,11919,16305.492755510335
1735561484755,-45,272,917,957.547910028527,-10079,4618,15249,18853.226938643686
1735561484815,2,315,986,1035.0966138481954,-10195,4582,-17519,20780.95546407816
1735561484816,2,315,986,1035.0966138481954,-10322,4597,-14312,18234.84129352378
1735561484845,2,315,986,1035.0966138481954,-10395,4649,-11074,15884.03922181005
1735561484875,-13,274,912,952.359700953374,-10384,4711,-7781,13804.525996933035
1735561484905,-13,274,912,952.359700953374,-10253,4740,-4414,12127.448412588692
1735561484935,-13,274,912,952.359700953374,-10142,4720,-1048,11235.518145595244
1735561484965,-46,312,950,1000.9795202700203,-10091,4671,2288,11352.597323960716
1735561484995,-46,312,950,1000.9795202700203,-10104,4626,5632,12458.335201783584
1735561485025,-46,312,950,1000.9795202700203,-10150,4596,8946,14289.038876005621
1735561485055,-46,312,950,1000.9795202700203,-10206,4587,12246,16588.174130988617
1735561485085,-70,258,953,989.7843199404606,-10224,4598,15503,19131.51298251134
1735561485115,-70,258,953,989.7843199404606,-10209,4605,-17221,20542.457180191468
1735561485145,-70,258,953,989.7843199404606,-10194,4606,-13944,17876.46519869071
1735561485175,-28,274,986,1023.7460622634892,-10178,4598,-10650,15432.296912643951
1735561485205,-28,274,986,1023.7460622634892,-10194,4588,-7381,13395.765786247533
1735561485235,-28,274,986,1023.7460622634892,-10214,4585,-4116,11928.515289003908
1735561485265,-31,303,936,984.3099105464701,-10236,4592,-852,11251.136120410241
1735561485295,-31,303,936,984.3099105464701,-10274,4618,2422,11521.592077486514
1735561485325,-31,303,936,984.3099105464701,-10276,4650,5722,12647.527821673293
1735561485355,-31,303,936,984.3099105464701,-10250,4677,9047,14449.395765913536
1735561485385,-74,239,984,1015.3093124757597,-10154,4694,12437,16727.71117039029
1735561485415,-74,239,984,1015.3093124757597,-10053,4668,15838,19331.19957478066
1735561485445,-74,239,984,1015.3093124757597,-10011,4615,-16798,20092.0668424132
1735561485475,0,254,858,894.8072418124476,-10047,4552,-13494,17428.452283550596
1735561485506,0,254,858,894.8072418124476,-10165,4518,-10278,15145.191745237165
1735561485535,0,254,858,894.8072418124476,-10272,4528,-7067,13264.963512953966
1735561485565,-96,274,1010,1050.900566181216,-10341,4573,-3833,11939.032582248865
1735561485595,-96,274,1010,1050.900566181216,-10293,4638,-439,11298.212867529095
1735561485625,-96,274,1010,1050.900566181216,-10204,4674,2997,11616.793920871627
