Timestamp,Acc_X,Acc_Y,Acc_Z,Acc_Betrag,Ori_X,Ori_Y,Ori_Z,Ori_Betrag
1735563241629,-248,-73,925,960.446771039395,-9787,4101,6883,12648.290754090056
1735563241629,-248,-73,925,960.446771039395,-9876,4065,10014,14640.348254054614
1735563241640,-248,-73,925,960.446771039395,-9961,4067,13136,16979.885335301886
1735563241670,-248,-73,925,960.446771039395,-10017,4097,16271,19541.523456475956
1735563241700,-269,-71,926,966.890893534529,-10005,4153,-16560,19788.406555354577
1735563241730,-269,-71,926,966.890893534529,-9950,4194,-13350,17170.167034714603
1735563241760,-269,-71,926,966.890893534529,-9882,4207,-10122,14758.308066983831
1735563241790,-235,-149,1011,1048.592866655119,-9813,4197,-6915,12717.193204477158
1735563241820,-235,-149,1011,1048.592866655119,-9756,4156,-3758,11250.530476381991
1735563241850,-235,-149,1011,1048.592866655119,-9747,4105,-634,10595.13992356873
1735563241880,-260,-126,1007,1047.6282737688975,-9782,4057,2461,10872.133829198388
1735563241910,-260,-126,1007,1047.6282737688975,-9847,4027,5569,12008.07640715198
1735563241940,-260,-126,1007,1047.6282737688975,-9913,4025,8669,13770.24890842573
1735563241970,-260,-126,1007,1047.6282737688975,-9958,4045,11777,15944.325573695489
1735563242000,-249,-76,963,997.5700476658268,-10003,4079,14875,18383.79381411791
1735563242030,-249,-76,963,997.5700476658268,-10021,4126,17998,21008.86291544595
1735563242060,-249,-76,963,997.5700476658268,-9998,4171,-14846,18378.27415727603
1735563242090,-240,-137,951,990.3383260280297,-9925,4215,-11649,15873.596032405512
1735563242120,-240,-137,951,990.3383260280297,-9812,4222,-8431,13608.173610003658
1735563242150,-240,-137,951,990.3383260280297,-9731,4189,-5226,11813.177303333765
1735563242180,-217,-102,966,995.3135184453188,-9718,4130,-2066,10759.404258600938
1735563242210,-217,-102,966,995.3135184453188,-9830,4081,1002,10690.531558346385
1735563242240,-217,-102,966,995.3135184453188,-9941,4077,4057,11484.975359137694
1735563242270,-217,-102,966,995.3135184453188,-10020,4111,7125,12964.040496697007
1735563242301,-247,-125,982,1020.2734927459402,-10010,4166,10257,14925.203683702277
1735563242331,-247,-125,982,1020.2734927459402,-9950,4204,13433,17237.215697437914
1735563242360,-247,-125,982,1020.2734927459402,-9881,4213,16625,19793.285603961765
1735563242390,-240,-118,984,1019.696033139288,-9827,4194,-16185,19393.653343297647
1735563242420,-240,-118,984,1019.696033139288,-9811,4160,-13020,16825.03257054797
1735563242450,-240,-118,984,1019.696033139288,-9827,4127,-9879,14532.608127930787
1735563242480,-217,-158,964,1000.6742726781778,-9868,4106,-6765,12649.185151621428
1735563242510,-217,-158,964,1000.6742726781778,-9910,4097,-3703,11344.854252038675
1735563242542,-217,-158,964,1000.6742726781778,-9946,4104,-640,10778.466124639443
1735563242571,-217,-158,964,1000.6742726781778,-9965,4122,2430,11054.275598156579
1735563242602,-218,-71,915,943.2868068620487,-10023,4155,5522,12174.441999533285
1735563242631,-218,-71,915,943.2868068620487,-10054,4211,8646,13912.898799315692
1735563242661,-218,-71,915,943.2868068620487,-10033,4266,11810,16072.832513281533
1735563242691,-206,-121,992,1020.3631706407283,-9939,4313,15041,18536.919134527183
1735563242721,-206,-121,992,1020.3631706407283,-9807,4314,-17699,20689.186692569623
1735563242751,-206,-121,992,1020.3631706407283,-9720,4271,-14460,17939.103684409652
1735563242781,-216,-115,1012,1041.1652126343831,-9705,4205,-11269,15455.077191654527
1735563242811,-216,-115,1012,1041.1652126343831,-9761,4147,-8121,13357.596003772534
1735563242842,-216,-115,1012,1041.1652126343831,-9841,4119,-5001,11782.2511855757
1735563242871,-216,-115,1012,1041.1652126343831,-9916,4123,-1886,10903.356409840046
1735563242902,-244,-101,987,1021.7171820029259,-9953,4148,1262,10856.369420759409
1735563242931,-244,-101,987,1021.7171820029259,-9956,4180,4442,11675.859711387424
1735563242961,-244,-101,987,1021.7171820029259,-9933,4207,7644,13220.97099308519
1735563242991,-228,-113,929,963.2206393137556,-9896,4214,10842,15272.11760038535
1735563243021,-228,-113,929,963.2206393137556,-9868,4203,14018,17650.6928192635
1735563243051,-228,-113,929,963.2206393137556,-9858,4185,17184,20248.06768558422
1735563243081,-225,-83,974,1003.0902252539399,-9851,4164,-15660,18963.56234993837
1735563243111,-225,-83,974,1003.0902252539399,-9866,4138,-12521,16469.25745138499
1735563243141,-225,-83,974,1003.0902252539399,-9896,4122,-9396,14255.052297343564
1735563243171,-225,-83,974,1003.0902252539399,-9927,4119,-6276,12445.869435278517
1735563243201,-224,-102,966,996.8630798660365,-9927,4117,-3157,11200.967235020376
1735563243231,-224,-102,966,996.8630798660365,-9925,4113,-40,10743.555929020893
1735563243261,-224,-102,966,996.8630798660365,-9926,4108,3073,11173.382164769986
1735563243291,-259,-73,885,925.0054053896117,-9933,4104,6190,12402.556389712567
1735563243322,-259,-73,885,925.0054053896117,-9940,4104,9328,14235.79994239874
1735563243351,-259,-73,885,925.0054053896117,-9944,4107,12468,16468.199931990137
1735563243381,-271,-134,1036,1079.2094328720445,-9942,4118,15623,18970.488053816644
1735563243411,-271,-134,1036,1079.2094328720445,-9867,4126,-17175,20232.701006044645
1735563243441,-271,-134,1036,1079.2094328720445,-9811,4107,-13979,17565.181781012117
1735563243471,-271,-134,1036,1079.2094328720445,-9787,4073,-10804,15136.086482311073
1735563243532,-254,-54,914,950.1726158967117,-9898,4037,-7694,13170.626750462561
1735563243532,-254,-54,914,950.1726158967117,-10018,4054,-4594,11743.086306418769
1735563243561,-254,-54,914,950.1726158967117,-10088,4108,-1468,10990.83399929232
1735563243590,-211,-97,948,976.0297126624783,-10099,4182,1671,11057.62931192758
1735563243622,-211,-97,948,976.0297126624783,-10053,4243,4819,11928.479324708578
1735563243651,-211,-97,948,976.0297126624783,-9974,4278,8000,13482.654041397042
1735563243681,-192,-104,957,981.5951303872691,-9887,4279,11204,15543.237307588146
1735563243711,-192,-104,957,981.5951303872691,-9824,4248,14394,17937.215948970454
1735563243741,-192,-104,957,981.5951303872691,-9806,4202,17555,20542.455184324976
1735563243771,-192,-104,957,981.5951303872691,-9829,4160,-15314,18666.37182207619
1735563243801,-241,-88,954,987.8972618648156,-9883,4131,-12218,16248.64222019797
1735563243831,-241,-88,954,987.8972618648156,-9934,4125,-9114,14098.403349315837
1735563243862,-241,-88,954,987.8972618648156,-9972,4137,-6006,12354.253882772524
1735563243891,-211,-95,936,964.1794438796131,-9984,4161,-2881,11193.495343278613
1735563243921,-211,-95,936,964.1794438796131,-9979,4186,246,10824.21142624256
1735563243951,-211,-95,936,964.1794438796131,-9957,4204,3389,11326.993687647222
1735563243981,-217,-101,933,963.2128529042789,-9927,4210,6542,12612.18430724829
1735563244011,-217,-101,933,963.2128529042789,-9892,4202,9707,14482.206910550616
1735563244041,-217,-101,933,963.2128529042789,-9874,4185,12861,16745.609036401154
1735563244072,-217,-101,933,963.2128529042789,-9875,4164,16001,19258.4143168642
1735563244102,-191,-56,935,955.9508355558878,-9911,4144,-16857,19988.974611019945
1735563244132,-191,-56,935,955.9508355558878,-9964,4145,-13732,17465.11222408834
1735563244161,-191,-56,935,955.9508355558878,-9999,4164,-10598,15153.761942171323
1735563244191,-192,-69,1005,1025.4998781082327,-10001,4193,-7451,13157.456099109737
1735563244222,-192,-69,1005,1025.4998781082327,-9973,4215,-4288,11645.338037171785
1735563244251,-192,-69,1005,1025.4998781082327,-9937,4223,-1114,10854.431998036562
1735563244281,-222,-100,978,1007.8531639083146,-9922,4217,2042,10972.644940942908
1735563244311,-222,-100,978,1007.8531639083146,-9900,4203,5194,11943.736643111317
1735563244341,-222,-100,978,1007.8531639083146,-9896,4184,8334,13597.508154069996
1735563244371,-222,-100,978,1007.8531639083146,-9908,4168,11461,15712.899445996592
1735563244402,-169,-68,954,971.2368403226887,-9972,4166,14553,18126.945385254516
1735563244432,-169,-68,954,971.2368403226887,-10035,4192,17634,20717.916039022843
1735563244461,-169,-68,954,971.2368403226887,-10059,4233,-15259,18760.033342187853
1735563244491,-189,-71,938,959.4821519965861,-10021,4273,-12103,16283.782699360736
1735563244522,-189,-71,938,959.4821519965861,-9949,4288,-8907,14025.127236499497
1735563244552,-189,-71,938,959.4821519965861,-9889,4276,-5711,12193.933655715862
1735563244581,-173,-127,1028,1050.162844515078,-9858,4248,-2533,11029.132196143086
1735563244612,-173,-127,1028,1050.162844515078,-9829,4208,599,10708.655657924575
1735563244641,-173,-127,1028,1050.162844515078,-9839,4166,3702,11307.797354038496
1735563244671,-173,-127,1028,1050.162844515078,-9881,4129,6778,12673.755796921449
1735563244701,-201,-40,913,935.718974906462,-9978,4111,9853,14613.09050132791
1735563244731,-201,-40,913,935.718974906462,-10070,4137,12945,16914.27485882856
1735563244761,-201,-40,913,935.718974906462,-10113,4188,16064,19438.72961384051
1735563244791,-238,-78,1039,1068.7604970244736,-10065,4248,-16750,19997.80560461572
1735563244821,-238,-78,1039,1068.7604970244736,-9944,4271,-13499,17301.664024018035
1735563244851,-238,-78,1039,1068.7604970244736,-9845,4249,-10251,14834.454051295585
1735563244881,-141,-150,994,1015.09457687449,-9793,4198,-7029,12764.516990470105
1735563244911,-141,-150,994,1015.09457687449,-9805,4134,-3950,11350.351580457762
1735563244941,-141,-150,994,1015.09457687449,-9862,4086,-909,10713.576480335594
1735563244971,-194,-47,933,954.1142489241003,-9949,4059,2097,10947.853259886158
1735563245001,-194,-47,933,954.1142489241003,-10096,4078,5134,12038.158330907598
1735563245031,-194,-47,933,954.1142489241003,-10182,4143,8202,13715.333645230801
1735563245061,-194,-47,933,954.1142489241003,-10193,4224,11322,15809.083116993217
1735563245091,-182,-100,954,976.3401046766439,-10129,4306,14468,18178.59458264032
1735563245121,-182,-100,954,976.3401046766439,-10014,4345,17652,20754.573592343448
1735563245151,-182,-100,954,976.3401046766439,-9906,4339,-15152,18615.55427592743
1735563245181,-140,-90,948,962.4988311681215,-9833,4295,-11962,16069.360846032427
1735563245211,-140,-90,948,962.4988311681215,-9848,4232,-8829,13886.83437648768
1735563245241,-140,-90,948,962.4988311681215,-9905,4186,-5734,12186.483372983364
1735563245271,-205,8,933,955.2894849206705,-9987,4161,-2662,11141.828126479066
1735563245301,-205,8,933,955.2894849206705,-10104,4175,474,10942.856893882878
1735563245331,-205,8,933,955.2894849206705,-10172,4227,3637,11600.210429125844
1735563245362,-205,8,933,955.2894849206705,-10178,4292,6843,12993.829189272883
1735563245392,-163,-69,923,939.8185995180133,-10082,4348,10056,14888.752936361057
1735563245422,-163,-69,923,939.8185995180133,-9968,4355,13274,17161.76345833959
1735563245451,-163,-69,923,939.8185995180133,-9886,4322,16479,19696.957150788545
1735563245481,-229,-69,1008,1035.9855211343447,-9851,4257,-16346,19553.92456771786
1735563245511,-229,-69,1008,1035.9855211343447,-9854,4183,-13184,16982.834304084816
1735563245541,-229,-69,1008,1035.9855211343447,-9911,4124,-10068,14717.334031678427
1735563245571,-294,-25,992,1034.951689693775,-9986,4095,-6965,12845.249939179852
1735563245601,-294,-25,992,1034.951689693775,-10029,4100,-3766,11470.553474004644
1735563245632,-294,-25,992,1034.951689693775,-10054,4118,-558,10878.979915414864
1735563245662,-294,-25,992,1034.951689693775,-10056,4142,2665,11197.389204631587
1735563245691,-235,-22,972,1000.2464696263617,-10068,4176,5844,12367.535566959166
1735563245752,-235,-22,972,1000.2464696263617,-10065,4211,9024,14158.718939226104
1735563245752,-235,-22,972,1000.2464696263617,-10036,4237,12226,16375.241708139762
1735563245781,-307,-83,1036,1083.713061654237,-9960,4250,15465,18879.362409784924
1735563245811,-307,-83,1036,1083.713061654237,-9837,4220,-17249,20300.319455614484
1735563245841,-307,-83,1036,1083.713061654237,-9780,4155,-14003,17578.294399628197
1735563245872,-199,-72,956,979.1429926216089,-9789,4081,-10798,15135.253086750812
1735563245902,-199,-72,956,979.1429926216089,-9930,4033,-7741,13220.933023050982
1735563245931,-199,-72,956,979.1429926216089,-10062,4039,-4694,11814.863562479255
1735563245961,-199,-72,956,979.1429926216089,-10147,4087,-1626,11059.342385512802
1735563245991,-232,-65,994,1022.7829681804444,-10155,4169,1495,11078.791044152787
1735563246022,-232,-65,994,1022.7829681804444,-10092,4237,4683,11905.088071912782
1735563246051,-232,-65,994,1022.7829681804444,-9997,4270,7906,13441.642198779136
1735563246081,-225,-132,916,952.4206003651958,-9869,4281,11158,15499.196301744165
1735563246111,-225,-132,916,952.4206003651958,-9736,4241,14401,17893.143323630982
1735563246141,-225,-132,916,952.4206003651958,-9678,4166,17599,20512.046241172528
1735563246172,-193,-114,915,942.0562615895083,-9710,4079,-15274,18553.097234693727
1735563246202,-193,-114,915,942.0562615895083,-9858,4016,-12260,16236.25634190345
1735563246231,-193,-114,915,942.0562615895083,-10004,4013,-9263,14212.225511861257
1735563246261,-193,-114,915,942.0562615895083,-10107,4058,-6249,12556.624307511951
1735563246291,-140,-54,875,887.7730565859723,-10208,4138,-3241,11481.741549085662
1735563246321,-140,-54,875,887.7730565859723,-10243,4245,-190,11089.417207409955
1735563246351,-140,-54,875,887.7730565859723,-10187,4344,2933,11456.342959251875
1735563246381,-197,-103,963,988.3253512887343,-10015,4411,6161,12558.465949310847
1735563246411,-197,-103,963,988.3253512887343,-9784,4395,9463,14303.532780400792
1735563246441,-197,-103,963,988.3253512887343,-9644,4306,12717,16530.89413794668
1735563246472,-230,-209,1021,1067.2497364722092,-9624,4193,15892,19046.21455827903
1735563246502,-230,-209,1021,1067.2497364722092,-9592,4079,-16965,19911.201118968187
1735563246562,-230,-209,1021,1067.2497364722092,-9654,3977,-13896,17381.457389988907
1735563246562,-230,-209,1021,1067.2497364722092,-9768,3915,-10877,15134.40378739777
1735563246592,-285,-123,1026,1071.9281692352338,-9934,3905,-7835,13240.86877814292
1735563246622,-285,-123,1026,1071.9281692352338,-10062,3960,-4755,11812.51323808782
1735563246651,-285,-123,1026,1071.9281692352338,-10109,4048,-1626,11010.089055044014
1735563246681,-245,-37,945,976.9437035981142,-10124,4139,1536,11044.726931889263
1735563246711,-245,-37,945,976.9437035981142,-10128,4236,4729,11953.389519295353
1735563246741,-245,-37,945,976.9437035981142,-10055,4315,7986,13546.159824835968
1735563246771,-184,-99,909,932.7046692281539,-9942,4354,11278,15652.283028363627
1735563246802,-184,-99,909,932.7046692281539,-9835,4343,14489,18042.172679586016
1735563246862,-184,-99,909,932.7046692281539,-9773,4298,17676,20650.068014415836
1735563246862,-184,-99,909,932.7046692281539,-9767,4242,-15175,18538.324573704063
1735563246892,-221,-101,965,995.1216006096944,-9777,4193,-12009,16043.287038509285
1735563246921,-221,-101,965,995.1216006096944,-9812,4155,-8858,13856.53394612087
1735563246951,-221,-101,965,995.1216006096944,-9864,4136,-5726,12132.273818209016
1735563246981,-247,-89,927,963.4619867955352,-9909,4141,-2597,11049.007693001213
1735563247011,-247,-89,927,963.4619867955352,-9928,4161,556,10779.064940893528
1735563247041,-247,-89,927,963.4619867955352,-9926,4183,3725,11397.306260691603
1735563247071,-208,-101,898,927.2912163932106,-9903,4198,6905,12781.691515601524
1735563247102,-208,-101,898,927.2912163932106,-9889,4197,10038,14702.672342128828
1735563247131,-208,-101,898,927.2912163932106,-9881,4191,13168,16988.080115186647
1735563247161,-208,-101,898,927.2912163932106,-9879,4184,16293,19508.00722780264
1735563247191,-206,-144,977,1008.811677172702,-9829,4166,-16561,19703.59150002862
1735563247221,-206,-144,977,1008.811677172702,-9801,4130,-13438,17137.571152295764
1735563247251,-206,-144,977,1008.811677172702,-9808,4092,-10340,14827.573233675159
1735563247281,-251,-94,928,965.9301216961815,-9845,4066,-7222,12869.09728768883
1735563247311,-251,-94,928,965.9301216961815,-9892,4066,-4065,11441.514104348253
1735563247341,-251,-94,928,965.9301216961815,-9923,4081,-901,10767.185844035572
1735563247371,-271,-83,946,987.5454419924179,-9943,4103,2256,10990.331842123785
1735563247402,-271,-83,946,987.5454419924179,-9952,4130,5415,12059.080769279224
1735563247431,-271,-83,946,987.5454419924179,-9937,4155,8593,13778.52107448401
1735563247461,-271,-83,946,987.5454419924179,-9909,4169,11784,15950.90900231081
1735563247491,-232,-137,986,1022.1492063294869,-9878,4184,14968,18415.2589989932
1735563247521,-232,-137,986,1022.1492063294869,-9844,4182,-17858,20815.89834717685
1735563247551,-232,-137,986,1022.1492063294869,-9822,4169,-14692,18157.838775581196
1735563247581,-236,-101,1013,1045.019617040752,-9846,4147,-11539,15725.45217155933
1735563247611,-236,-101,1013,1045.019617040752,-9902,4142,-8394,13625.89461283185
1735563247641,-236,-101,1013,1045.019617040752,-9944,4157,-5245,11986.401044517073
1735563247671,-267,-84,1000,1038.4339170115738,-9951,4181,-2077,10991.682810197899
1735563247701,-267,-84,1000,1038.4339170115738,-9911,4196,1143,10823.15970500297
1735563247731,-267,-84,1000,1038.4339170115738,-9872,4195,4369,11581.993351750813
1735563247791,-267,-84,1000,1038.4339170115738,-9848,4181,7589,13117.041815897363
1735563247792,-215,-104,909,939.8521160267716,-9845,4157,10758,15163.747491962533
1735563247822,-215,-104,909,939.8521160267716,-9868,4138,13892,17535.339517671164
1735563247851,-215,-104,909,939.8521160267716,-9899,4130,17017,20115.302384006063
1735563247881,-241,-76,1000,1031.434438052172,-9917,4131,-15847,19145.220265121006
1735563247911,-241,-76,1000,1031.434438052172,-9926,4140,-12687,16632.04873128984
1735563247972,-241,-76,1000,1031.434438052172,-9925,4150,-9520,14365.184474972815
1735563247973,-263,-63,946,983.8973523696463,-9919,4152,-6359,12492.499589753845
1735563248002,-263,-63,946,983.8973523696463,-9913,4141,-3198,11209.043402538862
1735563248032,-263,-63,946,983.8973523696463,-9917,4131,-45,10743.09429354504
1735563248061,-263,-63,946,983.8973523696463,-9927,4124,3101,11187.89104344514
1735563248091,-263,-122,936,979.8719304072343,-9872,4128,6292,12413.139490072606
1735563248122,-263,-122,936,979.8719304072343,-9820,4107,9474,14249.790349334968
1735563248151,-263,-122,936,979.8719304072343,-9801,4072,12636,16501.796296161214
1735563248181,-209,-171,1014,1049.341698399525,-9825,4043,15737,18987.618149731155
1735563248212,-209,-171,1014,1049.341698399525,-9868,4025,-17224,20254.48654002367
1735563248241,-209,-171,1014,1049.341698399525,-9910,4025,-14191,17770.571347033274
1735563248272,-259,-130,957,999.9149963871929,-9945,4043,-11147,15475.932379020012
1735563248302,-259,-130,957,999.9149963871929,-9959,4084,-8015,13420.16996911738
1735563248332,-259,-130,957,999.9149963871929,-9938,4123,-4856,11804.393631186653
1735563248361,-259,-130,957,999.9149963871929,-9894,4147,-1675,10857.921992720338
1735563248391,-259,-130,896,941.6989964951646,-9858,4165,1472,10802.507718118048
1735563248422,-259,-130,896,941.6989964951646,-9822,4167,4627,11629.475568571439
1735563248451,-259,-130,896,941.6989964951646,-9795,4156,7777,13179.381244959872
1735563248481,-268,-138,985,1030.093685059762,-9783,4140,10936,15246.074412779179
1735563248511,-268,-138,985,1030.093685059762,-9781,4121,14098,17646.648576996144
1735563248540,-268,-138,985,1030.093685059762,-9793,4106,17247,20253.91552268351
1735563248572,-254,-93,955,992.5673780655901,-9812,4096,-15602,18880.54458960334
1735563248602,-254,-93,955,992.5673780655901,-9873,4101,-12455,16414.05967455949
1735563248631,-254,-93,955,992.5673780655901,-9911,4126,-9296,14200.965213674737
1735563248661,-289,-146,964,1016.9233009426031,-9913,4156,-6123,12370.571288343963
1735563248691,-289,-146,964,1016.9233009426031,-9823,4163,-2909,11058.217713537748
1735563248722,-289,-146,964,1016.9233009426031,-9757,4137,295,10601.926381559155
1735563248751,-289,-146,964,1016.9233009426031,-9733,4095,3474,11116.158958921018
1735563248781,-271,-113,992,1034.5404777001236,-9793,4049,6609,12489.040435517854
1735563248811,-271,-113,992,1034.5404777001236,-9876,4038,9720,14433.2678212524
1735563248841,-271,-113,992,1034.5404777001236,-9941,4056,12836,16734.32140841092
1735563248873,-304,-120,895,952.8069059363497,-9972,4094,15970,19267.654761283222
1735563248902,-304,-120,895,952.8069059363497,-9933,4134,-16830,19975.068084990347
1735563248932,-304,-120,895,952.8069059363497,-9877,4153,-13611,17322.293699161204
1735563248962,-279,-134,1013,1059.2289648607614,-9826,4150,-10388,14889.033548219306
1735563248991,-279,-134,1013,1059.2289648607614,-9803,4130,-7202,12846.186710460035
1735563249022,-279,-134,1013,1059.2289648607614,-9803,4106,-4031,11366.925969671836
1735563249082,-279,-134,1013,1059.2289648607614,-9821,4087,-875,10673.389105621512
1735563249082,-258,-110,973,1012.6169068310088,-9874,4074,2252,10916.265661846088
1735563249111,-258,-110,973,1012.6169068310088,-9929,4086,5373,12006.230299307106
1735563249141,-258,-110,973,1012.6169068310088,-9958,4113,8508,13728.24085598734
1735563249172,-296,-93,1008,1054.670090597055,-9946,4148,11690,15899.211301193529
1735563249202,-296,-93,1008,1054.670090597055,-9896,4173,14927,18389.129234414555
1735563249231,-296,-93,1008,1054.670090597055,-9845,4176,-17826,20787.7193794798
1735563249262,-296,-82,935,984.1569996702762,-9808,4158,-14589,18064.460938538963
1735563249292,-296,-82,935,984.1569996702762,-9808,4131,-11377,15578.772544716096
1735563249322,-296,-82,935,984.1569996702762,-9829,4109,-8182,13432.73040003409
1735563249351,-296,-82,935,984.1569996702762,-9859,4099,-4997,11788.625492397321
1735563249381,-303,-113,1000,1050.989057983003,-9867,4099,-1810,10836.770275317273
1735563249411,-303,-113,1000,1050.989057983003,-9864,4098,1379,10770.03904356897
1735563249441,-303,-113,1000,1050.989057983003,-9863,4096,4568,11615.61918280726
1735563249472,-321,-100,940,998.3190872661906,-9868,4092,7763,13205.53130320776
1735563249502,-321,-100,940,998.3190872661906,-9874,4090,10971,15316.227244331418
1735563249531,-321,-100,940,998.3190872661906,-9879,4091,14178,17758.001182565564
1735563249561,-265,-38,957,993.7394024592162,-9887,4089,17375,20404.98260229594
1735563249591,-265,-38,957,993.7394024592162,-9991,4102,-15513,18902.371650139565
1735563249622,-265,-38,957,993.7394024592162,-10052,4147,-12380,16477.40006797189
1735563249651,-265,-38,957,993.7394024592162,-10060,4203,-9211,14272.747808323385
1735563249681,-272,-100,929,973.1520949985156,-9941,4244,-5967,12346.663759898865
1735563249711,-272,-100,929,973.1520949985156,-9816,4229,-2713,11027.178514923933
1735563249741,-272,-100,929,973.1520949985156,-9745,4175,511,10613.989400786115
1735563249772,-293,-98,977,1024.6862934576611,-9731,4105,3699,11190.441769653244
1735563249802,-293,-98,977,1024.6862934576611,-9765,4040,6856,12596.886956704819
1735563249831,-293,-98,977,1024.6862934576611,-9835,3999,9980,14571.191646533238
1735563249861,-290,-121,928,979.7576230884861,-9912,3990,13088,16895.667728740405
1735563249891,-290,-121,928,979.7576230884861,-9957,4003,16192,19425.414332775505
1735563249922,-290,-121,928,979.7576230884861,-9977,4029,-16689,19856.890265094382
1735563249951,-290,-121,928,979.7576230884861,-9972,4057,-13552,17307.707444950647
1735563249981,-257,-90,961,998.8343205957633,-9971,4075,-10414,14982.585290930267
1735563250011,-257,-90,961,998.8343205957633,-9971,4094,-7275,13004.126345125997
1735563250042,-257,-90,961,998.8343205957633,-9956,4109,-4125,11533.492185803916
1735563250072,-334,-91,980,1039.3445049645472,-9902,4114,-925,10762.445121811306
1735563250102,-334,-91,980,1039.3445049645472,-9821,4091,2334,10892.009823719403
1735563250131,-334,-91,980,1039.3445049645472,-9785,4045,5567,11962.430313276645
1735563250192,-268,-105,984,1025.2341196039079,-9799,3996,8761,13738.396485762085
1735563250193,-268,-105,984,1025.2341196039079,-9885,3965,11839,15924.709447898884
1735563250222,-268,-105,984,1025.2341196039079,-9966,3967,14910,18367.535082313032
1735563250251,-268,-105,984,1025.2341196039079,-10020,3997,17993,20979.14340481994
1735563250281,-269,-119,975,1018.4041437464795,-10042,4041,-14913,18427.398459902037
1735563250312,-269,-119,975,1018.4041437464795,-10022,4083,-11791,16004.344847571861
1735563250341,-269,-119,975,1018.4041437464795,-9978,4111,-8646,13828.019417111042
1735563250372,-293,-89,950,998.1332576364741,-9915,4129,-5447,12042.66062795095
1735563250402,-293,-89,950,998.1332576364741,-9853,4131,-2208,10909.721994624795
1735563250431,-293,-89,950,998.1332576364741,-9810,4110,1023,10685.257554219272
1735563250461,-282,-77,955,998.7382039353456,-9814,4076,4233,11438.822535558456
1735563250491,-282,-77,955,998.7382039353456,-9889,4053,7407,13003.183417917322
1735563250522,-282,-77,955,998.7382039353456,-9956,4060,10577,15082.389233805101
1735563250552,-282,-77,955,998.7382039353456,-9996,4088,13761,17492.76653362755
1735563250582,-291,-107,950,999.3147652266528,-9983,4120,16941,20090.599045324656
1735563250611,-291,-107,950,999.3147652266528,-9944,4136,-15859,19170.224646571045
1735563250641,-291,-107,950,999.3147652266528,-9905,4136,-12655,16594.111787016504
1735563250671,-250,-48,955,988.3465991240117,-9914,4121,-9461,14310.155764351413
1735563250702,-250,-48,955,988.3465991240117,-9981,4125,-6298,12502.031434930885
1735563250731,-250,-48,955,988.3465991240117,-10023,4150,-3123,11288.762465390084
1735563250761,-248,-89,964,999.3602953890054,-10042,4184,55,10878.908263240388
1735563250792,-248,-89,964,999.3602953890054,-10018,4211,3220,11334.074510078006
1735563250822,-248,-89,964,999.3602953890054,-9982,4223,6398,12586.042149937366
1735563250852,-248,-89,964,999.3602953890054,-9947,4222,9579,14440.40629622311
1735563250882,-262,-45,943,979.7540507698858,-9964,4207,12758,16725.630302024496
1735563250911,-262,-45,943,979.7540507698858,-9992,4205,15938,19275.42303037731
1735563250941,-262,-45,943,979.7540507698858,-10012,4212,-16878,20071.07301566112
1735563250972,-296,-81,904,954.6690526040949,-9972,4234,-13640,17418.873097878633
1735563251002,-296,-81,904,954.6690526040949,-9883,4230,-10352,14924.15803320241
1735563251031,-296,-81,904,954.6690526040949,-9827,4197,-7081,12818.942975144246
1735563251061,-276,-35,921,962.1029050990336,-9819,4146,-3846,11331.098490437722
1735563251092,-276,-35,921,962.1029050990336,-9909,4103,-681,10746.471560470442
1735563251122,-276,-35,921,962.1029050990336,-10001,4100,2471,11087.64366310534
1735563251152,-276,-35,921,962.1029050990336,-10065,4128,5634,12250.982205521319
1735563251181,-272,-144,968,1015.748000244155,-10020,4168,8808,13976.891213714158
1735563251212,-272,-144,968,1015.748000244155,-9940,4172,11995,16127.281513013902
1735563251241,-272,-144,968,1015.748000244155,-9882,4149,15173,18576.545803781715
1735563251302,-289,-46,977,1019.8852876671964,-9884,4101,-17662,20650.857149280753
1735563251302,-289,-46,977,1019.8852876671964,-9960,4074,-14510,18064.860254095518
1735563251332,-289,-46,977,1019.8852876671964,-10031,4077,-11364,15696.60428245549
1735563251361,-197,-106,1059,1082.370546532009,-10062,4108,-8192,13609.863041191855
1735563251391,-197,-106,1059,1082.370546532009,-10055,4139,-5075,11999.582117723934
1735563251422,-197,-106,1059,1082.370546532009,-10028,4161,-1939,11028.799844044683
1735563251451,-197,-106,1059,1082.370546532009,-9993,4169,1205,10894.61495418723
1735563251481,-231,-48,928,957.522323499562,-9982,4158,4356,11657.788126398593
1735563251511,-231,-48,928,957.522323499562,-9987,4151,7513,13168.756167535337
1735563251541,-231,-48,928,957.522323499562,-9997,4146,10666,15195.159788564251
1735563251572,-243,-65,981,1012.7363921574064,-10003,4150,13816,17554.61093274357
1735563251602,-243,-65,981,1012.7363921574064,-9993,4153,16975,20131.02289999194
1735563251632,-243,-65,981,1012.7363921574064,-9983,4153,-15865,19199.112557615783
1735563251661,-229,-88,932,963.7473735372771,-9979,4150,-12702,16677.64206954928
1735563251691,-229,-88,932,963.7473735372771,-9976,4146,-9550,14419.167521046422
1735563251722,-229,-88,932,963.7473735372771,-9977,4140,-6402,12556.501622665446
1735563251751,-229,-88,932,963.7473735372771,-9982,4137,-3257,11285.527989420787
1735563251781,-242,-16,930,961.1035324042879,-10022,4138,-101,10843.142026184109
1735563251812,-242,-16,930,961.1035324042879,-10059,4160,3069,11309.634918952954
1735563251841,-242,-16,930,961.1035324042879,-10068,4190,6259,12573.615430734311
1735563251872,-205,-102,893,921.8882795653712,-10034,4221,9447,14413.320436318621
1735563251902,-205,-102,893,921.8882795653712,-9965,4226,12614,16621.470963786567
1735563251932,-205,-102,893,921.8882795653712,-9915,4206,15775,19101.00222501427
1735563251962,-257,-59,888,926.3228378918443,-9905,4169,-17085,20183.825479824187
1735563251992,-257,-59,888,926.3228378918443,-9939,4136,-13913,17591.52597133063
1735563252022,-257,-59,888,926.3228378918443,-9986,4121,-10757,15245.192225747762
1735563252051,-257,-59,888,926.3228378918443,-10029,4125,-7603,13243.944842832894
1735563252081,-231,-39,913,942.5767873229215,-10056,4140,-4417,11737.658412136554
1735563252111,-231,-39,913,942.5767873229215,-10073,4164,-1227,10968.58030922872
1735563252141,-231,-39,913,942.5767873229215,-10065,4190,1981,11080.825149780138
1735563252172,-239,-55,941,972.4335452872859,-10043,4200,5187,12058.474945033473
1735563252202,-239,-55,941,972.4335452872859,-10017,4193,8387,13720.907659480841
1735563252262,-239,-55,941,972.4335452872859,-10004,4180,11580,15863.442753702615
1735563252263,-251,-96,1034,1068.3505978844212,-9998,4168,14771,18317.05950746462
1735563252292,-251,-96,1034,1068.3505978844212,-9948,4153,17987,20970.032951810066
1735563252321,-251,-96,1034,1068.3505978844212,-9926,4124,-14813,18301.85293897861
1735563252351,-258,-26,1001,1034.0411016976066,-9936,4092,-11639,15840.924247025487
1735563252381,-258,-26,1001,1034.0411016976066,-10020,4080,-8484,13748.638332576793
1735563252411,-258,-26,1001,1034.0411016976066,-10084,4099,-5323,12117.06177255856
1735563252441,-258,-26,1001,1034.0411016976066,-10114,4136,-2142,11134.974449903331
1735563252472,-282,-38,992,1032.0038759617137,-10117,4175,1057,10995.524680523436
1735563252502,-282,-38,992,1032.0038759617137,-10081,4204,4292,11735.477876933686
1735563252532,-282,-38,992,1032.0038759617137,-10035,4215,7540,13240.810020538775
1735563252592,-250,-17,883,917.8660032924196,-9993,4208,10786,15293.956616912446
1735563252592,-250,-17,883,917.8660032924196,-10006,4192,13976,17692.412950188565
1735563252622,-250,-17,883,917.8660032924196,-10027,4184,17158,20308.706236488822
1735563252651,-308,-76,945,996.8274675188279,-10042,4186,-15651,19060.90661537378
1735563252681,-308,-76,945,996.8274675188279,-9954,4179,-12374,16421.389496629083
1735563252711,-308,-76,945,996.8274675188279,-9902,4142,-9116,14082.159777534127
1735563252742,-308,-76,945,996.8274675188279,-9895,4096,-5889,12221.643179212851
1735563252772,-221,-35,922,948.7623516982533,-9995,4051,-2768,11134.291625424583
1735563252802,-221,-35,922,948.7623516982533,-10121,4057,308,10908.196642891986
1735563252831,-221,-35,922,948.7623516982533,-10204,4103,3406,11513.342737884597
1735563252861,-258,-37,919,955.2455181784419,-10208,4170,6554,12827.590576565812
1735563252891,-258,-37,919,955.2455181784419,-10137,4223,9771,14699.147560317911
1735563252922,-258,-37,919,955.2455181784419,-10049,4242,13014,16980.61132586221
1735563252951,-256,-32,984,1017.2590623828328,-9973,4226,16263,19539.830449622637
1735563252981,-256,-32,984,1017.2590623828328,-9938,4189,-16498,19710.2909415361
1735563253018,-256,-32,984,1017.2590623828328,-9944,4147,-13289,17107.84223682227
1735563253041,-256,-32,984,1017.2590623828328,-9979,4116,-10105,14786.24096922541
1735563253072,-280,-84,969,1012.1348724354872,-9978,4100,-6927,12820.05510908592
1735563253102,-280,-84,969,1012.1348724354872,-9974,4081,-3752,11411.079747333291
1735563253132,-280,-84,969,1012.1348724354872,-9986,4064,-590,10797.425248641455
1735563253161,-240,-62,942,974.0677594500293,-10040,4053,2544,11122.065680439044
1735563253191,-240,-62,942,974.0677594500293,-10120,4070,5650,12284.20937626838
1735563253222,-240,-62,942,974.0677594500293,-10162,4111,8777,14042.873423911504
1735563253251,-221,-1,935,960.7637586836839,-10161,4157,11934,16215.638316144079
1735563253281,-221,-1,935,960.7637586836839,-10187,4206,15099,18693.453560003298
1735563253311,-221,-1,935,960.7637586836839,-10167,4253,-17699,20849.712204248768
1735563253342,-221,-1,935,960.7637586836839,-10117,4285,-14471,18169.335568479106
1735563253372,-228,-72,944,973.8090161833582,-9994,4295,-11224,15630.266696381095
1735563253401,-228,-72,944,973.8090161833582,-9890,4254,-7991,13407.635772200854
1735563253432,-228,-72,944,973.8090161833582,-9853,4187,-4800,11732.543543494736
1735563253461,-197,-37,952,972.8730646903531,-9912,4118,-1674,10863.146137284539
1735563253492,-197,-37,952,972.8730646903531,-10039,4091,1396,10930.078590751304
1735563253522,-197,-37,952,972.8730646903531,-10145,4111,4467,11822.666154467866
1735563253551,-256,-62,977,1011.8838866194085,-10200,4165,7567,13365.87872158056
1735563253582,-256,-62,977,1011.8838866194085,-10128,4225,10780,15382.95839557528
1735563253611,-256,-62,977,1011.8838866194085,-10032,4249,14022,17757.01295263367
1735563253641,-256,-62,977,1011.8838866194085,-9950,4236,17266,20373.044740538906
1735563253672,-236,-92,954,987.0542031722473,-9911,4198,-15537,18901.044785937098
1735563253702,-236,-92,954,987.0542031722473,-9913,4153,-12379,16393.737188328963
1735563253731,-236,-92,954,987.0542031722473,-9947,4117,-9249,14192.83266300283
1735563253761,-229,-47,942,970.5740569374394,-10030,4094,-6146,12455.322235895786
1735563253791,-229,-47,942,970.5740569374394,-10135,4109,-3053,11354.422706593234
1735563253822,-229,-47,942,970.5740569374394,-10195,4157,63,11010.115485316219
1735563253851,-247,-75,985,1018.2627362326483,-10194,4217,3222,11492.6937225352
1735563253882,-247,-75,985,1018.2627362326483,-10101,4257,6449,12717.776967693686
1735563253912,-247,-75,985,1018.2627362326483,-10007,4258,9689,14565.278370151393
1735563253941,-247,-75,985,1018.2627362326483,-9943,4228,12916,16839.307853946968
1735563253972,-235,-45,942,971.9125475062044,-9946,4184,16105,19385.556401609938
1735563254002,-235,-45,942,971.9125475062044,-9990,4153,-16735,19927.56216901606
1735563254032,-235,-45,942,971.9125475062044,-10042,4143,-13590,17398.112340136213
1735563254061,-297,-63,1041,1084.3703241974117,-10062,4157,-10404,15058.80835258886
1735563254091,-297,-63,1041,1084.3703241974117,-10024,4171,-7151,13000.562218611933
1735563254120,-297,-63,1041,1084.3703241974117,-9989,4169,-3895,11503.551929730225
1735563254152,-240,-83,954,987.220846619438,-9965,4153,-649,10815.259358887331
1735563254182,-240,-83,954,987.220846619438,-9985,4128,2510,11092.371658035985
1735563254211,-240,-83,954,987.220846619438,-10017,4114,5656,12217.021772919945
1735563254241,-240,-83,954,987.220846619438,-10049,4114,8798,13975.414162020386
1735563254272,-284,-5,966,1006.8947313398754,-10092,4115,11975,16192.04477513572
1735563254302,-284,-5,966,1006.8947313398754,-10125,4137,15178,18708.342470673342
1735563254362,-284,-5,966,1006.8947313398754,-10130,4166,-17599,20729.140286080365
1735563254363,-242,-41,941,972.484447176406,-10096,4188,-14382,18064.066098196163
1735563254392,-242,-41,941,972.484447176406,-10054,4187,-11193,15617.20634428578
1735563254422,-242,-41,941,972.484447176406,-10027,4172,-8012,13495.868145473265
1735563254452,-236,-46,942,972.2016251786457,-10007,4154,-4828,11861.928553148515
1735563254481,-236,-46,942,972.2016251786457,-9985,4133,-1636,10929.703106672203
1735563254512,-236,-46,942,972.2016251786457,-9986,4108,1540,10907.220544208318
1735563254541,-236,-46,942,972.2016251786457,-10005,4089,4701,11786.405177152192
1735563254572,-223,-46,966,992.4721658565544,-10063,4080,7838,13391.960760097829
1735563254631,-223,-46,966,992.4721658565544,-10112,4093,10974,15473.650797403954
1735563254632,-223,-46,966,992.4721658565544,-10134,4120,14125,17865.83278215712
1735563254661,-215,-72,980,1005.8871706110979,-10146,4150,17261,20447.638910152928
1735563254692,-215,-72,980,1005.8871706110979,-10133,4175,-15605,19068.936493679976
1735563254722,-215,-72,980,1005.8871706110979,-10105,4191,-12458,16579.423090083685
1735563254751,-260,-41,948,983.862287111362,-10073,4199,-9298,14337.005754340758
1735563254781,-260,-41,948,983.862287111362,-10030,4205,-6068,12454.057531583832
1735563254812,-260,-41,948,983.862287111362,-9997,4196,-2839,11207.423700387168
1735563254841,-260,-41,948,983.862287111362,-9981,4178,377,10826.734225979688
1735563254872,-259,-59,971,1006.679194182536,-10013,4155,3544,11405.442998849278
1735563254902,-259,-59,971,1006.679194182536,-10048,4145,6699,12767.925829985072
1735563254931,-259,-59,971,1006.679194182536,-10079,4149,9853,14692.925202286984
1735563254962,-229,-35,926,954.5375843831399,-10104,4166,13018,16997.490873655443
1735563255022,-229,-35,926,954.5375843831399,-10129,4196,16183,19547.187674957233
1735563255023,-229,-35,926,954.5375843831399,-10123,4227,-16629,19921.503432221172
1735563255052,-204,0,913,935.5132281266791,-10091,4252,-13416,17317.52987582236
1735563255082,-204,0,913,935.5132281266791,-10088,4270,-10206,14972.07667626639
1735563255111,-204,0,913,935.5132281266791,-10072,4284,-6984,12983.608743334806
1735563255141,-204,0,913,935.5132281266791,-10050,4290,-3755,11554.506696523224
1735563255172,-260,-72,961,998.1507902115792,-9938,4294,-464,10835.939091744656
1735563255202,-260,-72,961,998.1507902115792,-9833,4249,2828,11078.784861165957
1735563255232,-260,-72,961,998.1507902115792,-9799,4178,6076,12263.517480723058
1735563255261,-187,-43,930,949.5883318575476,-9866,4103,9226,14117.069136332797
1735563255292,-187,-43,930,949.5883318575476,-10016,4072,12278,16360.034352042174
1735563255322,-187,-43,930,949.5883318575476,-10142,4095,15331,18832.651167586577
1735563255351,-263,-45,888,927.2205778562078,-10218,4156,-17598,20769.435813232867
1735563255381,-263,-45,888,927.2205778562078,-10181,4229,-14418,18149.818897168094
1735563255411,-263,-45,888,927.2205778562078,-10099,4275,-11195,15671.421473497547
1735563255441,-263,-45,888,927.2205778562078,-10007,4284,-7954,13481.795911524547
1735563255472,-247,-73,938,972.7188699722033,-9924,4269,-4721,11789.74037033895
1735563255502,-247,-73,938,972.7188699722033,-9879,4226,-1519,10851.777642395738
1735563255532,-247,-73,938,972.7188699722033,-9881,4177,1649,10853.6026737669
1735563255562,-278,-94,949,993.3383109494972,-9894,4140,4815,11756.490165010984
1735563255592,-278,-94,949,993.3383109494972,-9901,4108,7992,13370.771443712587
1735563255622,-278,-94,949,993.3383109494972,-9930,4085,11150,15479.490463190317
1735563255652,-262,-68,907,946.5289219036046,-9975,4078,14303,17908.280710330626
1735563255682,-262,-68,907,946.5289219036046,-10055,4100,17454,20556.14606389048
1735563255711,-262,-68,907,946.5289219036046,-10093,4144,-15369,18848.011725378357
1735563255741,-262,-68,907,946.5289219036046,-10084,4193,-12160,16344.231551223202
1735563255772,-209,-84,917,944.259498231286,-10057,4221,-8996,14138.179019944542
1735563255802,-209,-84,917,944.259498231286,-10027,4234,-5839,12351.57504126498
1735563255832,-209,-84,917,944.259498231286,-9996,4235,-2678,11181.543945269812
1735563255861,-290,-62,969,1013.3632122787959,-9964,4232,517,10837.823074769212
1735563255892,-290,-62,969,1013.3632122787959,-9916,4221,3774,11418.711529765518
1735563255922,-290,-62,969,1013.3632122787959,-9893,4195,7016,12833.30549780531
1735563255951,-270,-94,934,976.7763305895572,-9900,4165,10232,14834.117735814287
1735563255981,-270,-94,934,976.7763305895572,-9924,4135,13391,17172.736590304994
1735563256012,-270,-94,934,976.7763305895572,-9963,4119,16534,19738.30504374679
1735563256042,-267,-71,929,969.2115352181896,-9996,4119,-16316,19572.890256679006
1735563256072,-267,-71,929,969.2115352181896,-10026,4134,-13145,17041.175340920592
1735563256102,-267,-71,929,969.2115352181896,-10035,4156,-9959,14736.188177408701
1735563256132,-267,-71,929,969.2115352181896,-10024,4177,-6759,12791.090102098413
1735563256161,-240,-94,970,1003.6612974504895,-9973,4187,-3543,11381.763791258365
1735563256191,-240,-94,970,1003.6612974504895,-9932,4177,-340,10779.960714214129
1735563256222,-240,-94,970,1003.6612974504895,-9912,4155,2850,11119.094792293121
1735563256251,-258,-80,923,961.7135748236062,-9923,4129,6018,12317.90948172619
1735563256281,-258,-80,923,961.7135748236062,-9961,4114,9181,14157.587294450987
1735563256312,-258,-80,923,961.7135748236062,-9998,4114,12340,16406.114713727926
1735563256341,-265,-37,922,960.0406241404579,-10021,4125,15507,18918.327489500756
1735563256372,-265,-37,922,960.0406241404579,-10054,4144,-17304,20437.320470159488
1735563256402,-265,-37,922,960.0406241404579,-10060,4172,-14099,17815.47038391072
1735563256432,-265,-37,922,960.0406241404579,-10044,4196,-10875,15386.811788021585
1735563256461,-261,-109,929,971.1040109071736,-9975,4202,-7671,13266.562101765476
1735563256491,-261,-109,929,971.1040109071736,-9910,4176,-4478,11649.015409037796
1735563256522,-261,-109,929,971.1040109071736,-9887,4133,-1312,10796.101240725746
1735563256552,-190,-64,927,948.4329180284708,-9907,4090,1831,10873.330216635564
1735563256582,-190,-64,927,948.4329180284708,-10044,4074,4889,11890.405081409128
1735563256612,-190,-64,927,948.4329180284708,-10148,4106,7956,13532.88867906627
1735563256642,-216,-22,948,972.5451146347916,-10204,4160,11043,15600.482845091687
1735563256672,-216,-22,948,972.5451146347916,-10232,4219,14174,17983.216091678372
1735563256702,-216,-22,948,972.5451146347916,-10205,4277,17348,20576.39079139002
1735563256732,-216,-22,948,972.5451146347916,-10142,4315,-15443,18972.76042119333
1735563256761,-265,-48,966,1002.8384715396593,-9993,4320,-12122,16293.106916730154
1735563256792,-265,-48,966,1002.8384715396593,-9875,4269,-8803,13900.819939845274
1735563256822,-265,-48,966,1002.8384715396593,-9838,4189,-5538,12041.736128980738
1735563256852,-205,14,914,936.8121476582165,-9916,4101,-2376,10990.479197923993
1735563256881,-205,14,914,936.8121476582165,-10094,4066,689,10903.940251120235
1735563256912,-205,14,914,936.8121476582165,-10242,4095,3758,11652.903200490426
1735563256942,-292,-44,933,978.6158592624585,-10308,4173,6873,13073.137419915694
1735563256973,-292,-44,933,978.6158592624585,-10159,4248,10168,14987.96213632794
1735563257002,-292,-44,933,978.6158592624585,-10000,4256,13491,17323.989638648483
1735563257032,-292,-44,933,978.6158592624585,-9889,4208,16794,19938.355523964357
1735563257062,-228,-59,995,1022.4920537588544,-9871,4132,-15995,19244.482066296303
1735563257092,-228,-59,995,1022.4920537588544,-9927,4067,-12858,16745.56603999996
1735563257122,-228,-59,995,1022.4920537588544,-10012,4033,-9753,14547.379214140257
1735563257152,-257,-69,963,999.089085117038,-10108,4034,-6685,12772.393863328833
1735563257181,-257,-69,963,999.089085117038,-10165,4065,-3602,11525.009934919795
1735563257211,-257,-69,963,999.089085117038,-10182,4109,-494,10990.952688461542
1735563257241,-284,-83,938,983.5593525558079,-10158,4161,2665,11296.066129409832
1735563257272,-284,-83,938,983.5593525558079,-10058,4210,5935,12414.172908413995
1735563257302,-284,-83,938,983.5593525558079,-9953,4214,9223,14208.57959121882
1735563257331,-284,-83,938,983.5593525558079,-9880,4182,12497,16470.53529791913
1735563257361,-265,-41,915,953.4836128639023,-9897,4148,15699,19016.18032097929
1735563257391,-265,-41,915,953.4836128639023,-9946,4131,-17122,20227.480342346153
1735563257422,-265,-41,915,953.4836128639023,-9992,4135,-13947,17648.147154871527
1735563257451,-214,-87,914,942.7412158169388,-10029,4150,-10809,15317.892217926068
1735563257481,-214,-87,914,942.7412158169388,-10050,4169,-7710,13335.185075581066
1735563257511,-214,-87,914,942.7412158169388,-10051,4191,-4597,11820.29995389288
1735563257541,-227,-108,992,1023.3557543689291,-10031,4212,-1455,10976.289445891995
1735563257572,-227,-108,992,1023.3557543689291,-9969,4223,1744,10966.13997722079
1735563257602,-227,-108,992,1023.3557543689291,-9918,4211,4941,11853.806392884946
1735563257633,-227,-108,992,1023.3557543689291,-9894,4185,8123,13468.058137682656
1735563257662,-257,-92,953,991.3233579412926,-9895,4144,11281,15567.42502792289
1735563257692,-257,-92,953,991.3233579412926,-9923,4112,14427,17986.461630904505
1735563257722,-257,-92,953,991.3233579412926,-9966,4095,17557,20599.476449657646
1735563257751,-215,-146,992,1025.4779373540905,-10007,4099,-15323,18754.63086813494
1735563257781,-215,-146,992,1025.4779373540905,-10028,4111,-12223,16335.93688773313
1735563257811,-215,-146,992,1025.4779373540905,-10033,4128,-9113,14168.565276696156
1735563257841,-271,-75,971,1010.8941586536149,-10029,4139,-5996,12396.135607518981
1735563257872,-271,-75,971,1010.8941586536149,-10046,4151,-2817,11228.909386044577
1735563257902,-271,-75,971,1010.8941586536149,-10047,4166,370,10882.769178844143
1735563257932,-271,-75,971,1010.8941586536149,-10037,4179,3569,11443.040286567202
1735563257961,-226,-62,878,908.7375858849463,-10020,4190,6751,12787.982679062401
1735563257992,-226,-62,878,908.7375858849463,-10015,4196,9920,14707.584471965476
1735563258022,-226,-62,878,908.7375858849463,-10006,4199,13093,17005.24289741255
1735563258051,-319,-71,986,1038.7482851971406,-9971,4195,16294,19557.947284927424
1735563258081,-319,-71,986,1038.7482851971406,-9903,4171,-16445,19644.456597218465
1735563258111,-319,-71,986,1038.7482851971406,-9878,4128,-13211,17004.287371130846
1735563258141,-268,-53,954,992.3452020340502,-9894,4083,-10002,14649.30472752888
1735563258172,-268,-53,954,992.3452020340502,-9992,4057,-6865,12783.878050106705
1735563258202,-268,-53,954,992.3452020340502,-10077,4068,-3730,11489.44963869027
1735563258232,-268,-53,954,992.3452020340502,-10127,4106,-577,10942.956364712418
1735563258262,-300,-41,969,1015.2053979367919,-10117,4160,2636,11252.012486662108
1735563258292,-300,-41,969,1015.2053979367919,-10065,4200,5896,12397.864372544169
1735563258322,-300,-41,969,1015.2053979367919,-9998,4214,9175,14209.096558191164
1735563258352,-261,-69,997,1032.9041581870024,-9962,4197,12415,16461.727673607045
1735563258381,-261,-69,997,1032.9041581870024,-9965,4170,15596,18971.698421596313
1735563258411,-261,-69,997,1032.9041581870024,-9988,4149,-17240,20351.70619383053
1735563258442,-226,-99,979,1009.6127970662812,-10022,4137,-14085,17774.770828339813
1735563258472,-226,-99,979,1009.6127970662812,-10063,4132,-10975,15452.767324980985
1735563258502,-226,-99,979,1009.6127970662812,-10095,4141,-7862,13448.715552051803
1735563258532,-226,-99,979,1009.6127970662812,-10110,4159,-4739,11915.011623997687
1735563258562,-244,-52,884,918.5292591964613,-10113,4179,-1604,11059.368245971376
1735563258592,-244,-52,884,918.5292591964613,-10106,4200,1552,11053.50351698501
1735563258622,-244,-52,884,918.5292591964613,-10085,4215,4721,11906.35506777788
1735563258652,-275,-73,899,942.9501577496023,-10025,4222,7940,13467.34973927684
1735563258682,-275,-73,899,942.9501577496023,-9946,4201,11191,15550.234660608823
1735563258712,-275,-73,899,942.9501577496023,-9911,4157,14417,17982.170586444787
1735563258741,-264,-47,958,994.8210894427199,-9929,4105,17607,20626.257901034787
1735563258772,-264,-47,958,994.8210894427199,-10026,4070,-15251,18699.69456969819
1735563258802,-264,-47,958,994.8210894427199,-10118,4074,-12118,16303.905176368022
1735563258832,-264,-47,958,994.8210894427199,-10176,4109,-8970,14173.770034821364
1735563258861,-259,-31,975,1009.2903447472387,-10196,4159,-5766,12429.901568395464
1735563258891,-259,-31,975,1009.2903447472387,-10175,4208,-2528,11297.28609003065
1735563258922,-259,-31,975,1009.2903447472387,-10123,4240,738,10999.88059026097
1735563258951,-298,-31,950,996.1249921571087,-10046,4259,4043,11636.45332564867
1735563258981,-298,-31,950,996.1249921571087,-9956,4250,7386,13104.862914200972
1735563259011,-298,-31,950,996.1249921571087,-9905,4212,10708,15182.596385335415
1735563259041,-254,-10,981,1013.3987369244152,-9902,4165,13991,17639.300156185334
1735563259071,-254,-10,981,1013.3987369244152,-9985,4134,17183,20298.908098713095
1735563259102,-254,-10,981,1013.3987369244152,-10063,4138,-15631,19045.08267243805
1735563259131,-254,-10,981,1013.3987369244152,-10113,4167,-12433,16559.473029055
1735563259161,-253,-35,925,959.6139848918418,-10123,4197,-9267,14351.55834744088
1735563259191,-253,-35,925,959.6139848918418,-10102,4222,-6082,12524.632210168887
1735563259221,-253,-35,925,959.6139848918418,-10069,4236,-2883,11297.793855439211
1735563259251,-275,-85,925,968.7491935480514,-9996,4237,338,10862.155817332026
1735563259281,-275,-85,925,968.7491935480514,-9904,4204,3571,11336.4400496805
1735563259311,-275,-85,925,968.7491935480514,-9869,4146,6767,12664.073831117694
1735563259341,-241,-76,885,920.3705775392866,-9885,4087,9929,14594.582385255153
1735563259371,-241,-76,885,920.3705775392866,-9964,4047,13034,16898.066782919283
1735563259401,-241,-76,885,920.3705775392866,-10046,4041,16127,19425.033487744622
1735563259432,-241,-76,885,920.3705775392866,-10106,4064,-16772,19998.682856628333
1735563259461,-272,-51,987,1025.0629248977841,-10125,4112,-13606,17451.28662878471
1735563259492,-272,-51,987,1025.0629248977841,-10099,4158,-10394,15076.93606141513
1735563259522,-272,-51,987,1025.0629248977841,-10046,4186,-7156,13025.093013103591
1735563259551,-241,-105,939,975.103584241182,-9987,4190,-3935,11523.041872700107
1735563259581,-241,-105,939,975.103584241182,-9938,4166,-753,10802.148351138305
1735563259611,-241,-105,939,975.103584241182,-9922,4131,2405,11013.41318574764
1735563259641,-300,-124,1007,1058.0288275845796,-9944,4097,5534,12095.193301473111
1735563259672,-300,-124,1007,1058.0288275845796,-9936,4071,8700,13819.809586242496
1735563259732,-300,-124,1007,1058.0288275845796,-9950,4047,11848,15992.367335701116
1735563259732,-279,-104,947,992.7064017120067,-9987,4031,14981,18450.46045495884
1735563259761,-279,-104,947,992.7064017120067,-10070,4034,-17922,20949.37087360859
1735563259792,-279,-104,947,992.7064017120067,-10125,4065,-14813,18397.413377972458
1735563259822,-279,-104,947,992.7064017120067,-10139,4109,-11677,16001.110305225697
1735563259851,-249,-83,947,982.6998524473279,-10114,4157,-8498,13848.813992541021
1735563259881,-249,-83,947,982.6998524473279,-10075,4197,-5298,12132.15718658475
1735563259911,-249,-83,947,982.6998524473279,-10019,4215,-2079,11066.563468394332
1735563259941,-259,-67,930,967.7138006662921,-9961,4211,1150,10875.50191945181
1735563259971,-259,-67,930,967.7138006662921,-9918,4190,4392,11628.090470924279
1735563260002,-259,-67,930,967.7138006662921,-9906,4158,7614,13167.793892676176
1735563260031,-301,-34,901,950.5566790044663,-9926,4127,10807,15242.993603619992
1735563260092,-301,-34,901,950.5566790044663,-9962,4111,14017,17681.008285728505
1735563260092,-301,-34,901,950.5566790044663,-9999,4111,17223,20334.995721661708
1735563260122,-301,-34,901,950.5566790044663,-10023,4124,-15565,18966.737463253925
1735563260151,-209,-50,914,938.9233195527737,-10071,4147,-12429,16525.818920707075
1735563260181,-209,-50,914,938.9233195527737,-10105,4183,-9308,14361.315329732162
1735563260211,-209,-50,914,938.9233195527737,-10100,4224,-6158,12560.777842156114
1735563260241,-327,-98,966,1024.5433128960435,-10065,4254,-2983,11326.916173433969
1735563260272,-327,-98,966,1024.5433128960435,-9894,4246,339,10771.939147618687
1735563260302,-327,-98,966,1024.5433128960435,-9788,4182,3629,11245.608431739032
1735563260332,-270,-97,966,1007.7028331804967,-9758,4096,6879,12622.060885608182
1735563260362,-270,-97,966,1007.7028331804967,-9826,4025,10043,14615.49691252405
1735563260391,-270,-97,966,1007.7028331804967,-9924,3990,13175,16970.16502571498
1735563260422,-270,-97,966,1007.7028331804967,-10016,3995,16299,19543.225987538495
1735563260451,-244,-69,924,958.1612599140084,-10114,4026,-16602,19852.659166973073
1735563260482,-244,-69,924,958.1612599140084,-10170,4088,-13482,17375.41274329908
1735563260512,-244,-69,924,958.1612599140084,-10162,4157,-10316,15065.415659715467
1735563260541,-308,-71,987,1036.3754146061165,-10098,4212,-7095,13040.305709606659
1735563260572,-308,-71,987,1036.3754146061165,-9985,4232,-3803,11492.295593135428
1735563260602,-308,-71,987,1036.3754146061165,-9896,4209,-516,10766.278512095068
1735563260632,-276,-125,954,1000.9580410786458,-9859,4160,2733,11044.218849696887
1735563260661,-276,-125,954,1000.9580410786458,-9864,4101,5889,12198.238315428995
1735563260692,-276,-125,954,1000.9580410786458,-9911,4054,9009,13993.74567440755
1735563260722,-276,-125,954,1000.9580410786458,-9977,4033,12108,16199.051885835788
1735563260752,-258,-27,908,944.3288622084999,-10091,4036,15207,18691.453287532247
1735563260782,-258,-27,908,944.3288622084999,-10190,4088,-17679,20810.931862845548
1735563260812,-258,-27,908,944.3288622084999,-10218,4164,-14521,18237.485051398944
1735563260841,-228,-110,952,985.0827376418694,-10140,4231,-11316,15772.533626529379
1735563260872,-228,-110,952,985.0827376418694,-10004,4242,-8102,13554.223843510923
1735563260902,-228,-110,952,985.0827376418694,-9904,4205,-4902,11823.740736332136
1735563260932,-271,-69,925,966.3472460766885,-9879,4140,-1745,10852.615629423166
1735563260961,-271,-69,925,966.3472460766885,-9934,4085,1409,10833.1372187377
1735563260991,-271,-69,925,966.3472460766885,-10011,4060,4538,11717.387294102726
1735563261022,-271,-69,925,966.3472460766885,-10082,4065,7664,13300.670847742982
1735563261052,-236,-82,954,986.1723987214406,-10162,4095,10752,15350.595200186865
1735563261082,-236,-82,954,986.1723987214406,-10200,4147,13855,17697.418851346658
1735563261111,-236,-82,954,986.1723987214406,-10188,4201,16995,20255.215871473698
1735563261142,-239,-94,901,936.8873998512308,-10125,4242,-15805,19243.394035356654
1735563261171,-239,-94,901,936.8873998512308,-10040,4252,-12574,16642.91380738361
1735563261202,-239,-94,901,936.8873998512308,-9976,4231,-9349,14311.734276459998
1735563261232,-187,-45,925,944.7851607640755,-9956,4187,-6160,12433.7647154834
1735563261260,-187,-45,925,944.7851607640755,-10064,4149,-3086,11314.667162581496
1735563261292,-187,-45,925,944.7851607640755,-10165,4154,-20,10981.04462243916
1735563261322,-187,-45,925,944.7851607640755,-10231,4190,3060,11471.40187596965
1735563261351,-212,-59,936,961.5201505948796,-10186,4245,6231,12672.804819770563
1735563261381,-212,-59,936,961.5201505948796,-10104,4272,9440,14472.539514542705
1735563261411,-212,-59,936,961.5201505948796,-10028,4266,12655,16700.555829073473
1735563261441,-231,-48,938,967.2171421144271,-9965,4242,15895,19234.001507746638
1735563261472,-231,-48,938,967.2171421144271,-9929,4204,-16857,20010.424933019287
1735563261502,-231,-48,938,967.2171421144271,-9934,4161,-13641,17380.309490915286
1735563261532,-224,-55,977,1003.857559616901,-9971,4126,-10457,15026.428917078068
1735563261562,-224,-55,977,1003.857559616901,-10026,4102,-7315,13071.201360242294
1735563261592,-224,-55,977,1003.857559616901,-10080,4101,-4180,11657.486907562881
1735563261622,-224,-55,977,1003.857559616901,-10118,4118,-1038,10973.116786036682
1735563261652,-229,-67,1004,1031.9622086103734,-10110,4139,2122,11128.625476670513
1735563261682,-229,-67,1004,1031.9622086103734,-10085,4151,5295,12123.326729903802
1735563261711,-229,-67,1004,1031.9622086103734,-10059,4153,8474,13792.735986743166
1735563261742,-277,-45,990,1029.0063167930507,-10036,4153,11691,15957.699896914968
1735563261772,-277,-45,990,1029.0063167930507,-10008,4149,14956,18467.706977315836
1735563261802,-277,-45,990,1029.0063167930507,-9992,4136,-17785,20814.72519636039
1735563261832,-270,-22,938,976.3339592577942,-10000,4118,-14552,18130.599217896797
1735563261861,-270,-22,938,976.3339592577942,-10058,4108,-11364,15721.944027377785
1735563261892,-270,-22,938,976.3339592577942,-10105,4120,-8173,13633.90457645938
1735563261922,-270,-22,938,976.3339592577942,-10127,4146,-4968,12017.756404587339
1735563261952,-194,-52,938,959.2622164976582,-10145,4172,-1817,11118.817293219634
1735563261982,-194,-52,938,959.2622164976582,-10148,4199,1322,11061.699191353922
1735563262012,-194,-52,938,959.2622164976582,-10131,4222,4480,11854.654992870945
1735563262042,-218,-52,952,978.0245395694322,-10112,4224,7628,13352.19472596172
1735563262072,-218,-52,952,978.0245395694322,-10097,4214,10775,15356.03562121422
1735563262102,-218,-52,952,978.0245395694322,-10095,4201,13913,17695.45125166352
1735563262132,-251,-9,963,995.2140473285132,-10106,4191,17050,20258.287612727785
1735563262162,-251,-9,963,995.2140473285132,-10130,4199,-15760,19199.638043463216
1735563262192,-251,-9,963,995.2140473285132,-10141,4213,-12563,16685.868841627638
1735563262222,-251,-9,963,995.2140473285132,-10136,4228,-9355,14426.728839206758
1735563262252,-218,-38,906,932.6328323622324,-10137,4232,-6191,12609.404188937715
1735563262282,-218,-38,906,932.6328323622324,-10136,4234,-3038,11397.135429571767
1735563262312,-218,-38,906,932.6328323622324,-10135,4235,114,10984.827991370643
1735563262342,-214,-25,954,978.0270957391723,-10137,4231,3273,11461.791264893982
1735563262403,-214,-25,954,978.0270957391723,-10149,4230,6430,12737.346701727169
1735563262404,-214,-25,954,978.0270957391723,-10158,4233,9587,14594.993045561892
1735563262432,-208,-49,959,982.5202287993872,-10160,4244,12759,16853.16637905174
1735563262462,-208,-49,959,982.5202287993872,-10130,4259,15958,19375.596635974853
1735563262492,-208,-49,959,982.5202287993872,-10099,4261,-16837,20090.557259568486
1735563262522,-208,-49,959,982.5202287993872,-10076,4253,-13636,17480.111012233305
1735563262552,-223,-37,950,976.5234252182587,-10085,4238,-10446,15125.699487957574
1735563262583,-223,-37,950,976.5234252182587,-10100,4231,-7258,13137.348476766536
1735563262612,-223,-37,950,976.5234252182587,-10117,4229,-4072,11696.978840709255
1735563262642,-189,-15,916,935.4154157378421,-10134,4224,-900,11015.903594349398
1735563262701,-189,-15,916,935.4154157378421,-10173,4225,2243,11241.512487205626
1735563262703,-189,-15,916,935.4154157378421,-10198,4239,5393,12290.352883461077
1735563262732,-185,-20,956,973.9409633032179,-10182,4263,8578,13979.569986233482
1735563262762,-185,-20,956,973.9409633032179,-10110,4275,11814,16126.323852632999
1735563262792,-185,-20,956,973.9409633032179,-10053,4261,15048,18591.966921227027
1735563262822,-185,-20,956,973.9409633032179,-10026,4230,-17736,20808.153978669034
1735563262852,-228,7,907,935.244353097093,-10057,4183,-14571,18192.162570733584
1735563262882,-228,7,907,935.244353097093,-10110,4156,-11414,15803.918248333228
1735563262912,-228,7,907,935.244353097093,-10165,4151,-8267,13744.137477484719
1735563262942,-229,-59,974,1002.2963633576647,-10189,4168,-5124,12142.62413978132
1735563262972,-229,-59,974,1002.2963633576647,-10163,4179,-1974,11164.554894844667
1735563263002,-229,-59,974,1002.2963633576647,-10136,4179,1179,11026.90246624137
1735563263032,-158,-8,945,958.1508232006065,-10132,4168,4322,11777.492602417546
1735563263062,-158,-8,945,958.1508232006065,-10253,4172,7366,13296.147900801947
1735563263092,-158,-8,945,958.1508232006065,-10333,4215,10429,15274.198997001447
1735563263122,-158,-8,945,958.1508232006065,-10356,4276,13529,17566.011300235463
1735563263152,-241,-6,898,929.7962142319144,-10265,4339,16768,20133.62784000936
1735563263182,-241,-6,898,929.7962142319144,-10133,4357,-15929,19375.091715911953
1735563263211,-241,-6,898,929.7962142319144,-10032,4326,-12636,16704.005387930167
1735563263242,-218,34,967,991.8512993387668,-10017,4264,-9391,14377.512510862232
1735563263272,-218,34,967,991.8512993387668,-10089,4217,-6205,12572.709930639456
1735563263302,-218,34,967,991.8512993387668,-10172,4203,-3039,11417.982045878334
1735563263334,-191,2,1052,1069.200168350155,-10236,4224,134,11074.106194181091
1735563263362,-191,2,1052,1069.200168350155,-10251,4264,3309,11585.084289723576
1735563263392,-191,2,1052,1069.200168350155,-10231,4301,6511,12867.209604261523
1735563263422,-191,2,1052,1069.200168350155,-10188,4324,9736,14740.489001386622
1735563263452,-196,30,901,922.5600251474156,-10185,4317,12939,17023.17347030218
1735563263481,-196,30,901,922.5600251474156,-10193,4313,16141,19571.180316986505
1735563263512,-196,30,901,922.5600251474156,-10201,4313,-16658,20003.782992224245
1735563263542,-189,30,944,963.2014327231869,-10190,4313,-13446,17413.586218812023
1735563263572,-189,30,944,963.2014327231869,-10179,4306,-10234,15062.816237344197
1735563263602,-189,30,944,963.2014327231869,-10177,4297,-7029,13093.600688886156
1735563263632,-183,92,961,982.5853652482313,-10176,4286,-3818,11683.231402313317
1735563263662,-183,92,961,982.5853652482313,-10228,4283,-599,11104.723049225497
1735563263692,-183,92,961,982.5853652482313,-10265,4298,2625,11433.88184301377
1735563263722,-196,0,1021,1039.6427270942647,-10267,4330,5866,12592.463817696678
1735563263751,-196,0,1021,1039.6427270942647,-10141,4347,9148,14332.557134021828
1735563263782,-196,0,1021,1039.6427270942647,-10045,4318,12420,16547.010273762447
1735563263812,-196,0,1021,1039.6427270942647,-10005,4263,15659,19065.085234532784
1735563263842,-252,28,891,926.3741144915482,-10064,4190,-17162,20331.611839694364
1735563263872,-252,28,891,926.3741144915482,-10152,4151,-13998,17783.079289032034
1735563263902,-252,28,891,926.3741144915482,-10241,4149,-10845,15482.45158235607
1735563263932,-163,33,878,893.6117725276453,-10298,4180,-7678,13508.252588695548
1735563263961,-163,33,878,893.6117725276453,-10375,4231,-4578,12103.721328583206
1735563263992,-163,33,878,893.6117725276453,-10389,4298,-1435,11334.167371271698
1735563264022,-169,6,936,951.1535102179879,-10345,4359,1751,11361.597906984738
1735563264052,-169,6,936,951.1535102179879,-10238,4390,4976,12200.381961233838
1735563264082,-169,6,936,951.1535102179879,-10142,4380,8207,13762.24592862662
1735563264112,-169,6,936,951.1535102179879,-10086,4341,11416,15839.720104850338
1735563264142,-217,-11,982,1005.750466069989,-10061,4290,14615,18254.480162414926
1735563264172,-217,-11,982,1005.750466069989,-10069,4237,17794,20879.73577419025
1735563264202,-217,-11,982,1005.750466069989,-10114,4197,-15059,18619.37931296315
1735563264232,-190,16,958,976.7906633460416,-10199,4184,-11930,16243.471211536036
1735563264262,-190,16,958,976.7906633460416,-10295,4212,-8808,14188.334398371078
1735563264291,-190,16,958,976.7906633460416,-10339,4266,-5655,12532.864875997027
1735563264322,-178,8,937,953.7908575783267,-10323,4328,-2460,11460.69426343797
1735563264352,-178,8,937,953.7908575783267,-10257,4379,767,11178.997226943033
1735563264382,-178,8,937,953.7908575783267,-10172,4398,4019,11788.31408641626
1735563264412,-178,8,937,953.7908575783267,-10101,4385,7272,13196.227112322673
1735563264442,-175,-2,925,941.4106436619463,-10060,4352,10502,15180.102371196315
1735563264472,-175,-2,925,941.4106436619463,-10058,4311,13703,17536.256556061217
1735563264502,-175,-2,925,941.4106436619463,-10088,4277,16875,20120.290703665294
1735563264532,-174,-2,972,987.453290034521,-10141,4259,-15981,19400.291827701974
1735563264561,-174,-2,972,987.453290034521,-10195,4262,-12849,16946.960494436753
1735563264592,-174,-2,972,987.453290034521,-10230,4282,-9708,14738.849615896079
1735563264622,-173,-26,971,986.6336706194453,-10224,4312,-6538,12879.012539787358
1735563264652,-173,-26,971,986.6336706194453,-10152,4332,-3328,11528.43926990987
1735563264682,-173,-26,971,986.6336706194453,-10089,4323,-115,10976.769788967973
1735563264711,-173,-26,971,986.6336706194453,-10054,4296,3081,11359.185402131616
1735563264742,-166,-37,976,990.7073230778099,-10035,4267,6269,12578.11094719712
1735563264772,-166,-37,976,990.7073230778099,-10044,4236,9431,14414.208025417143
1735563264802,-166,-37,976,990.7073230778099,-10073,4215,12575,16654.194036338115
1735563264832,-226,-45,1002,1028.1561165504002,-10097,4203,15723,19152.737323944064
1735563264862,-226,-45,1002,1028.1561165504002,-10093,4195,-17094,20289.689746272612
1735563264892,-226,-45,1002,1028.1561165504002,-10096,4188,-13917,17696.085697125225
1735563264922,-201,4,930,951.4814764355636,-10107,4182,-10747,15334.22909702343
1735563264952,-201,4,930,951.4814764355636,-10181,4192,-7609,13383.665641370453
1735563264982,-201,4,930,951.4814764355636,-10222,4225,-4454,11923.842711139727
1735563265012,-201,4,930,951.4814764355636,-10225,4266,-1272,11152.011701930733
1735563265042,-193,-46,919,940.173388264101,-10189,4305,1916,11225.854176854427
1735563265072,-193,-46,919,940.173388264101,-10126,4319,5122,12141.849982601498
1735563265102,-193,-46,919,940.173388264101,-10073,4309,8327,13761.24046007481
1735563265132,-217,-55,906,933.2470198184401,-10030,4277,11531,15870.021739115546
1735563265162,-217,-55,906,933.2470198184401,-10011,4230,14725,18301.329077419487
1735563265192,-217,-55,906,933.2470198184401,-10034,4185,17886,20930.943050899547
1735563265222,-170,-43,1000,1015.2580952644505,-10077,4159,-14975,18522.79231109608
1735563265252,-170,-43,1000,1015.2580952644505,-10159,4158,-11895,16185.959038623569
1735563265282,-170,-43,1000,1015.2580952644505,-10215,4184,-8805,14120.202052378712
1735563265312,-170,-43,1000,1015.2580952644505,-10233,4224,-5692,12448.105438178132
1735563265342,-250,-45,1007,1038.5441733503683,-10183,4263,-2524,11324.188006210423
1735563265372,-250,-45,1007,1038.5441733503683,-10100,4274,691,10988.837836641325
1735563265402,-250,-45,1007,1038.5441733503683,-10036,4255,3903,11578.416558407285
1735563265432,-222,-56,889,918.0092592125637,-9997,4221,7092,12963.537865875966
1735563265462,-222,-56,889,918.0092592125637,-10000,4180,10236,14907.987657628377
1735563265492,-222,-56,889,918.0092592125637,-10032,4148,13356,17211.323714345737
1735563265522,-174,-67,924,942.6245275824303,-10075,4132,16465,19740.194375942705
1735563265552,-174,-67,924,942.6245275824303,-10138,4131,-16473,19778.875953905976
1735563265582,-174,-67,924,942.6245275824303,-10182,4150,-13405,17337.52142031842
1735563265612,-174,-67,924,942.6245275824303,-10198,4180,-10319,15098.124552407164
1735563265642,-159,-112,998,1016.7738194898608,-10165,4213,-7223,13162.382876971784
1735563265672,-159,-112,998,1016.7738194898608,-10113,4225,-4119,11708.524885740304
1735563265701,-159,-112,998,1016.7738194898608,-10068,4217,-1015,10962.569862947283
1735563265732,-174,-27,936,952.418500450301,-10065,4197,2097,11104.793694616754
1735563265762,-174,-27,936,952.418500450301,-10109,4193,5219,12124.81302948627
1735563265792,-174,-27,936,952.418500450301,-10141,4205,8345,13789.885097418324
1735563265822,-179,-43,925,943.1410286908316,-10159,4226,11476,15898.519836764679
1735563265852,-179,-43,925,943.1410286908316,-10147,4250,14614,18291.88631606921
1735563265882,-179,-43,925,943.1410286908316,-10120,4266,17767,20887.303440128406
1735563265912,-179,-43,925,943.1410286908316,-10090,4269,-15074,18634.858115907402
1735563265941,-159,-34,938,951.9879200914264,-10065,4260,-11903,16159.617384084315
1735563265972,-159,-34,938,951.9879200914264,-10061,4247,-8747,13991.809711399022
1735563266002,-159,-34,938,951.9879200914264,-10069,4235,-5601,12275.633873653938
1735563266032,-211,-71,977,1002.0434122332225,-10061,4222,-2441,11180.674666584302
1735563266062,-211,-71,977,1002.0434122332225,-10026,4197,746,10894.585857204485
1735563266092,-211,-71,977,1002.0434122332225,-10021,4166,3914,11536.697664409863
1735563266122,-212,-55,974,998.3210906316665,-10049,4139,7058,12958.74554113939
1735563266152,-212,-55,974,998.3210906316665,-10111,4133,10186,14935.481445202897
1735563266181,-212,-55,974,998.3210906316665,-10158,4150,13321,17258.519780097016
1735563266211,-212,-55,974,998.3210906316665,-10177,4179,16472,19808.133531456213
1735563266242,-121,-56,952,961.291319007927,-10240,4209,-16445,19824.512755677
1735563266272,-121,-56,952,961.291319007927,-10281,4257,-13369,17393.998131539513
1735563266302,-121,-56,952,961.291319007927,-10273,4310,-10257,15143.205671191288
1735563266332,-149,-28,933,945.2375362838698,-10231,4345,-7113,13196.482675319208
1735563266361,-149,-28,933,945.2375362838698,-10176,4361,-3935,11749.61795123569
1735563266391,-149,-28,933,945.2375362838698,-10127,4355,-755,11049.532976556067
1735563266421,-204,-12,901,923.883650683353,-10102,4334,2410,11253.53544447255
1735563266451,-204,-12,901,923.883650683353,-10080,4308,5616,12316.846999130907
1735563266480,-204,-12,901,923.883650683353,-10086,4280,8801,14053.590181871677
1735563266512,-204,-12,901,923.883650683353,-10111,4259,11969,16236.636443549507
1735563266542,-197,-29,941,961.8373043295836,-10108,4258,15148,18701.98203399843
1735563266571,-197,-29,941,961.8373043295836,-10105,4255,-17675,20799.559490527678
1735563266602,-197,-29,941,961.8373043295836,-10105,4252,-14502,18179.618615361545
1735563266632,-172,-16,946,961.6423451574915,-10120,4244,-11339,15779.69762067702
1735563266662,-172,-16,946,961.6423451574915,-10155,4243,-8199,13724.09104458288
1735563266692,-172,-16,946,961.6423451574915,-10180,4254,-5054,12135.560638058712
1735563266721,-216,-20,898,923.8289885038248,-10184,4269,-1901,11204.999687639442
1735563266751,-216,-20,898,923.8289885038248,-10137,4273,1304,11077.802760475563
1735563266781,-216,-20,898,923.8289885038248,-10102,4261,4506,11853.715071655806
1735563266842,-216,-20,898,923.8289885038248,-10087,4240,7694,13376.20293655864
1735563266842,-152,11,934,946.3514146446869,-10151,4219,10815,15420.991764474813
1735563266872,-152,11,934,946.3514146446869,-10231,4229,13910,17777.679882369353
1735563266902,-152,11,934,946.3514146446869,-10278,4263,17021,20335.311504867586
1735563266932,-180,-41,957,974.643524577063,-10242,4316,-15802,19319.151741212656
1735563266961,-180,-41,957,974.643524577063,-10129,4339,-12564,16711.60249646933
1735563266992,-180,-41,957,974.643524577063,-10035,4319,-9328,14365.46448953183
1735563267022,-180,-21,925,942.5847442007536,-10000,4269,-6137,12485.47676302351
1735563267052,-180,-21,925,942.5847442007536,-10052,4216,-3019,11310.690562472302
1735563267082,-180,-21,925,942.5847442007536,-10127,4191,72,10960.191330446745
1735563267112,-180,-21,925,942.5847442007536,-10197,4194,3158,11469.150317264135
1735563267142,-216,-16,971,994.8633071935059,-10212,4218,6291,12714.289166131153
1735563267172,-216,-16,971,994.8633071935059,-10197,4242,9455,14538.583080892031
1735563267202,-216,-16,971,994.8633071935059,-10169,4256,12633,16766.478044001968
1735563267232,-168,-83,992,1009.542965900907,-10130,4257,15796,19241.948056264988
1735563267262,-168,-83,992,1009.542965900907,-10096,4235,-17085,20291.911344178498
1735563267292,-168,-83,992,1009.542965900907,-10090,4206,-13987,17752.033827142175
1735563267322,-129,-59,1026,1035.7596246233968,-10114,4180,-10908,15451.532610068167
1735563267352,-129,-59,1026,1035.7596246233968,-10206,4176,-7887,13557.51382075637
1735563267411,-129,-59,1026,1035.7596246233968,-10273,4203,-4855,12114.898389998985
1735563267412,-173,-14,957,972.6119472842188,-10296,4248,-1786,11280.200175528802
1735563267442,-173,-14,957,972.6119472842188,-10271,4302,1391,11222.099892622593
1735563267471,-173,-14,957,972.6119472842188,-10211,4339,4603,12011.62149753313
1735563267501,-173,-14,957,972.6119472842188,-10143,4348,7830,13531.239891451189
1735563267532,-168,-22,958,972.8679252601557,-10078,4338,11068,15584.766664919947
1735563267562,-168,-22,958,972.8679252601557,-10042,4308,14287,17986.63384294015
1735563267592,-168,-22,958,972.8679252601557,-10042,4273,17481,20607.902707456673
1735563267622,-166,-8,949,963.4422660440013,-10071,4244,-15347,18840.56756045316
1735563267652,-166,-8,949,963.4422660440013,-10129,4234,-12193,16407.091332713426
1735563267682,-166,-8,949,963.4422660440013,-10175,4245,-9037,14255.455762619447
1735563267712,-164,0,989,1002.5053615816726,-10203,4268,-5882,12526.570041316178
1735563267741,-164,0,989,1002.5053615816726,-10223,4296,-2737,11421.756169696497
1735563267772,-164,0,989,1002.5053615816726,-10214,4326,428,11100.597101057221
1735563267802,-164,0,989,1002.5053615816726,-10185,4346,3612,11647.681528956738
1735563267832,-137,-32,931,941.5699655362845,-10140,4347,6796,12957.685943099563
1735563267861,-137,-32,931,941.5699655362845,-10109,4331,9963,14839.501709963175
1735563267892,-137,-32,931,941.5699655362845,-10101,4308,13115,17105.32928651185
1735563267922,-228,-19,916,944.1403497362031,-10090,4278,16262,19610.253134521237
1735563267951,-228,-19,916,944.1403497362031,-10068,4241,-16554,19833.95122006707
1735563267981,-228,-19,916,944.1403497362031,-10081,4205,-13398,17286.265935707455
1735563268012,-197,23,932,952.8704004217992,-10118,4179,-10263,15005.570099133189
1735563268042,-197,23,932,952.8704004217992,-10219,4178,-7171,13164.607324185557
1735563268071,-197,23,932,952.8704004217992,-10287,4210,-4066,11835.490061674675
1735563268102,-197,23,932,952.8704004217992,-10310,4258,-931,11193.45456059031
1735563268132,-169,-13,1008,1022.1516521534365,-10256,4317,2280,11358.71581649968
1735563268161,-169,-13,1008,1022.1516521534365,-10172,4344,5513,12358.522929541377
1735563268191,-169,-13,1008,1022.1516521534365,-10095,4338,8751,14046.610623207294
1735563268222,-183,5,1009,1025.473061567197,-10083,4310,11962,16227.520851935455
1735563268252,-183,5,1009,1025.473061567197,-10111,4291,15157,18718.430783588672
1735563268282,-183,5,1009,1025.473061567197,-10145,4285,-17655,20808.20210878393
1735563268312,-171,-13,899,915.210904655315,-10172,4288,-14470,18199.929340522176
1735563268341,-171,-13,899,915.210904655315,-10186,4290,-11302,15808.032768184661
1735563268371,-171,-13,899,915.210904655315,-10194,4296,-8130,13728.44317466478
1735563268402,-171,-13,899,915.210904655315,-10194,4303,-4953,12122.939165070491
1735563268432,-215,31,993,1016.4816771590131,-10136,4306,-1673,11139.078103685242
1735563268462,-215,31,993,1016.4816771590131,-10093,4292,1618,11086.380698857494
1735563268492,-215,31,993,1016.4816771590131,-10075,4267,4893,11985.589806096319
1735563268522,-219,11,1003,1026.6893395764855,-10072,4234,8141,13625.264070835472
1735563268550,-219,11,1003,1026.6893395764855,-10083,4200,11362,15760.771967134096
1735563268582,-219,11,1003,1026.6893395764855,-10116,4176,14564,18217.64331630192
1735563268612,-187,-4,974,991.7968541994878,-10165,4167,17742,20867.910245158713
1735563268641,-187,-4,974,991.7968541994878,-10231,4174,-15142,18745.0206988416
1735563268672,-187,-4,974,991.7968541994878,-10272,4201,-12014,16355.383853642812
1735563268702,-187,-4,974,991.7968541994878,-10279,4236,-8862,14217.474494438173
1735563268732,-186,-7,965,982.7868537989303,-10268,4268,-5700,12495.505111839217
1735563268762,-186,-7,965,982.7868537989303,-10237,4290,-2519,11381.811367264878
1735563268792,-186,-7,965,982.7868537989303,-10199,4297,670,11087.502423900523
1735563268822,-168,-11,902,917.5777896178612,-10177,4295,3857,11700.205254609853
1735563268851,-168,-11,902,917.5777896178612,-10173,4290,7027,13087.121837898507
1735563268882,-168,-11,902,917.5777896178612,-10173,4284,10194,15025.319331049173
1735563268912,-182,19,962,979.2492021952328,-10174,4277,13355,17325.09826811958
1735563268942,-182,19,962,979.2492021952328,-10187,4269,16524,19875.661146236118
1735563268972,-182,19,962,979.2492021952328,-10201,4267,-16310,19704.91791406399
1735563269002,-182,19,962,979.2492021952328,-10213,4270,-13144,17184.38259001469
1735563269032,-174,0,946,961.8690139514839,-10202,4281,-9945,14876.518073796704
1735563269062,-174,0,946,961.8690139514839,-10184,4284,-6744,12944.03522862944
1735563269091,-174,0,946,961.8690139514839,-10170,4281,-3543,11589.163472830987
1735563269122,-194,17,968,987.3950577149958,-10155,4274,-330,11022.703887885222
1735563269152,-194,17,968,987.3950577149958,-10147,4264,2896,11381.13004055397
1735563269182,-194,17,968,987.3950577149958,-10149,4253,6115,12589.020414631155
1735563269212,-196,-12,963,982.8168700220809,-10163,4245,9312,14422.896311074277
1735563269242,-196,-12,963,982.8168700220809,-10168,4235,12474,16641.037377519468
1735563269272,-196,-12,963,982.8168700220809,-10178,4229,15631,19126.010718390808
1735563269302,-196,-12,963,982.8168700220809,-10189,4227,-17213,20444.329751791814
1735563269332,-185,0,993,1010.0861349409762,-10218,4235,-14043,17875.92229788438
1735563269362,-185,0,993,1010.0861349409762,-10235,4254,-10867,15522.352592310226
1735563269391,-185,0,993,1010.0861349409762,-10232,4275,-7677,13487.245011491414
1735563269422,-141,-8,945,955.4946363010104,-10213,4295,-4479,11950.474258371507
1735563269451,-141,-8,945,955.4946363010104,-10197,4308,-1299,11145.630264816791
1735563269482,-141,-8,945,955.4946363010104,-10176,4313,1886,11212.044461203317
1735563269512,-218,-20,993,1016.8446292330013,-10164,4310,5067,12147.324190948391
1735563269542,-218,-20,993,1016.8446292330013,-10099,4301,8322,13774.7626476829
1735563269572,-218,-20,993,1016.8446292330013,-10064,4271,11561,15911.701920284957
1735563269602,-218,-20,993,1016.8446292330013,-10063,4237,14775,18371.629296281808
1735563269632,-196,18,914,934.9524052057409,-10138,4211,17931,21024.564823082546
1735563269662,-196,18,914,934.9524052057409,-10220,4219,-14925,18574.28292020987
1735563269692,-196,18,914,934.9524052057409,-10270,4254,-11765,16185.939608190807
1735563269722,-172,-10,1021,1035.434691325339,-10255,4301,-8572,14040.75532156301
1735563269752,-172,-10,1021,1035.434691325339,-10198,4331,-5361,12308.415251363596
1735563269782,-172,-10,1021,1035.434691325339,-10136,4336,-2140,11230.271234480493
1735563269812,-215,-23,977,1000.641294370765,-10089,4318,1074,11026.627816336235
1735563269841,-215,-23,977,1000.641294370765,-10026,4280,4316,11724.629290514904
1735563269872,-215,-23,977,1000.641294370765,-10014,4230,7523,13220.008509830846
1735563269902,-215,-23,977,1000.641294370765,-10045,4185,10696,15258.462111235194
1735563269932,-129,6,987,995.4124773178203,-10152,4155,13771,17605.8958874577
1735563269961,-129,6,987,995.4124773178203,-10272,4171,16811,20137.550645498075
1735563269992,-129,6,987,995.4124773178203,-10343,4223,-16122,19614.542105285047
1735563270022,-172,-21,888,904.7480312219529,-10311,4294,-12983,17126.396176662503
1735563270052,-172,-21,888,904.7480312219529,-10190,4335,-9764,14763.604607276638
1735563270082,-172,-21,888,904.7480312219529,-10077,4327,-6534,12765.657601549558
1735563270112,-227,3,887,915.5910659240839,-10010,4280,-3325,11383.063076342853
1735563270142,-227,3,887,915.5910659240839,-9988,4217,-90,10842.109250510253
1735563270172,-227,3,887,915.5910659240839,-10021,4159,3100,11283.958613890783
1735563270202,-227,3,887,915.5910659240839,-10086,4124,6260,12566.716834559455
1735563270232,-174,-61,1065,1080.8431893665243,-10170,4122,9345,14413.493990008114
1735563270262,-174,-61,1065,1080.8431893665243,-10227,4143,12419,16612.87268957419
1735563270292,-174,-61,1065,1080.8431893665243,-10251,4180,15513,19058.031640229794
1735563270322,-187,-53,996,1014.7876625186177,-10243,4219,-17348,20583.296966229682
1735563270380,-187,-53,996,1014.7876625186177,-10206,4250,-14168,17971.00887540819
1735563270381,-187,-53,996,1014.7876625186177,-10158,4263,-10973,15548.789727821262
1735563270410,-194,-43,950,970.559117210281,-10114,4258,-7780,13451.838536051493
1735563270442,-194,-43,950,970.559117210281,-10088,4241,-4595,11868.776263794005
1735563270471,-194,-43,950,970.559117210281,-10083,4220,-1424,11022.842872870864
1735563270502,-194,-43,950,970.559117210281,-10096,4200,1731,11070.933881114095
1735563270532,-139,-51,919,930.8506862005313,-10153,4185,4839,12000.564778376058
1735563270562,-139,-51,919,930.8506862005313,-10213,4193,7924,13589.569308848606
1735563270592,-139,-51,919,930.8506862005313,-10249,4219,11023,15631.650296753698
1735563270621,-251,9,959,991.3440371536009,-10235,4252,14179,17996.63218493949
1735563270652,-251,9,959,991.3440371536009,-10169,4278,17441,20637.304232869177
1735563270682,-251,9,959,991.3440371536009,-10105,4276,-15289,18818.83954977033
1735563270712,-203,-13,966,987.1848864321212,-10063,4255,-12029,16250.10261506062
1735563270742,-203,-13,966,987.1848864321212,-10065,4227,-8840,14046.969566422504
1735563270772,-203,-13,966,987.1848864321212,-10089,4205,-5669,12312.900023958613
1735563270802,-203,-13,966,987.1848864321212,-10121,4195,-2508,11239.338503666486
1735563270832,-150,-11,971,982.5792588895819,-10192,4210,613,11044.307719363853
1735563270862,-150,-11,971,982.5792588895819,-10241,4248,3734,11698.988887933863
1735563270892,-150,-11,971,982.5792588895819,-10245,4295,6886,13069.967329721983
1735563270922,-130,1,995,1003.4570244908349,-10242,4333,10063,14997.913921609232
1735563270952,-130,1,995,1003.4570244908349,-10235,4369,13254,17306.41216428177
1735563270982,-130,1,995,1003.4570244908349,-10202,4395,16467,19863.50719283984
1735563271012,-204,-20,976,997.2923342731558,-10154,4408,-16307,19709.196558967087
1735563271042,-204,-20,976,997.2923342731558,-10027,4397,-12998,16994.773961427083
1735563271072,-204,-20,976,997.2923342731558,-9952,4346,-9717,14572.237611293607
1735563271102,-148,-62,980,993.0498476914439,-9947,4278,-6490,12623.953144716595
1735563271132,-148,-62,980,993.0498476914439,-10016,4213,-3391,11382.816259608164
1735563271162,-148,-62,980,993.0498476914439,-10111,4181,-322,10946.084505429328
1735563271192,-148,-62,980,993.0498476914439,-10200,4187,2739,11361.033843801364
1735563271222,-184,-9,986,1003.0618126516431,-10238,4217,5859,12527.07523726109
1735563271251,-184,-9,986,1003.0618126516431,-10243,4259,9020,14297.50083056476
1735563271282,-184,-9,986,1003.0618126516431,-10214,4294,12208,16486.342711468787
1735563271312,-201,22,875,898.0590181051577,-10164,4310,15416,18961.435916090322
1735563271342,-201,22,875,898.0590181051577,-10126,4306,-17352,20546.761691322554
1735563271372,-201,22,875,898.0590181051577,-10103,4290,-14129,17891.43230711281
1735563271402,-202,-8,989,1009.4498501659208,-10097,4273,-10917,15472.195287030216
1735563271432,-202,-8,989,1009.4498501659208,-10072,4258,-7711,13380.406159754642
1735563271462,-202,-8,989,1009.4498501659208,-10068,4237,-4519,11821.08937450352
1735563271492,-202,-8,989,1009.4498501659208,-10082,4219,-1340,11011.007447095837
1735563271522,-163,-19,956,969.9824740684751,-10115,4201,1785,11097.200142378257
1735563271552,-163,-19,956,969.9824740684751,-10158,4198,4889,12029.567282325661
1735563271582,-163,-19,956,969.9824740684751,-10189,4209,7998,13619.816665432762
1735563271612,-242,-14,924,955.2675018025055,-10198,4223,11137,15680.10529301382
1735563271642,-242,-14,924,955.2675018025055,-10137,4232,14387,18101.22542813055
1735563271672,-242,-14,924,955.2675018025055,-10089,4218,17633,20748.54534660201
1735563271702,-175,-6,856,873.7259295683058,-10070,4192,-15149,18667.350240459946
1735563271732,-175,-6,856,873.7259295683058,-10135,4170,-12052,16289.807518813719
1735563271762,-175,-6,856,873.7259295683058,-10197,4173,-8960,14201.209033036588
1735563271792,-175,-6,856,873.7259295683058,-10236,4196,-5858,12517.918197527893
1735563271822,-139,-27,981,991.1664845019731,-10268,4243,-2729,11440.380850303893
1735563271852,-139,-27,981,991.1664845019731,-10258,4291,419,11127.210162480082
1735563271882,-139,-27,981,991.1664845019731,-10213,4327,3598,11660.784793486242
1735563271912,-232,-31,1009,1035.7924502524625,-10149,4346,6817,12975.415446142755
1735563271942,-232,-31,1009,1035.7924502524625,-10051,4337,10105,14897.758052807812
1735563271972,-232,-31,1009,1035.7924502524625,-9994,4298,13371,17237.647200241685
1735563272002,-159,-46,1039,1052.101706110203,-9993,4245,16596,19831.976452184488
1735563272032,-159,-46,1039,1052.101706110203,-10086,4204,-16308,19630.381453247413
1735563272062,-159,-46,1039,1052.101706110203,-10181,4199,-13225,17210.025769881926
1735563272092,-159,-46,1039,1052.101706110203,-10248,4227,-10132,15018.204186919287
1735563272122,-136,4,927,936.93169441534,-10324,4274,-7040,13206.576089206468
1735563272152,-136,4,927,936.93169441534,-10354,4344,-3912,11890.306808489006
1735563272182,-136,4,927,936.93169441534,-10320,4411,-734,11247.136391099737
1735563272212,-198,46,933,954.8869042980954,-10213,4450,2524,11422.716183115117
1735563272242,-198,46,933,954.8869042980954,-10087,4446,5852,12480.40019390404
1735563272272,-198,46,933,954.8869042980954,-10008,4400,9156,14260.168301952119
1735563272302,-170,5,1007,1021.2609852530351,-9981,4340,12419,16513.252920003375
1735563272332,-170,5,1007,1021.2609852530351,-9980,4277,15611,19015.68957466439
1735563272362,-170,5,1007,1021.2609852530351,-10029,4225,-17238,20385.78205514814
1735563272392,-170,5,1007,1021.2609852530351,-10100,4199,-14113,17855.485711679758
1735563272422,-196,-41,932,953.2685875449794,-10133,4172,-11028,15546.70566390192
1735563272452,-196,-41,932,953.2685875449794,-10160,4155,-7948,13552.133743436862
1735563272482,-196,-41,932,953.2685875449794,-10191,4149,-4875,12034.795677534372
1735563272512,-154,-46,998,1010.8590406184237,-10193,4155,-1773,11149.206384312742
1735563272542,-154,-46,998,1010.8590406184237,-10192,4160,1321,11087.267697679172
1735563272572,-154,-46,998,1010.8590406184237,-10188,4164,4420,11860.46542088463
1735563272602,-194,23,963,982.6158964722686,-10181,4161,7524,13325.811720116715
1735563272632,-194,23,963,982.6158964722686,-10202,4162,10679,15344.187466268782
1735563272662,-194,23,963,982.6158964722686,-10216,4170,13838,17698.751368387544
1735563272692,-194,23,963,982.6158964722686,-10219,4181,17004,20274.238284088504
1735563272722,-218,19,1022,1045.1645803412973,-10193,4220,-15759,19236.72867199618
1735563272752,-218,19,1022,1045.1645803412973,-10139,4241,-12491,16637.622516453484
1735563272782,-218,19,1022,1045.1645803412973,-10086,4240,-9218,14306.520191856578
1735563272812,-226,-62,1013,1039.754297899268,-10074,4229,-5985,12457.533544004607
1735563272842,-226,-62,1013,1039.754297899268,-10053,4210,-2772,11245.927840778635
1735563272872,-226,-62,1013,1039.754297899268,-10053,4188,424,10898.712263382313
1735563272902,-148,-37,867,880.3192602686823,-10081,4172,3602,11489.41029818328
1735563272932,-148,-37,867,880.3192602686823,-10207,4184,6681,12896.684302563974
1735563272991,-148,-37,867,880.3192602686823,-10284,4235,9784,14812.917909716505
1735563272992,-148,-37,867,880.3192602686823,-10298,4301,12929,17079.41585652156
1735563273022,-197,-3,963,982.9481166368854,-10254,4354,16128,19601.383012430528
1735563273052,-197,-3,963,982.9481166368854,-10177,4384,-16622,19977.02853279236
1735563273082,-197,-3,963,982.9481166368854,-10102,4381,-13365,17316.66220724999
1735563273112,-154,-8,906,919.0299233430868,-10043,4349,-10115,14902.646577034564
1735563273142,-154,-8,906,919.0299233430868,-10039,4302,-6919,12929.086820034894
1735563273172,-154,-8,906,919.0299233430868,-10073,4263,-3754,11564.212640729156
1735563273202,-208,-36,975,997.5895949738049,-10125,4245,-616,10996.140504740742
1735563273232,-208,-36,975,997.5895949738049,-10108,4242,2567,11258.584147218513
1735563273262,-208,-36,975,997.5895949738049,-10099,4235,5747,12367.418283538404
1735563273292,-208,-36,975,997.5895949738049,-10098,4226,8921,14121.363992192822
1735563273322,-187,-60,957,976.9431917977627,-10089,4205,12075,16287.28249279173
1735563273352,-187,-60,957,976.9431917977627,-10099,4184,15205,18726.656989436207
1735563273382,-187,-60,957,976.9431917977627,-10121,4170,-17676,20790.97200709962
1735563273410,-136,-50,910,921.4640524730197,-10178,4167,-14612,18288.414830159556
1735563273442,-136,-50,910,921.4640524730197,-10255,4188,-11594,16035.124103043294
1735563273473,-136,-50,910,921.4640524730197,-10292,4230,-8553,14034.670391569585
1735563273502,-188,5,810,831.5461502526483,-10291,4277,-5468,12413.558474506817
1735563273532,-188,5,810,831.5461502526483,-10262,4330,-2261,11365.283322469353
1735563273562,-188,5,810,831.5461502526483,-10201,4363,976,11137.717270608013
1735563273592,-188,5,810,831.5461502526483,-10133,4369,4228,11817.014597604591
1735563273622,-166,17,945,959.6197163460117,-10028,4368,7538,13283.886931165893
1735563273652,-166,17,945,959.6197163460117,-9967,4334,10823,15338.251986455301
1735563273682,-166,17,945,959.6197163460117,-9954,4288,14075,17764.42188758193
1735563273712,-200,-41,950,971.689765305779,-9990,4235,17264,20390.709183351126
1735563273742,-200,-41,950,971.689765305779,-10031,4190,-15575,18993.622245374892
1735563273772,-200,-41,950,971.689765305779,-10092,4167,-12437,16549.662292627
1735563273802,-223,63,995,1021.627622962496,-10164,4162,-9302,14392.926873989181
1735563273832,-223,63,995,1021.627622962496,-10305,4198,-6125,12701.647688390667
1735563273862,-223,63,995,1021.627622962496,-10372,4275,-2904,11588.236492236427
1735563273892,-223,63,995,1021.627622962496,-10355,4360,378,11241.819648081888
1735563273922,-199,5,990,1009.8148345117535,-10201,4428,3717,11725.343235914248
1735563273952,-199,5,990,1009.8148345117535,-10038,4424,7068,13049.515086776213
1735563273982,-199,5,990,1009.8148345117535,-9935,4366,10390,15023.92362201033
1735563274017,-212,32,865,891.1750669761806,-9928,4272,13621,17388.12264161948
1735563274042,-212,32,865,891.1750669761806,-10008,4192,16779,19981.685839788395
1735563274072,-212,32,865,891.1750669761806,-10121,4154,-16100,19465.36300714682
1735563274103,-205,47,932,955.4360261158253,-10208,4162,-12973,17024.22500438713
1735563274132,-205,47,932,955.4360261158253,-10246,4197,-9809,14792.288734337226
1735563274162,-205,47,932,955.4360261158253,-10244,4237,-6617,12910.321219861262
1735563274192,-205,47,932,955.4360261158253,-10212,4269,-3400,11578.830035888774
1735563274222,-177,-80,1004,1022.6167415019178,-10093,4286,-157,10966.45311848822
1735563274252,-177,-80,1004,1022.6167415019178,-9983,4248,3062,11273.049143865204
1735563274282,-177,-80,1004,1022.6167415019178,-9939,4180,6240,12457.677191194192
1735563274312,-166,-45,982,996.947842166279,-9995,4105,9351,14289.585403362827
1735563274342,-166,-45,982,996.947842166279,-10120,4067,12410,16521.591600085023
1735563274372,-166,-45,982,996.947842166279,-10232,4077,15464,18985.548425052144
1735563274402,-77,-18,935,938.3378922328566,-10300,4122,-17467,20692.43757994693
1735563274432,-77,-18,935,938.3378922328566,-10395,4183,-14475,18305.16700278913
1735563274462,-77,-18,935,938.3378922328566,-10415,4265,-11434,16043.653137611771
1735563274492,-77,-18,935,938.3378922328566,-10367,4338,-8337,13992.801792350238
1735563274522,-210,13,895,919.3987165533787,-10241,4372,-5115,12253.803083124847
1735563274552,-210,13,895,919.3987165533787,-10105,4355,-1836,11155.623962827001
1735563274582,-210,13,895,919.3987165533787,-10029,4296,1408,11000.860011835439
1735563274612,-140,-22,1003,1012.9624869658303,-10045,4243,4591,11831.413905362284
1735563274642,-140,-22,1003,1012.9624869658303,-10114,4214,7698,13390.668243220724
1735563274672,-140,-22,1003,1012.9624869658303,-10183,4214,10798,15428.807115263318
1735563274702,-166,-62,978,993.9235383066446,-10242,4244,13914,17790.71375746347
1735563274732,-166,-62,978,993.9235383066446,-10224,4302,17107,20388.39937317297
1735563274763,-166,-62,978,993.9235383066446,-10166,4343,-15662,19170.48379671207
1735563274792,-129,-17,1019,1027.2735760253936,-10101,4349,-12418,16587.667889127755
1735563274822,-129,-17,1019,1027.2735760253936,-10128,4333,-9233,14373.571650776295
1735563274852,-129,-17,1019,1027.2735760253936,-10159,4330,-6055,12594.332296711882
1735563274882,-129,-17,1019,1027.2735760253936,-10182,4337,-2874,11434.271686469585
1735563274912,-157,-28,957,970.1968872347509,-10139,4338,318,11032.619317279103
1735563274942,-157,-28,957,970.1968872347509,-10102,4322,3515,11536.260789354581
1735563274972,-157,-28,957,970.1968872347509,-10089,4297,6695,12848.15765002905
1735563275002,-146,6,937,948.3253661059584,-10086,4269,9864,14739.41155541835
1735563275032,-146,6,937,948.3253661059584,-10118,4243,13016,17023.31427777799
1735563275093,-146,6,937,948.3253661059584,-10160,4232,16156,19548.70225871784
1735563275093,-132,6,960,969.0510822448938,-10192,4238,-16708,20024.853857144626
1735563275123,-132,6,960,969.0510822448938,-10212,4251,-13591,17523.447891325497
1735563275152,-132,6,960,969.0510822448938,-10215,4269,-10461,15231.648203658066
1735563275182,-132,6,960,969.0510822448938,-10204,4285,-7320,13268.957796300356
1735563275211,-224,-85,998,1026.3552016724034,-10088,4301,-4086,11703.065453119538
1735563275242,-224,-85,998,1026.3552016724034,-9959,4261,-829,10863.9331275556
1735563275272,-224,-85,998,1026.3552016724034,-9905,4186,2381,11013.663423221176
1735563275302,-147,-77,954,968.3253585443273,-9947,4105,5526,12096.714843295265
1735563275332,-147,-77,954,968.3253585443273,-10132,4062,8525,13850.375193474001
1735563275362,-147,-77,954,968.3253585443273,-10291,4087,11522,15980.135606433381
1735563275392,-185,-17,940,958.1826548210942,-10381,4158,14555,18354.89444262756
1735563275422,-185,-17,940,958.1826548210942,-10404,4259,17691,20960.767590906587
1735563275452,-185,-17,940,958.1826548210942,-10341,4348,-15102,18812.543395298788
1735563275482,-185,-17,940,958.1826548210942,-10227,4399,-11844,16254.939741506272
1735563275512,-192,10,961,980.0433663874268,-10104,4396,-8542,13942.072873141928
1735563275542,-192,10,961,980.0433663874268,-10030,4356,-5256,12132.649010006018
1735563275572,-192,10,961,980.0433663874268,-10013,4299,-2010,11080.689057996347
1735563275602,-170,13,992,1006.545080957629,-10027,4248,1193,10954.883933661735
1735563275633,-170,13,992,1006.545080957629,-10076,4212,4354,11756.87186287237
1735563275662,-170,13,992,1006.545080957629,-10137,4198,7499,13289.731900982804
1735563275692,-210,-67,1055,1077.7819816641954,-10177,4210,10651,15321.201976346372
1735563275722,-210,-67,1055,1077.7819816641954,-10086,4217,13874,17663.47533754329
1735563275752,-210,-67,1055,1077.7819816641954,-10020,4191,17088,20247.58318911173
1735563275782,-210,-67,1055,1077.7819816641954,-9996,4148,-15725,19089.304466114
1735563275812,-163,-47,1007,1021.1890128668639,-10070,4093,-12624,16659.019328880077
1735563275842,-163,-47,1007,1021.1890128668639,-10174,4076,-9563,14545.618618676897
1735563275872,-163,-47,1007,1021.1890128668639,-10258,4097,-6497,12814.951502054153
1735563275902,-194,-20,979,998.2369458199792,-10308,4152,-3403,11622.150274368336
1735563275932,-194,-20,979,998.2369458199792,-10301,4222,-243,11135.301253221665
1735563275963,-194,-20,979,998.2369458199792,-10241,4277,2960,11486.183439245606
1735563275992,-176,-11,971,986.8829717854088,-10165,4300,6192,12655.358114253424
1735563276022,-176,-11,971,986.8829717854088,-10128,4299,9408,14476.472256734374
1735563276052,-176,-11,971,986.8829717854088,-10104,4285,12618,16723.2163473418
1735563276082,-176,-11,971,986.8829717854088,-10099,4266,15816,19244.07475042643
1735563276112,-191,-23,1015,1033.070665540359,-10108,4252,-17010,20238.36129729875
1735563276142,-191,-23,1015,1033.070665540359,-10119,4241,-13840,17661.422422896747
1735563276172,-191,-23,1015,1033.070665540359,-10135,4236,-10675,15317.230363221675
1735563276202,-212,-65,987,1011.6017002753604,-10135,4241,-7501,13302.981132062092
1735563276232,-212,-65,987,1011.6017002753604,-10103,4239,-4308,11772.790408395114
1735563276292,-212,-65,987,1011.6017002753604,-10083,4227,-1121,10990.498578317545
1735563276293,-151,0,978,989.5882982331592,-10083,4206,2050,11115.746713559103
1735563276322,-151,0,978,989.5882982331592,-10204,4200,5131,12169.17322581941
1735563276352,-151,0,978,989.5882982331592,-10290,4234,8224,13836.366285987084
1735563276382,-151,0,978,989.5882982331592,-10323,4290,11351,15931.529430660448
1735563276412,-203,-27,987,1008.0213291394185,-10242,4346,14574,18335.423529332504
1735563276442,-203,-27,987,1008.0213291394185,-10124,4359,17843,20973.05189999777
1735563276472,-203,-27,987,1008.0213291394185,-10036,4330,-14897,18476.763921206548
1735563276501,-178,36,914,931.8669432917985,-10008,4270,-11662,15949.771409020255
1735563276532,-178,36,914,931.8669432917985,-10070,4221,-8476,13822.601672622994
1735563276562,-178,36,914,931.8669432917985,-10149,4201,-5313,12201.580676289446
1735563276592,-168,-50,1058,1072.4215589030277,-10220,4220,-2151,11264.262115203108
1735563276622,-168,-50,1058,1072.4215589030277,-10198,4259,1023,11098.86543751207
1735563276652,-168,-50,1058,1072.4215589030277,-10153,4283,4220,11799.826185160526
1735563276682,-168,-50,1058,1072.4215589030277,-10104,4286,7425,13251.084370722268
1735563276712,-192,-58,937,958.2259649999054,-10080,4271,10622,15253.679064409347
1735563276742,-192,-58,937,958.2259649999054,-10068,4249,13815,17614.563576767945
1735563276772,-192,-58,937,958.2259649999054,-10077,4227,16991,20201.67168825392
1735563276802,-120,-33,1020,1027.5645965096305,-10124,4202,-15881,19296.588843627258
1735563276832,-120,-33,1020,1027.5645965096305,-10220,4200,-12824,16927.592150096243
1735563276862,-120,-33,1020,1027.5645965096305,-10289,4229,-9755,14795.539429165805
1735563276892,-194,-21,1011,1029.6591669091283,-10306,4277,-6648,12988.54375979078
1735563276922,-194,-21,1011,1029.6591669091283,-10218,4322,-3400,11603.75835667048
1735563276952,-194,-21,1011,1029.6591669091283,-10123,4330,-133,11010.981700102857
1735563276982,-194,-21,1011,1029.6591669091283,-10054,4304,3122,11373.399491796637
1735563277012,-151,20,942,954.2352959307259,-10070,4251,6303,12617.595254247142
1735563277042,-151,20,942,954.2352959307259,-10139,4220,9438,14480.454585405805
1735563277072,-151,20,942,954.2352959307259,-10210,4217,12563,16728.901876692325
1735563277102,-189,13,959,977.533119643524,-10234,4248,15712,19226.211379260345
1735563277133,-189,13,959,977.533119643524,-10198,4281,-17085,20352.478718819486
1735563277162,-189,13,959,977.533119643524,-10148,4296,-13865,17710.89339926137
1735563277192,-271,-33,901,941.4515388483892,-10102,4291,-10642,15287.74832995363
1735563277222,-271,-33,901,941.4515388483892,-9979,4258,-7331,13094.06606062456
1735563277252,-271,-33,901,941.4515388483892,-9924,4190,-4062,11512.676491589607
1735563277282,-271,-33,901,941.4515388483892,-9940,4117,-845,10792.002316530516
1735563277312,-166,-53,1017,1031.820720861914,-10077,4065,2233,11093.080861510025
1735563277342,-166,-53,1017,1031.820720861914,-10228,4069,5260,12199.850203998409
1735563277372,-166,-53,1017,1031.820720861914,-10328,4122,8309,13881.568679367616
1735563277402,-196,-40,1013,1032.5623467858975,-10341,4205,11444,15986.977262759836
1735563277432,-196,-40,1013,1032.5623467858975,-10272,4279,14675,18416.82518785472
1735563277462,-196,-40,1013,1032.5623467858975,-10166,4315,17944,21070.21397613228
1735563277492,-203,32,993,1014.0424054249409,-10079,4308,-14785,18404.926786053784
1735563277522,-203,32,993,1014.0424054249409,-10094,4295,-11539,15921.19285732071
1735563277552,-203,32,993,1014.0424054249409,-10114,4289,-8298,13767.545932372988
1735563277582,-203,32,993,1014.0424054249409,-10132,4291,-5059,12110.474226883107
1735563277612,-175,-17,1000,1015.3393521379933,-10118,4297,-1841,11145.735238197612
1735563277642,-175,-17,1000,1015.3393521379933,-10101,4293,1365,11059.985307404346
1735563277672,-175,-17,1000,1015.3393521379933,-10092,4284,4567,11876.809714734003
1735563277702,-254,0,946,979.5059979397778,-10045,4266,7821,13426.42253170963
1735563277732,-254,0,946,979.5059979397778,-9984,4226,11130,15537.574842941223
1735563277762,-254,0,946,979.5059979397778,-9976,4175,14402,18010.241669672287
1735563277792,-166,-3,1002,1015.6618531775229,-10017,4125,17621,20684.66956468002
1735563277822,-166,-3,1002,1015.6618531775229,-10159,4092,-15326,18837.091627955735
1735563277852,-166,-3,1002,1015.6618531775229,-10280,4111,-12276,16531.14929458929
1735563277882,-166,-3,1002,1015.6618531775229,-10350,4166,-9197,14459.006362817605
1735563277942,-162,-59,1032,1046.3025375100644,-10314,4255,-6054,12693.877933870326
1735563277942,-162,-59,1032,1046.3025375100644,-10210,4309,-2860,11445.137875971614
1735563277973,-162,-59,1032,1046.3025375100644,-10098,4318,353,10988.14529390652
1735563278002,-178,-22,941,957.9399772428333,-10065,4275,3530,11490.898572348466
1735563278032,-178,-22,941,957.9399772428333,-10107,4232,6670,12827.711136442074
1735563278062,-178,-22,941,957.9399772428333,-10167,4210,9788,14727.421125234383
1735563278092,-183,-16,1040,1056.0989536970483,-10212,4221,12912,16994.75004229247
1735563278122,-183,-16,1040,1056.0989536970483,-10208,4258,16081,19517.48931087193
1735563278152,-183,-16,1040,1056.0989536970483,-10177,4287,-16726,20042.673823619443
1735563278182,-183,-16,1040,1056.0989536970483,-10134,4299,-13519,17433.95302276566
1735563278212,-183,-36,982,999.5544007206411,-10109,4294,-10305,15060.655430624525
1735563278242,-183,-36,982,999.5544007206411,-10092,4281,-7098,13059.748427898601
1735563278272,-183,-36,982,999.5544007206411,-10092,4264,-3903,11630.286711857107
1735563278302,-148,2,1031,1041.5704488895603,-10121,4246,-727,10999.622084417264
1735563278332,-148,2,1031,1041.5704488895603,-10188,4247,2417,11299.302721849699
1735563278363,-148,2,1031,1041.5704488895603,-10233,4270,5573,12409.895970555111
1735563278392,-202,-16,1016,1036.0096524646863,-10223,4304,8755,14130.964935205238
1735563278422,-202,-16,1016,1036.0096524646863,-10100,4312,12025,16285.084249091253
1735563278452,-202,-16,1016,1036.0096524646863,-10011,4278,15282,18763.28673233983
1735563278482,-202,-16,1016,1036.0096524646863,-9979,4221,-17497,20580.143123894937
1735563278512,-243,-2,947,977.6819523751064,-10024,4175,-14301,17956.330415761455
1735563278542,-243,-2,947,977.6819523751064,-10082,4154,-11110,15567.097995451817
1735563278572,-243,-2,947,977.6819523751064,-10137,4156,-7924,13521.127208927515
1735563278602,-170,-25,948,963.4464178147117,-10197,4177,-4774,12009.047172860968
1735563278632,-170,-25,948,963.4464178147117,-10251,4217,-1666,11208.998438754463
1735563278661,-170,-25,948,963.4464178147117,-10258,4267,1473,11207.300388586003
1735563278692,-200,16,917,938.693240627629,-10222,4311,4658,12032.080825858842
1735563278722,-200,16,917,938.693240627629,-10168,4342,7926,13603.773888153242
1735563278752,-200,16,917,938.693240627629,-10107,4350,11208,15706.470418270299
1735563278782,-146,-21,976,987.0830765442188,-10066,4333,14477,18157.168666948048
1735563278812,-146,-21,976,987.0830765442188,-10078,4298,17643,20768.108652450755
1735563278842,-146,-21,976,987.0830765442188,-10114,4273,-15212,18760.502898376686
1735563278872,-146,-21,976,987.0830765442188,-10158,4264,-12078,16347.621967735859
1735563278902,-157,-26,1018,1030.3635280812302,-10122,4261,-8887,14127.6244995399
1735563278932,-157,-26,1018,1030.3635280812302,-10097,4246,-5698,12346.8671734979
1735563278962,-157,-26,1018,1030.3635280812302,-10092,4225,-2523,11227.850105875123
1735563278992,-207,57,978,1001.2901677336096,-10099,4202,633,10956.609603339895
1735563279022,-207,57,978,1001.2901677336096,-10140,4188,3824,11618.171973249493
1735563279052,-207,57,978,1001.2901677336096,-10179,4191,7013,13052.152734319347
1735563279082,-173,-45,961,977.4840152145712,-10222,4218,10197,15041.928632991183
1735563279112,-173,-45,961,977.4840152145712,-10206,4263,13345,17332.76175339637
1735563279142,-173,-45,961,977.4840152145712,-10162,4294,16520,19864.920840516832
1735563279172,-173,-45,961,977.4840152145712,-10108,4303,-16290,19648.19515884347
1735563279202,-187,-11,930,948.6780275731066,-10126,4302,-13079,17091.030425342997
1735563279232,-187,-11,930,948.6780275731066,-10142,4311,-9859,14786.641471273995
1735563279262,-187,-11,930,948.6780275731066,-10146,4323,-6631,12868.558815966922
1735563279292,-186,-25,1068,1084.3638688189496,-10107,4331,-3391,11506.862778359704
1735563279323,-186,-25,1068,1084.3638688189496,-10058,4318,-152,10946.761712945066
1735563279352,-186,-25,1068,1084.3638688189496,-10035,4292,3071,11338.144909992992
1735563279382,-143,-25,990,1000.5868278165568,-10034,4256,6273,12575.580344461245
1735563279412,-143,-25,990,1000.5868278165568,-10088,4213,9399,14417.29218681511
1735563279442,-143,-25,990,1000.5868278165568,-10156,4196,12505,16647.09515200775
1735563279472,-143,-25,990,1000.5868278165568,-10215,4204,15610,19123.073523887313
1735563279502,-205,0,974,995.3396405247809,-10192,4230,-17199,20434.660873134155
1735563279532,-205,0,974,995.3396405247809,-10147,4244,-13971,17780.944463104315
1735563279561,-205,0,974,995.3396405247809,-10106,4240,-10741,15345.289733335112
1735563279592,-214,-7,960,983.5878201767242,-10086,4216,-7543,13281.524799510033
1735563279622,-214,-7,960,983.5878201767242,-10088,4187,-4370,11764.166481310947
1735563279652,-214,-7,960,983.5878201767242,-10112,4164,-1216,11003.185720508402
1735563279682,-189,-20,987,1005.1318321493952,-10141,4155,1933,11128.359942057949
1735563279712,-189,-20,987,1005.1318321493952,-10167,4157,5066,12095.986689807492
1735563279742,-189,-20,987,1005.1318321493952,-10184,4167,8204,13725.281818600302
1735563279772,-189,-20,987,1005.1318321493952,-10187,4180,11350,15813.597598269662
1735563279802,-180,-14,1027,1042.7487712771472,-10196,4202,14514,18228.31358080061
1735563279832,-180,-14,1027,1042.7487712771472,-10188,4224,17691,20847.27802376128
1735563279862,-180,-14,1027,1042.7487712771472,-10166,4239,-15119,18705.636530201264
1735563279892,-151,-40,995,1007.187172277328,-10155,4242,-11934,16233.88262246589
1735563279922,-151,-40,995,1007.187172277328,-10156,4239,-8771,14072.80704053033
1735563279952,-151,-40,995,1007.187172277328,-10159,4236,-5611,12354.444463430964
1735563279982,-198,-16,1022,1041.126313182027,-10167,4239,-2458,11286.220536565817
1735563280012,-198,-16,1022,1041.126313182027,-10156,4255,741,11036.233143604752
1735563280042,-198,-16,1022,1041.126313182027,-10136,4264,3950,11684.292533140379
1735563280072,-198,-16,1022,1041.126313182027,-10115,4265,7163,13107.708380948976
1735563280102,-151,-53,910,923.9642850240479,-10128,4265,10320,15075.443907228735
1735563280162,-151,-53,910,923.9642850240479,-10140,4267,13460,17383.857138161253
1735563280163,-151,-53,910,923.9642850240479,-10148,4272,16602,19921.3024674593
1735563280192,-168,-5,971,985.4389884716354,-10167,4272,-16256,19643.71169102214
1735563280222,-168,-5,971,985.4389884716354,-10199,4282,-13106,17149.995947521387
1735563280252,-168,-5,971,985.4389884716354,-10213,4301,-9944,14889.160688232228
1735563280282,-230,73,948,978.2295231692816,-10190,4315,-6757,12965.815593320769
1735563280312,-230,73,948,978.2295231692816,-10149,4317,-3471,11562.289176456365
1735563280342,-230,73,948,978.2295231692816,-10119,4304,-190,10997.939670683778
1735563280372,-230,73,948,978.2295231692816,-10109,4285,3077,11402.6766594515
1735563280402,-199,-22,1091,1109.2186439111092,-10026,4270,6349,12612.033024060791
1735563280432,-199,-22,1091,1109.2186439111092,-9971,4220,9581,14457.690064460505
1735563280462,-199,-22,1091,1109.2186439111092,-9973,4162,12773,16731.18352060009
1735563280492,-190,-28,1013,1031.0446159114551,-10029,4105,15916,19254.89345595036
1735563280522,-190,-28,1013,1031.0446159114551,-10117,4072,-16980,20180.56671652211
1735563280552,-190,-28,1013,1031.0446159114551,-10201,4075,-13885,17704.780456136697
1735563280582,-151,-1,1000,1011.3367391724677,-10262,4099,-10786,15441.769361054452
1735563280612,-151,-1,1000,1011.3367391724677,-10350,4137,-7732,13565.437442264809
1735563280642,-151,-1,1000,1011.3367391724677,-10383,4196,-4644,12123.52428133008
1735563280672,-151,-1,1000,1011.3367391724677,-10360,4256,-1513,11301.871747635432
1735563280702,-158,-28,908,922.0694117039129,-10293,4316,1660,11284.028757496146
1735563280732,-158,-28,908,922.0694117039129,-10193,4340,4866,12100.033264417087
1735563280762,-158,-28,908,922.0694117039129,-10107,4325,8073,13639.29627950064
1735563280792,-159,2,921,934.6261284599314,-10110,4296,11254,15726.418282622397
1735563280822,-159,2,921,934.6261284599314,-10163,4287,14419,18154.13173357514
1735563280852,-159,2,921,934.6261284599314,-10205,4297,17587,20782.41571617698
1735563280881,-177,14,963,979.2313311980985,-10216,4315,-15230,18839.819027793234
1735563280911,-177,14,963,979.2313311980985,-10191,4324,-12013,16336.022343275612
1735563280942,-177,14,963,979.2313311980985,-10167,4323,-8795,14121.19835566373
1735563280972,-177,14,963,979.2313311980985,-10153,4314,-5580,12362.459504483726
1735563281002,-136,10,1062,1070.719384339333,-10130,4296,-2368,11255.218345283223
1735563281032,-136,10,1062,1070.719384339333,-10138,4275,813,11032.48104462455
1735563281062,-136,10,1062,1070.719384339333,-10159,4262,3983,11714.70076442416
1735563281092,-137,-23,1067,1076.0051115120225,-10165,4256,7136,13128.718787452186
1735563281122,-137,-23,1067,1076.0051115120225,-10156,4245,10279,15060.617583618541
1735563281152,-137,-23,1067,1076.0051115120225,-10157,4234,13414,17350.123947684064
1735563281181,-106,-34,1086,1091.690432311285,-10178,4222,16537,19871.822689426353
1735563281212,-106,-34,1086,1091.690432311285,-10239,4218,-16387,19777.826321413584
1735563281272,-106,-34,1086,1091.690432311285,-10284,4235,-13306,17342.015943943774
1735563281272,-106,-34,1086,1091.690432311285,-10302,4263,-10208,15116.469065228162
1735563281302,-106,-60,1002,1009.3760448911,-10280,4298,-7109,13216.99984867973
1735563281332,-106,-60,1002,1009.3760448911,-10233,4316,-3991,11801.280693212919
1735563281362,-106,-60,1002,1009.3760448911,-10186,4316,-868,11096.660578750709
1735563281391,-24,17,979,979.4416776919389,-10223,4294,2195,11303.370736200774
1735563281422,-24,17,979,979.4416776919389,-10351,4303,5180,12348.741231396825
1735563281452,-24,17,979,979.4416776919389,-10433,4350,8187,13956.968080496566
1735563281482,-123,-44,963,971.819942170359,-10416,4424,11280,15978.211163956996
1735563281512,-123,-44,963,971.819942170359,-10150,4469,14625,18354.429601597538
1735563281542,-123,-44,963,971.819942170359,-9938,4414,17959,20994.59266096868
1735563281572,-123,-44,963,971.819942170359,-9844,4301,-14779,18270.7902948942
1735563281602,-91,-32,1099,1103.2252716467294,-9901,4184,-11659,15857.740633520274
1735563281632,-91,-32,1099,1103.2252716467294,-10035,4109,-8613,13848.063944104244
1735563281692,-91,-32,1099,1103.2252716467294,-10180,4092,-5592,12314.516961700121
1735563281693,-58,-27,955,957.1405330462188,-10293,4119,-2576,11381.906079387581
1735563281723,-58,-27,955,957.1405330462188,-10367,4176,445,11185.333700878127
1735563281752,-58,-27,955,957.1405330462188,-10375,4248,3512,11748.202968965083
1735563281782,-95,-33,910,915.5402776503063,-10347,4308,6599,13006.385893091132
1735563281812,-95,-33,910,915.5402776503063,-10286,4352,9709,14798.864179388904
1735563281842,-95,-33,910,915.5402776503063,-10211,4367,12841,16977.234492107364
1735563281872,-95,-33,910,915.5402776503063,-10148,4356,15972,19418.06952299842
1735563281902,-147,-39,961,972.9599169544448,-10104,4351,-16850,20123.233264065693
1735563281932,-147,-39,961,972.9599169544448,-10065,4330,-13663,17513.728729199844
1735563281962,-147,-39,961,972.9599169544448,-10055,4300,-10495,15157.112191971135
1735563281992,-189,-60,1040,1058.7355666076398,-10004,4257,-7281,13084.915972217781
1735563282022,-189,-60,1040,1058.7355666076398,-9957,4186,-4050,11535.464663376157
1735563282052,-189,-60,1040,1058.7355666076398,-9980,4115,-871,10830.155400547123
1735563282082,-145,-25,926,937.6171926751343,-10056,4062,2252,11076.75421773003
1735563282112,-145,-25,926,937.6171926751343,-10218,4049,5280,12193.45418657076
1735563282142,-145,-25,926,937.6171926751343,-10338,4092,8323,13888.521771592541
1735563282172,-145,-25,926,937.6171926751343,-10389,4167,11407,15981.703882878071
1735563282202,-161,-39,948,962.3647956985958,-10360,4259,14529,18345.585899610836
1735563282232,-161,-39,948,962.3647956985958,-10263,4323,17715,20924.59612513465
1735563282262,-161,-39,948,962.3647956985958,-10147,4342,-15070,18679.386312189166
1735563282292,-209,-66,1044,1066.7581731582843,-10044,4319,-11837,16113.667056260037
1735563282322,-209,-66,1044,1066.7581731582843,-9962,4259,-8596,13830.102711115345
1735563282382,-209,-66,1044,1066.7581731582843,-9953,4185,-5407,12075.267409047305
1735563282383,-169,-28,866,882.780267110678,-10023,4125,-2276,11075.031828396703
1735563282412,-169,-28,866,882.780267110678,-10199,4121,768,11026.87925026841
1735563282442,-169,-28,866,882.780267110678,-10322,4176,3834,11776.341367334764
1735563282472,-198,-33,963,983.6981244263912,-10363,4264,6956,13189.366967371861
1735563282502,-198,-33,963,983.6981244263912,-10288,4352,10186,15117.454944533489
1735563282532,-198,-33,963,983.6981244263912,-10166,4397,13467,17436.778773615268
1735563282562,-198,-33,963,983.6981244263912,-10049,4393,16760,20029.439582774154
1735563282592,-168,-70,950,967.2765891925638,-9950,4340,-15997,19332.410842934205
1735563282623,-168,-70,950,967.2765891925638,-9926,4262,-12820,16764.322831537218
1735563282651,-168,-70,950,967.2765891925638,-9969,4192,-9695,14524.009432660116
1735563282682,-176,-38,852,870.8180062447033,-10048,4150,-6606,12721.007821709725
1735563282713,-176,-38,852,870.8180062447033,-10146,4149,-3517,11511.941886580213
1735563282772,-176,-38,852,870.8180062447033,-10213,4181,-416,11043.513299670536
1735563282773,-196,-78,964,986.811025475496,-10232,4234,2714,11401.156783414568
1735563282803,-196,-78,964,986.811025475496,-10150,4284,5906,12500.239677702184
1735563282832,-196,-78,964,986.811025475496,-10056,4297,9119,14238.802828889793
1735563282863,-196,-78,964,986.811025475496,-9983,4275,12327,16428.35484764071
1735563282892,-216,-62,1037,1061.0697432308584,-9948,4233,15567,18952.90167757961
1735563282922,-216,-62,1037,1061.0697432308584,-9955,4189,-17216,20323.395434818463
1735563282952,-216,-62,1037,1061.0697432308584,-9994,4156,-14027,17717.480097350188
1735563282982,-186,-70,944,964.6926971839271,-10065,4136,-10892,15396.310759399474
1735563283012,-186,-70,944,964.6926971839271,-10147,4142,-7797,13450.31531228915
1735563283042,-186,-70,944,964.6926971839271,-10199,4174,-4688,11975.77642576881
1735563283072,-126,-41,1005,1013.6971934458535,-10218,4218,-1558,11163.620022197101
1735563283102,-126,-41,1005,1013.6971934458535,-10275,4273,1524,11231.95129975197
1735563283132,-126,-41,1005,1013.6971934458535,-10273,4336,4649,12080.919915304463
1735563283162,-126,-41,1005,1013.6971934458535,-10222,4387,7817,13595.60745240903
1735563283192,-184,3,893,911.764223908791,-10116,4411,11086,15642.562865464213
1735563283222,-184,3,893,911.764223908791,-10020,4397,14379,18069.024600127148
1735563283252,-184,3,893,911.764223908791,-9969,4354,17647,20730.53028747697
1735563283282,-130,-58,912,923.0427942408737,-9943,4297,-15141,18616.587737821344
1735563283312,-130,-58,912,923.0427942408737,-9959,4232,-12016,16170.212150741869
1735563283343,-130,-58,912,923.0427942408737,-10019,4184,-8931,14058.76872275805
1735563283372,-161,-22,1050,1062.499411764543,-10095,4159,-5857,12389.94572223785
1735563283402,-161,-22,1050,1062.499411764543,-10171,4163,-2736,11325.436238838662
1735563283432,-161,-22,1050,1062.499411764543,-10220,4191,397,11053.07604244176
1735563283462,-161,-22,1050,1062.499411764543,-10231,4230,3556,11628.043558569945
1735563283492,-144,-58,994,1006.0497005615578,-10194,4265,6705,12925.358254222589
1735563283523,-144,-58,994,1006.0497005615578,-10140,4277,9865,14779.396266424417
1735563283553,-144,-58,994,1006.0497005615578,-10093,4270,13024,17021.343219616952
1735563283582,-211,-14,880,905.0508273019809,-10092,4246,16192,19546.30000792989
1735563283612,-211,-14,880,905.0508273019809,-10110,4232,-16604,19895.09336494805
1735563283642,-211,-14,880,905.0508273019809,-10132,4227,-13407,17328.375630739312
1735563283672,-381,-10,1103,1166.9918594403305,-10145,4229,-10212,15003.013363987915
1735563283702,-381,-10,1103,1166.9918594403305,-10016,4219,-6817,12829.329912353178
1735563283732,-381,-10,1103,1166.9918594403305,-9940,4168,-3449,11316.864627625446
1735563283762,-381,-10,1103,1166.9918594403305,-9930,4101,-127,10744.264981840312
1735563283792,-182,17,1050,1065.792193628758,-10007,4011,3077,11211.427161606143
1735563283822,-182,17,1050,1065.792193628758,-10172,3976,6167,12542.330285875907
1735563283852,-182,17,1050,1065.792193628758,-10310,4003,9260,14424.552298078439
1735563283882,-214,-5,1028,1050.0499988095805,-10380,4074,12369,16653.349122623953
1735563283912,-214,-5,1028,1050.0499988095805,-10354,4151,15538,19127.612527443147
1735563283942,-214,-5,1028,1050.0499988095805,-10277,4205,-17246,20511.539922687425
1735563283972,-217,-44,925,951.1309058168597,-10211,4229,-14022,17854.00364064038
1735563284002,-217,-44,925,951.1309058168597,-10158,4238,-10817,15432.209725117138
1735563284032,-217,-44,925,951.1309058168597,-10116,4227,-7614,13348.182685294654
1735563284063,-217,-44,925,951.1309058168597,-10096,4205,-4424,11797.58521901834
1735563284092,-161,36,920,934.6748097600577,-10241,4193,-1328,11145.533365433887
1735563284122,-161,36,920,934.6748097600577,-10376,4241,1761,11346.743056930478
1735563284152,-161,36,920,934.6748097600577,-10433,4325,4901,12311.495238191013
1735563284182,-148,26,967,978.6056406949635,-10388,4413,8101,13892.851183252485
1735563284212,-148,26,967,978.6056406949635,-10280,4469,11349,15951.494036609862
1735563284242,-148,26,967,978.6056406949635,-10162,4477,14619,18358.2388588884
1735563284272,-210,10,1026,1047.3184806924778,-10069,4446,17889,21003.999571510183
1735563284302,-210,10,1026,1047.3184806924778,-9957,4382,-14781,18352.70372451972
1735563284332,-210,10,1026,1047.3184806924778,-9935,4294,-11514,15802.368714847784
1735563284362,-210,10,1026,1047.3184806924778,-9990,4218,-8309,13661.299535549317
1735563284392,-201,62,957,979.8438651132128,-10103,4162,-5149,12079.116441197179
1735563284422,-201,62,957,979.8438651132128,-10233,4160,-2007,11227.107285494336
1735563284452,-201,62,957,979.8438651132128,-10322,4202,1150,11203.704208876634
1735563284482,-188,-3,1046,1062.7647905345755,-10339,4275,4355,12005.68910975126
1735563284512,-188,-3,1046,1062.7647905345755,-10269,4334,7605,13493.403647708757
1735563284542,-188,-3,1046,1062.7647905345755,-10174,4358,10887,15525.115426301989
1735563284572,-184,57,882,902.7895657350056,-10118,4344,14149,17928.704944864254
1735563284602,-184,57,882,902.7895657350056,-10184,4334,17353,20582.12867999809
1735563284632,-184,57,882,902.7895657350056,-10235,4347,-15439,19026.674827725416
1735563284662,-184,57,882,902.7895657350056,-10259,4375,-12215,16540.67504668416
1735563284692,-140,5,995,1004.8134155155374,-10241,4404,-8983,14316.689072547466
1735563284722,-140,5,995,1004.8134155155374,-10206,4418,-5754,12521.568432109454
1735563284752,-140,5,995,1004.8134155155374,-10172,4417,-2521,11372.550901183076
1735563284782,-174,31,982,997.7780314278322,-10126,4400,730,11064.753770418933
1735563284812,-174,31,982,997.7780314278322,-10095,4369,3996,11703.21331942642
1735563284843,-174,31,982,997.7780314278322,-10100,4335,7235,13158.550452082478
1735563284873,-222,63,919,947.5304744439621,-10114,4307,10461,15174.839900308669
1735563284902,-222,63,919,947.5304744439621,-10106,4285,13741,17587.14138227131
1735563284932,-222,63,919,947.5304744439621,-10117,4266,17007,20243.282688338866
1735563284962,-222,63,919,947.5304744439621,-10140,4254,-15738,19198.978097805102
1735563284992,-209,1,993,1014.7566210673375,-10147,4241,-12551,16687.578943633496
1735563285022,-209,1,993,1014.7566210673375,-10152,4225,-9379,14452.659616831776
1735563285052,-209,1,993,1014.7566210673375,-10168,4214,-6216,12640.596346691877
1735563285082,-187,7,959,977.0869971502026,-10196,4192,-3074,11444.682433339949
1735563285112,-187,7,959,977.0869971502026,-10249,4177,33,11067.538976665048
1735563285142,-187,7,959,977.0869971502026,-10297,4182,3139,11548.621302995436
1735563285172,-117,-23,962,969.3616456204568,-10324,4206,6257,12783.796814718231
1735563285202,-117,-23,962,969.3616456204568,-10347,4238,9323,14558.137999071172
1735563285233,-117,-23,962,969.3616456204568,-10340,4271,12413,16710.46408691273
1735563285263,-117,-23,962,969.3616456204568,-10310,4295,15523,19123.45821236316
1735563285292,-164,8,916,930.5998065763822,-10261,4320,-17293,20566.924174508935
1735563285322,-164,8,916,930.5998065763822,-10204,4326,-14080,17918.76926577269
1735563285353,-164,8,916,930.5998065763822,-10161,4311,-10873,15493.636467918046
1735563285383,-220,76,933,961.5950291052882,-10149,4292,-7657,13418.38716090723
1735563285412,-220,76,933,961.5950291052882,-10158,4284,-4407,11872.626878665058
1735563285442,-220,76,933,961.5950291052882,-10170,4280,-1160,11094.723971329797
1735563285472,-210,0,993,1014.9625608858684,-10180,4290,2090,11242.980032002191
1735563285502,-210,0,993,1014.9625608858684,-10123,4300,5351,12231.039612395996
1735563285532,-210,0,993,1014.9625608858684,-10077,4289,8610,13931.028318110619
1735563285563,-210,0,993,1014.9625608858684,-10056,4264,11854,16118.999596749172
1735563285591,-185,39,919,938.2467692457033,-10132,4243,15033,18618.58109523924
1735563285622,-185,39,919,938.2467692457033,-10213,4257,-17798,20957.00889917261
1735563285652,-185,39,919,938.2467692457033,-10256,4294,-14610,18359.631586717638
1735563285712,-120,-8,969,976.4348416561138,-10223,4336,-11397,15912.329622025809
