Timestamp,Acc_X,Acc_Y,Acc_Z,Acc_Betrag,Ori_X,Ori_Y,Ori_Z,Ori_Betrag
1735565042057,-197,-75,989,1011.2146161918349,-10267,4303,-11373,15914.528802323995
1735565042057,-197,-75,989,1011.2146161918349,-10111,4285,-8070,13627.855517285176
1735565042058,-197,-75,989,1011.2146161918349,-10024,4219,-4804,11889.447127600173
1735565042088,-195,-52,1065,1083.9529510084835,-10003,4160,-1547,10943.437211406661
1735565042118,-195,-52,1065,1083.9529510084835,-10038,4110,1670,10974.627282965012
1735565042148,-195,-52,1065,1083.9529510084835,-10100,4081,4861,11928.69992916244
1735565042179,-229,1,944,971.3794315302337,-10202,4077,8013,13598.194806664596
1735565042209,-229,1,944,971.3794315302337,-10298,4117,11181,15748.436557322128
1735565042238,-229,1,944,971.3794315302337,-10333,4182,14388,18200.949343372176
1735565042268,-218,-55,985,1010.3336082700605,-10309,4248,17631,20860.80405928784
1735565042299,-218,-55,985,1010.3336082700605,-10214,4284,-15120,18742.808007339776
1735565042329,-218,-55,985,1010.3336082700605,-10122,4280,-11862,16170.353366577985
1735565042359,-224,-53,1007,1032.9733781661557,-10070,4245,-8623,13920.526354991036
1735565042389,-224,-53,1007,1032.9733781661557,-10068,4198,-5413,12177.372335606726
1735565042419,-224,-53,1007,1032.9733781661557,-10103,4160,-2234,11151.993767932261
1735565042449,-224,-53,1007,1032.9733781661557,-10155,4141,926,11005.879428741713
1735565042479,-246,-37,959,990.7401273795263,-10190,4136,4090,11733.31564392606
1735565042509,-246,-37,959,990.7401273795263,-10215,4144,7265,13202.241703589583
1735565042539,-246,-37,959,990.7401273795263,-10225,4159,10449,15199.654831607197
1735565042569,-207,-54,889,914.3773837973029,-10225,4173,13638,17548.77767823161
1735565042599,-207,-54,889,914.3773837973029,-10239,4177,16774,20091.080757390828
1735565042629,-207,-54,889,914.3773837973029,-10246,4184,-16084,19523.868161816707
1735565042659,-148,-82,963,977.750990794691,-10247,4194,-12941,17031.151634578328
1735565042689,-148,-82,963,977.750990794691,-10265,4200,-9865,14843.464891998769
1735565042719,-148,-82,963,977.750990794691,-10273,4211,-6783,13010.616395851504
1735565042749,-148,-82,963,977.750990794691,-10271,4223,-3693,11703.222590380823
1735565042779,-237,-10,931,960.744502976728,-10259,4234,-517,11110.406203195273
1735565042809,-237,-10,931,960.744502976728,-10235,4243,2699,11403.63428912029
1735565042839,-237,-10,931,960.744502976728,-10212,4243,5920,12543.30072189932
1735565042869,-314,0,943,993.9039188975964,-10113,4217,9181,14294.985799223447
1735565042898,-314,0,943,993.9039188975964,-10012,4144,12472,16521.612027886382
1735565042928,-314,0,943,993.9039188975964,-10002,4051,15700,19051.000104981365
1735565042959,-244,-99,826,866.9561695956722,-10107,3983,-17160,20309.636579712598
1735565042989,-244,-99,826,866.9561695956722,-10270,3976,-14181,17955.005903647037
1735565043019,-244,-99,826,866.9561695956722,-10388,4023,-11187,15787.464710966102
1735565043048,-244,-99,826,866.9561695956722,-10436,4101,-8151,13862.434778926825
1735565043079,-172,-29,1093,1106.8306103464975,-10342,4236,-4821,12171.388622503186
1735565043109,-172,-29,1093,1106.8306103464975,-10199,4322,-1437,11169.792030293134
1735565043139,-172,-29,1093,1106.8306103464975,-10036,4339,1984,11112.356770730501
1735565043169,-183,-61,968,987.0329275155921,-9989,4283,5228,12060.522128000926
1735565043199,-183,-61,968,987.0329275155921,-10022,4215,8350,13708.72747559014
1735565043229,-183,-61,968,987.0329275155921,-10095,4171,11434,15812.736069384071
1735565043259,-148,-96,1010,1025.2902028206454,-10204,4177,14511,18224.655442559128
1735565043288,-148,-96,1010,1025.2902028206454,-10302,4258,17600,20833.189098167375
1735565043319,-148,-96,1010,1025.2902028206454,-10308,4356,-15246,18912.168463716687
1735565043349,-148,-96,1010,1025.2902028206454,-10234,4437,-12024,16401.167671845807
1735565043380,-285,-123,1100,1142.9584419391633,-9950,4462,-8603,13889.692329205856
1735565043410,-285,-123,1100,1142.9584419391633,-9708,4374,-5162,11833.147679294803
1735565043440,-285,-123,1100,1142.9584419391633,-9626,4223,-1825,10668.843892381217
1735565043470,-363,-74,862,938.2371768374989,-9727,4077,1407,10640.305775681449
1735565043499,-363,-74,862,938.2371768374989,-9907,4000,4618,11639.35449241065
1735565043529,-363,-74,862,938.2371768374989,-10082,4001,7811,13366.616849449976
1735565043559,-207,-66,934,958.9374327869364,-10219,4059,10989,15545.467603131145
1735565043588,-207,-66,934,958.9374327869364,-10426,4155,13958,17910.646694075567
1735565043619,-207,-66,934,958.9374327869364,-10501,4302,17011,20448.773215036643
1735565043649,-207,-66,934,958.9374327869364,-10439,4447,-15829,19475.773951245174
1735565043680,-202,68,832,858.866695127946,-10243,4473,-12546,16802.645446476574
1735565043709,-202,68,832,858.866695127946,-10120,4443,-9270,14425.239998003499
1735565043739,-202,68,832,858.866695127946,-10064,4379,-6035,12525.213052080193
1735565043769,-189,43,805,828.0066424854332,-9999,4297,-2825,11243.87989085618
1735565043799,-189,43,805,828.0066424854332,-9987,4192,320,10835.840207385858
1735565043828,-189,43,805,828.0066424854332,-10056,4104,3400,11380.946885035533
1735565043858,-230,-8,973,999.8464882170663,-10143,4064,6490,12708.919899031545
1735565043889,-230,-8,973,999.8464882170663,-10115,4059,9723,14605.66448334344
1735565043919,-230,-8,973,999.8464882170663,-10099,4046,12949,16912.614168129065
1735565043949,-230,-8,973,999.8464882170663,-10099,4030,16165,19481.73313645375
1735565043980,-209,-55,1113,1133.787899035794,-10164,4012,-16653,19917.96799374876
1735565044010,-209,-55,1113,1133.787899035794,-10215,4017,-13482,17385.247711781387
1735565044040,-209,-55,1113,1133.787899035794,-10246,4037,-10302,15080.08915756137
1735565044069,-222,2,1027,1050.722132630697,-10359,4056,-7182,13241.644195491737
1735565044100,-222,2,1027,1050.722132630697,-10486,4123,-4066,11978.634354549771
1735565044129,-222,2,1027,1050.722132630697,-10522,4220,-891,11371.665005618132
1735565044159,-181,-50,925,943.8675754574897,-10477,4311,2334,11567.18660694985
1735565044189,-181,-50,925,943.8675754574897,-10380,4362,5529,12543.575447215997
1735565044219,-181,-50,925,943.8675754574897,-10274,4369,8745,14181.617044610957
1735565044249,-181,-50,925,943.8675754574897,-10197,4341,11949,16297.290909841427
1735565044279,-226,30,914,942.0042462749306,-10180,4292,15182,18776.22933392112
1735565044309,-226,30,914,942.0042462749306,-10211,4254,-17598,20785.82788825117
1735565044339,-226,30,914,942.0042462749306,-10262,4234,-14399,18181.490615458348
1735565044369,-198,-6,944,964.5600033175748,-10283,4248,-11174,15768.44535773898
1735565044399,-198,-6,944,964.5600033175748,-10269,4266,-7936,13661.303488320578
1735565044429,-198,-6,944,964.5600033175748,-10245,4275,-4689,12050.824494614466
1735565044459,-284,11,904,947.6249258013426,-10213,4274,-1424,11162.446909168259
1735565044489,-284,11,904,947.6249258013426,-10128,4256,1962,11159.720605821634
1735565044519,-284,11,904,947.6249258013426,-10087,4213,5324,12159.026030073297
1735565044549,-284,11,904,947.6249258013426,-10093,4165,8651,13930.38674983577
1735565044580,-236,51,969,998.6280588887937,-10169,4122,11884,16174.946707794743
1735565044609,-236,51,969,998.6280588887937,-10271,4119,15085,18708.736648956285
1735565044638,-236,51,969,998.6280588887937,-10342,4151,-17701,20916.815388581505
1735565044669,-176,-19,945,961.4374654651232,-10365,4198,-14513,18321.670174959487
1735565044699,-176,-19,945,961.4374654651232,-10345,4232,-11358,15935.275742829177
1735565044729,-176,-19,945,961.4374654651232,-10306,4254,-8184,13830.690799811844
1735565044759,-186,-68,947,967.4859172101679,-10271,4260,-5008,12195.126280608987
1735565044789,-186,-68,947,967.4859172101679,-10214,4251,-1835,11214.455938653466
1735565044819,-186,-68,947,967.4859172101679,-10182,4225,1322,11102.766907397452
1735565044849,-186,-68,947,967.4859172101679,-10181,4193,4459,11879.254648335476
1735565044879,-240,15,900,931.5712533134542,-10236,4169,7636,13433.717020988644
1735565044909,-240,15,900,931.5712533134542,-10294,4176,10831,15515.02410568543
1735565044939,-240,15,900,931.5712533134542,-10327,4202,14039,17927.555717386575
1735565044969,-219,-45,1006,1030.5445162631258,-10294,4242,17274,20551.20619331138
1735565044999,-219,-45,1006,1030.5445162631258,-10212,4255,-15479,19026.019289383683
1735565045029,-219,-45,1006,1030.5445162631258,-10146,4238,-12236,16450.582238936106
1735565045059,-209,-16,974,996.2996537186992,-10107,4200,-9014,14178.986035679702
1735565045089,-209,-16,974,996.2996537186992,-10125,4155,-5831,12400.814932898564
1735565045119,-209,-16,974,996.2996537186992,-10170,4125,-2674,11295.786869448273
1735565045149,-209,-16,974,996.2996537186992,-10223,4116,470,11030.507014638992
1735565045179,-268,-34,1019,1054.2015936242935,-10224,4131,3641,11612.588772534744
1735565045209,-268,-34,1019,1054.2015936242935,-10196,4139,6842,12957.72746279223
1735565045239,-268,-34,1019,1054.2015936242935,-10172,4136,10044,14881.465519228945
1735565045297,-231,-64,974,1003.0618126516431,-10153,4121,13213,17165.355195858898
1735565045298,-231,-64,974,1003.0618126516431,-10154,4095,16333,19663.15412135093
1735565045329,-231,-64,974,1003.0618126516431,-10173,4075,-16562,19859.39067544621
1735565045359,-228,-50,953,981.1692004950013,-10209,4067,-13457,17373.97533669252
1735565045389,-228,-50,953,981.1692004950013,-10263,4086,-10331,15124.619862991598
1735565045419,-228,-50,953,981.1692004950013,-10287,4119,-7186,13207.086204004274
1735565045449,-228,-50,953,981.1692004950013,-10277,4153,-4017,11789.844231371337
1735565045479,-236,-45,960,989.6064874484201,-10233,4189,-815,11087.210424628911
1735565045509,-236,-45,960,989.6064874484201,-10175,4202,2406,11268.37455004048
1735565045539,-236,-45,960,989.6064874484201,-10126,4194,5629,12321.166868442291
1735565045569,-260,-138,1032,1073.1579566867126,-10094,4181,8838,14052.752079219215
1735565045599,-260,-138,1032,1073.1579566867126,-10038,4150,12047,16220.793846171648
1735565045629,-260,-138,1032,1073.1579566867126,-10024,4106,15227,18686.929683605063
1735565045659,-203,-90,1062,1084.9668197691578,-10053,4066,-17617,20687.045559963364
1735565045689,-203,-90,1062,1084.9668197691578,-10188,4056,-14538,18209.885337365526
1735565045719,-203,-90,1062,1084.9668197691578,-10287,4093,-11447,15925.100533434632
1735565045749,-203,-90,1062,1084.9668197691578,-10327,4157,-8320,13897.840767543712
1735565045780,-268,-35,893,933.0048231386588,-10357,4223,-5155,12315.648703986322
1735565045809,-268,-35,893,933.0048231386588,-10321,4290,-1915,11339.945590698397
1735565045839,-268,-35,893,933.0048231386588,-10243,4332,1364,11204.720835433607
1735565045869,-278,-33,970,1009.5905110489103,-10137,4339,4657,11969.68416458847
1735565045899,-278,-33,970,1009.5905110489103,-10047,4307,7941,13511.17829798719
1735565045929,-278,-33,970,1009.5905110489103,-10014,4252,11189,15606.19815970565
1735565045959,-261,-15,854,893.1192529556173,-10019,4193,14410,18044.658766515924
1735565045989,-261,-15,854,893.1192529556173,-10069,4141,17601,20696.082793610967
1735565046019,-261,-15,854,893.1192529556173,-10142,4116,-15231,18755.931888338688
1735565046049,-243,-1,921,952.518241295147,-10203,4118,-12069,16331.561284825159
1735565046079,-243,-1,921,952.518241295147,-10260,4135,-8918,14209.030543988565
1735565046109,-243,-1,921,952.518241295147,-10284,4168,-5748,12496.89497435263
1735565046139,-243,-1,921,952.518241295147,-10276,4204,-2553,11392.436131047652
1735565046169,-254,-46,1041,1072.5264565501402,-10217,4241,699,11084.30290997138
1735565046199,-254,-46,1041,1072.5264565501402,-10115,4247,3994,11674.85631603233
1735565046229,-254,-46,1041,1072.5264565501402,-10044,4217,7276,13099.816830780497
1735565046259,-224,-101,1039,1067.6600582582455,-10026,4169,10523,15120.673463837515
1735565046289,-224,-101,1039,1067.6600582582455,-10043,4118,13691,17471.784511033784
1735565046319,-224,-101,1039,1067.6600582582455,-10093,4083,16829,20043.8214669758
1735565046349,-224,23,1019,1043.5832501530483,-10162,4066,-16053,19429.292550167647
1735565046379,-224,23,1019,1043.5832501530483,-10329,4097,-12948,17062.36660021112
1735565046409,-224,23,1019,1043.5832501530483,-10419,4179,-9801,14902.322067382653
1735565046439,-224,23,1019,1043.5832501530483,-10417,4276,-6590,13047.07495954553
1735565046469,-244,-18,942,973.2543346936607,-10285,4372,-3293,11650.727788425924
1735565046499,-244,-18,942,973.2543346936607,-10105,4397,57,11020.339513826242
1735565046529,-244,-18,942,973.2543346936607,-9967,4357,3396,11395.497093150434
1735565046559,-222,-27,949,974.9943589580404,-9918,4277,6675,12697.049972336094
1735565046589,-222,-27,949,974.9943589580404,-9971,4199,9848,14629.953725148962
1735565046619,-222,-27,949,974.9943589580404,-10066,4153,12980,16942.613877439337
1735565046679,-196,-23,961,981.0535153598911,-10163,4147,16100,19485.742941956305
1735565046680,-196,-23,961,981.0535153598911,-10252,4175,-16792,20112.319433620778
1735565046709,-196,-23,961,981.0535153598911,-10292,4228,-13655,17614.20656742733
1735565046739,-196,-23,961,981.0535153598911,-10278,4284,-10479,15290.499697524603
1735565046769,-236,-79,964,995.606850117053,-10183,4326,-7236,13219.964485580133
1735565046799,-236,-79,964,995.606850117053,-10065,4321,-3967,11649.564584137897
1735565046829,-236,-79,964,995.606850117053,-9992,4277,-719,10892.646785790863
1735565046860,-266,-26,995,1030.270352868605,-9998,4217,2501,11135.443143404756
1735565046889,-266,-26,995,1030.270352868605,-10061,4180,5712,12301.34403225924
1735565046919,-266,-26,995,1030.270352868605,-10132,4171,8910,14122.420649449583
1735565046949,-236,-9,939,968.2448037557444,-10186,4185,12113,16370.509766039664
1735565046979,-236,-9,939,968.2448037557444,-10248,4214,15301,18891.794541546336
1735565047009,-236,-9,939,968.2448037557444,-10267,4258,-17483,20717.073683317343
1735565047038,-236,-9,939,968.2448037557444,-10246,4300,-14235,18058.39807402639
1735565047069,-219,26,912,938.2862036713532,-10235,4305,-11001,15630.427089494387
1735565047099,-219,26,912,938.2862036713532,-10235,4309,-7770,13553.435210307385
1735565047129,-219,26,912,938.2862036713532,-10232,4312,-4536,11994.267964323626
1735565047159,-250,14,960,992.1169285925929,-10199,4313,-1275,11146.622582648073
1735565047189,-250,14,960,992.1169285925929,-10149,4297,2011,11203.148262876824
1735565047219,-250,14,960,992.1169285925929,-10130,4267,5278,12193.501260917637
1735565047249,-245,-1,942,973.3396118518963,-10143,4238,8523,13909.803089907491
1735565047280,-245,-1,942,973.3396118518963,-10171,4220,11744,16099.042735516916
1735565047309,-245,-1,942,973.3396118518963,-10203,4214,14958,18590.340744590994
1735565047339,-245,-1,942,973.3396118518963,-10229,4221,-17826,20981.314496475192
1735565047369,-187,20,928,946.8648266780217,-10268,4237,-14626,18365.834285433375
1735565047399,-187,20,928,946.8648266780217,-10298,4268,-11431,15966.602299800668
1735565047429,-187,20,928,946.8648266780217,-10295,4303,-8211,13853.640496273894
1735565047459,-236,-7,987,1014.8467864658192,-10227,4330,-4940,12155.00016454134
1735565047489,-236,-7,987,1014.8467864658192,-10116,4319,-1620,11118.076137533868
1735565047519,-236,-7,987,1014.8467864658192,-10052,4272,1673,11049.507545587721
1735565047549,-229,3,982,1008.3521210370909,-10044,4214,4919,11951.413849415474
1735565047578,-229,3,982,1008.3521210370909,-10092,4165,8105,13597.305394819961
1735565047609,-229,3,982,1008.3521210370909,-10161,4142,11267,15727.28120178437
1735565047639,-229,3,982,1008.3521210370909,-10224,4146,14425,18160.399692738043
1735565047669,-199,-9,926,947.1842481798354,-10281,4190,17580,20792.10092799667
1735565047699,-199,-9,926,947.1842481798354,-10291,4243,-15241,18873.15053190643
1735565047729,-199,-9,926,947.1842481798354,-10256,4290,-12026,16377.249830176006
1735565047759,-284,-13,906,949.5583183775497,-10189,4320,-8759,14113.75931493803
1735565047789,-284,-13,906,949.5583183775497,-10083,4317,-5419,12233.925739516322
1735565047819,-284,-13,906,949.5583183775497,-10016,4280,-2098,11092.351418883194
1735565047849,-230,-21,950,977.6712126272308,-10009,4225,1174,10927.441695108695
1735565047879,-230,-21,950,977.6712126272308,-10093,4180,4323,11748.590468647717
1735565047909,-230,-21,950,977.6712126272308,-10185,4172,7456,13294.04923264541
1735565047939,-230,-21,950,977.6712126272308,-10253,4195,10597,15330.311249286493
1735565047969,-180,0,966,982.6270910167295,-10310,4245,13754,17705.610438502255
1735565047999,-180,0,966,982.6270910167295,-10326,4309,16934,20296.65275359462
1735565048029,-180,0,966,982.6270910167295,-10286,4365,-15840,19384.545932262638
1735565048059,-178,10,907,924.3554511117463,-10180,4393,-12551,16746.893741825676
1735565048089,-178,10,907,924.3554511117463,-10078,4376,-9247,14360.448077967483
1735565048119,-178,10,907,924.3554511117463,-10025,4328,-5971,12445.282238663774
1735565048149,-231,29,981,1008.2474894588133,-10017,4270,-2732,11226.62072932011
1735565048179,-231,29,981,1008.2474894588133,-10013,4213,531,10876.189544137229
1735565048209,-231,29,981,1008.2474894588133,-10055,4166,3758,11514.388607303472
1735565048239,-231,29,981,1008.2474894588133,-10118,4144,6963,12962.639738880349
1735565048268,-107,23,990,996.0311240116947,-10279,4125,9956,14892.79698377709
1735565048298,-107,23,990,996.0311240116947,-10432,4163,12912,17113.647682478448
1735565048329,-107,23,990,996.0311240116947,-10511,4243,15910,19534.898771173604
1735565048359,-277,0,1028,1064.6656752239173,-10460,4358,-16929,20371.421280804145
1735565048389,-277,0,1028,1064.6656752239173,-10234,4432,-13544,17544.723309303
1735565048419,-277,0,1028,1064.6656752239173,-10023,4413,-10142,14926.327813631859
1735565048448,-212,2,911,935.344321627068,-9927,4330,-6807,12791.773841027678
1735565048479,-212,2,911,935.344321627068,-10019,4251,-3649,11478.961756186838
1735565048509,-212,2,911,935.344321627068,-10140,4217,-527,10994.56311091987
1735565048539,-212,2,911,935.344321627068,-10247,4228,2590,11383.544834540777
1735565048569,-212,0,963,986.0593288438581,-10279,4271,5774,12539.471998453524
1735565048599,-212,0,963,986.0593288438581,-10266,4316,8991,14312.815690841548
1735565048628,-212,0,963,986.0593288438581,-10222,4348,12236,16526.16362015093
1735565048659,-259,-1,972,1005.9155034097049,-10113,4351,15547,19050.280286651952
1735565048689,-259,-1,972,1005.9155034097049,-9999,4306,-17107,20277.35401870767
1735565048719,-259,-1,972,1005.9155034097049,-9961,4232,-13812,17547.156151353985
1735565048749,-213,20,1005,1027.5183696654772,-9981,4155,-10572,15121.229116708733
1735565048778,-213,20,1005,1027.5183696654772,-10085,4092,-7435,13180.702333335656
1735565048809,-213,20,1005,1027.5183696654772,-10201,4076,-4321,11804.45754789266
1735565048839,-213,20,1005,1027.5183696654772,-10291,4102,-1201,11143.315754298628
1735565048869,-207,-10,977,998.7382039353456,-10346,4153,1901,11309.329157823642
1735565048899,-207,-10,977,998.7382039353456,-10340,4210,5040,12249.134663313976
1735565048928,-207,-10,977,998.7382039353456,-10292,4254,8215,13838.641732482274
1735565048959,-219,-42,923,949.55463244618,-10240,4290,11436,15938.751394008252
1735565048989,-219,-42,923,949.55463244618,-10164,4306,14696,18379.906093340087
1735565049019,-219,-42,923,949.55463244618,-10101,4293,17955,21043.813223843248
1735565049049,-145,-8,907,918.5521215478194,-10078,4261,-14813,18415.94890305683
1735565049079,-145,-8,907,918.5521215478194,-10183,4242,-11708,16086.184040971308
1735565049109,-145,-8,907,918.5521215478194,-10268,4260,-8600,14054.871895538572
1735565049139,-145,-8,907,918.5521215478194,-10312,4303,-5469,12440.382389621309
1735565049169,-218,-32,946,971.3207503188635,-10240,4349,-2224,11345.376899865425
1735565049199,-218,-32,946,971.3207503188635,-10133,4357,1068,11081.595643227558
1735565049229,-218,-32,946,971.3207503188635,-10056,4327,4350,11780.007003393504
1735565049259,-286,14,964,1005.6281618968316,-10022,4273,7624,13297.53319228796
1735565049289,-286,14,964,1005.6281618968316,-10031,4220,10911,15410.362812082005
1735565049319,-286,14,964,1005.6281618968316,-10077,4181,14164,17878.63490314627
1735565049349,-230,-22,917,945.6600869234146,-10137,4165,17384,20550.16909906096
1735565049379,-230,-22,917,945.6600869234146,-10203,4163,-15495,19013.858182914904
1735565049409,-230,-22,917,945.6600869234146,-10249,4183,-12367,16597.655828459632
1735565049439,-230,-22,917,945.6600869234146,-10265,4214,-9221,14427.57297676917
1735565049469,-243,0,955,985.4308702288557,-10220,4268,-5974,12583.834868592325
1735565049499,-243,0,955,985.4308702288557,-10149,4298,-2692,11345.566050224203
1735565049529,-243,0,955,985.4308702288557,-10079,4298,598,10973.452009281309
1735565049559,-224,15,943,969.3554559602994,-10056,4274,3831,11578.720697900955
1735565049589,-224,15,943,969.3554559602994,-10081,4252,7011,12994.62142580537
1735565049619,-224,15,943,969.3554559602994,-10115,4243,10181,14965.59504329848
1735565049648,-297,-38,928,975.1087118880642,-10121,4245,13366,17294.64142444127
1735565049678,-297,-38,928,975.1087118880642,-9993,4223,16664,19884.231793056526
1735565049709,-297,-38,928,975.1087118880642,-9926,4161,-16072,19342.92069466243
1735565049739,-297,-38,928,975.1087118880642,-9929,4089,-12859,16752.875663598774
1735565049769,-213,-103,1059,1085.1078287433006,-9992,4047,-9719,14514.724730424618
1735565049799,-213,-103,1059,1085.1078287433006,-10070,4031,-6630,12712.622113474466
1735565049829,-213,-103,1059,1085.1078287433006,-10135,4044,-3539,11471.559702150358
1735565049859,-193,-18,883,904.0254421198554,-10255,4056,-532,11040.796393376702
1735565049889,-193,-18,883,904.0254421198554,-10378,4120,2483,11438.6438444424
1735565049919,-193,-18,883,904.0254421198554,-10415,4214,5554,12533.033830641327
1735565049949,-204,-48,966,988.471547390212,-10364,4312,8704,14204.416777889897
1735565049979,-204,-48,966,988.471547390212,-10200,4383,11959,16317.731766394494
1735565050009,-204,-48,966,988.471547390212,-10032,4385,15239,18764.231132663015
1735565050039,-308,-68,921,973.5137389888239,-9920,4336,-17489,20568.72424337494
1735565050069,-308,-68,921,973.5137389888239,-9788,4255,-14114,17695.054817660217
1735565050099,-308,-68,921,973.5137389888239,-9767,4147,-10815,15151.109629330784
1735565050129,-308,-68,921,973.5137389888239,-9834,4055,-7587,13065.724243225095
1735565050159,-289,-89,921,969.3724774306314,-9944,4023,-4417,11600.756613255879
1735565050189,-289,-89,921,969.3724774306314,-10041,4034,-1257,10893.800346986354
1735565050219,-289,-89,921,969.3724774306314,-10098,4076,1921,11057.740320698438
1735565050249,-221,-14,936,961.8383440058938,-10110,4126,5125,12062.40444521738
1735565050279,-221,-14,936,961.8383440058938,-10194,4186,8268,13776.794111838937
1735565050309,-221,-14,936,961.8383440058938,-10206,4262,11460,15926.665689967878
1735565050339,-264,-86,996,1033.9767889077589,-10145,4330,14712,18387.845686757326
1735565050368,-264,-86,996,1033.9767889077589,-9945,4347,-17930,20959.11100213938
1735565050399,-264,-86,996,1033.9767889077589,-9800,4292,-14595,18096.278319035657
1735565050429,-264,-86,996,1033.9767889077589,-9750,4200,-11320,15519.178457637505
1735565050459,-218,-81,914,943.123003642685,-9810,4093,-8174,13409.06503079167
1735565050489,-218,-81,914,943.123003642685,-9939,4028,-5101,11875.550766175016
1735565050519,-218,-81,914,943.123003642685,-10074,4019,-2047,11037.574280610754
1735565050549,-164,-68,881,898.7107432316585,-10171,4056,1030,10998.239722792006
1735565050579,-164,-68,881,898.7107432316585,-10233,4122,4120,11776.229150284058
1735565050609,-164,-68,881,898.7107432316585,-10226,4197,7260,13224.730053955733
1735565050639,-229,-58,995,1022.6583007045901,-10165,4255,10446,15183.911419657321
1735565050669,-229,-58,995,1022.6583007045901,-10039,4278,13733,17540.75522889479
1735565050699,-229,-58,995,1022.6583007045901,-9938,4253,17016,20159.26856312004
1735565050729,-229,-58,995,1022.6583007045901,-9890,4200,-15732,19051.192193665993
1735565050759,-178,-76,1032,1049.992380924738,-9913,4134,-12602,16558.01706123049
1735565050789,-178,-76,1032,1049.992380924738,-9985,4089,-9528,14394.545147381352
1735565050819,-178,-76,1032,1049.992380924738,-10067,4076,-6472,12642.98418095981
1735565050849,-182,-41,940,958.3344927529218,-10166,4087,-3432,11481.713678715387
1735565050879,-182,-41,940,958.3344927529218,-10253,4135,-378,11061.876784705206
1735565050909,-182,-41,940,958.3344927529218,-10277,4203,2715,11430.361455352144
1735565050939,-136,-72,1045,1056.2693785204606,-10235,4270,5872,12548.645703819995
1735565050969,-136,-72,1045,1056.2693785204606,-10150,4312,9047,14264.082620344008
1735565050999,-136,-72,1045,1056.2693785204606,-10061,4317,12238,16420.379228263882
1735565051029,-136,-72,1045,1056.2693785204606,-9997,4291,15418,18869.748646974607
1735565051059,-223,-58,970,996.9919758954934,-9961,4257,-17356,20459.088591625972
1735565051089,-223,-58,970,996.9919758954934,-9947,4214,-14126,17783.264070468053
1735565051119,-223,-58,970,996.9919758954934,-9970,4176,-10925,15368.653194083077
1735565051149,-151,-38,988,1000.1944810885531,-10078,4149,-7837,13423.816670381044
1735565051179,-151,-38,988,1000.1944810885531,-10234,4169,-4835,12062.028933807114
1735565051209,-151,-38,988,1000.1944810885531,-10327,4237,-1801,11306.75457414726
1735565051239,-163,-95,990,1007.8164515426407,-10336,4329,1294,11280.406597281855
1735565051269,-163,-95,990,1007.8164515426407,-10206,4407,4482,11986.342603146299
1735565051299,-163,-95,990,1007.8164515426407,-10055,4427,7707,13420.104433274728
1735565051329,-163,-95,990,1007.8164515426407,-9938,4394,10922,15406.529914292836
1735565051359,-153,-7,838,851.8814471509519,-9953,4322,14095,17787.94305140423
1735565051389,-153,-7,838,851.8814471509519,-10038,4278,17223,20388.586439476378
1735565051419,-153,-7,838,851.8814471509519,-10129,4270,-15663,19135.284424329835
1735565051449,-198,-40,985,1005.499378418505,-10137,4299,-12491,16651.283764322798
1735565051479,-198,-40,985,1005.499378418505,-10065,4316,-9249,14334.43692650674
1735565051509,-198,-40,985,1005.499378418505,-10004,4305,-6006,12437.245555186244
1735565051539,-195,-4,1065,1082.7123348332188,-9962,4273,-2766,11187.078662456968
1735565051569,-195,-4,1065,1082.7123348332188,-9974,4232,467,10844.749374697416
1735565051599,-195,-4,1065,1082.7123348332188,-10014,4204,3677,11466.217379763912
1735565051629,-195,-4,1065,1082.7123348332188,-10062,4194,6875,12887.944172753078
1735565051659,-223,-45,1045,1069.4760399373145,-10042,4193,10059,14819.125952632969
1735565051689,-223,-45,1045,1069.4760399373145,-10016,4179,13248,17125.822637175712
1735565051719,-223,-45,1045,1069.4760399373145,-10009,4159,16424,19678.036944776784
1735565051749,-213,-50,963,987.5413915375901,-10018,4137,-16380,19641.2701473199
1735565051779,-213,-50,963,987.5413915375901,-10042,4120,-13188,17080.383719343077
1735565051809,-213,-50,963,987.5413915375901,-10070,4115,-10003,14778.299428554017
1735565051839,-186,-4,964,981.788164524303,-10097,4116,-6826,12864.102805870296
1735565051869,-186,-4,964,981.788164524303,-10178,4130,-3697,11589.494941540808
1735565051899,-186,-4,964,981.788164524303,-10222,4168,-548,11052.683475066135
1735565051929,-186,-4,964,981.788164524303,-10223,4214,2630,11365.932649809254
1735565051959,-193,-22,862,883.6158667656438,-10249,4260,5745,12497.784843723306
1735565051989,-193,-22,862,883.6158667656438,-10226,4302,8895,14219.68020034206
1735565052019,-193,-22,862,883.6158667656438,-10177,4330,12071,16371.599494246126
1735565052049,-224,-48,921,949.0632223408512,-10095,4335,15309,18843.214455076395
1735565052079,-224,-48,921,949.0632223408512,-10003,4305,-17418,20542.14589569454
1735565052109,-224,-48,921,949.0632223408512,-9966,4251,-14182,17847.164508683167
1735565052139,-140,-5,981,990.952067458361,-9979,4193,-10984,15421.087704828087
1735565052169,-140,-5,981,990.952067458361,-10117,4161,-7909,13498.88480579044
1735565052199,-140,-5,981,990.952067458361,-10236,4179,-4836,12067.58604692753
1735565052229,-140,-5,981,990.952067458361,-10303,4233,-1735,11272.990863120576
1735565052259,-280,-8,1011,1049.0876989079607,-10205,4294,1547,11179.16231208761
1735565052289,-280,-8,1011,1049.0876989079607,-10057,4304,4912,11991.472344962482
1735565052319,-280,-8,1011,1049.0876989079607,-9952,4260,8258,13615.596498134042
1735565052349,-238,-61,1059,1087.1274074366813,-9911,4198,11555,15791.426471348306
1735565052379,-238,-61,1059,1087.1274074366813,-9924,4134,14779,18275.5184057799
1735565052409,-238,-61,1059,1087.1274074366813,-9981,4087,17964,20953.0242685871
1735565052439,-162,-20,985,998.4332726827568,-10061,4061,-14885,18419.518641918956
1735565052469,-162,-20,985,998.4332726827568,-10235,4065,-11857,16182.332928227623
1735565052499,-162,-20,985,998.4332726827568,-10351,4125,-8804,14201.029610559934
1735565052529,-162,-20,985,998.4332726827568,-10387,4213,-5699,12574.487623756286
1735565052559,-277,-79,963,1005.1562067658937,-10217,4301,-2432,11349.022601087725
1735565052589,-277,-79,963,1005.1562067658937,-9995,4301,911,10919.182524346774
1735565052619,-277,-79,963,1005.1562067658937,-9850,4226,4219,11518.747197503728
1735565052649,-215,-29,1101,1122.1706643822054,-9845,4113,7445,13010.33508407835
1735565052679,-215,-29,1101,1122.1706643822054,-9977,4033,10565,15080.611492907043
1735565052709,-215,-29,1101,1122.1706643822054,-10124,4013,13657,17467.489630739732
1735565052739,-200,-2,1002,1021.7670967495479,-10252,4048,16741,20043.724429356935
1735565052769,-200,-2,1002,1021.7670967495479,-10368,4135,-16182,19658.351227913292
1735565052799,-200,-2,1002,1021.7670967495479,-10382,4245,-13037,17197.945167955386
1735565052829,-200,-2,1002,1021.7670967495479,-10305,4339,-9818,14879.955309072671
1735565052859,-234,8,917,946.4190403832755,-10184,4379,-6552,12877.041624534728
1735565052889,-234,8,917,946.4190403832755,-10064,4370,-3262,11446.46845101143
1735565052919,-234,8,917,946.4190403832755,-9993,4322,0,10887.595372716603
1735565052948,-198,-33,982,1002.3058415473791,-9948,4268,3246,11301.108087262948
1735565052979,-198,-33,982,1002.3058415473791,-9942,4204,6438,12568.405785938008
1735565053009,-198,-33,982,1002.3058415473791,-9986,4151,9590,14454.033935203002
1735565053039,-196,-34,932,952.9931794089609,-10063,4120,12702,16720.621190613703
1735565053069,-196,-34,932,952.9931794089609,-10157,4114,15774,19206.996667881212
1735565053099,-196,-34,932,952.9931794089609,-10226,4140,-17143,20386.101270228206
1735565053130,-196,-34,932,952.9931794089609,-10253,4184,-14037,17879.24030824576
1735565053160,-209,-48,1037,1058.940036073809,-10204,4234,-10840,15477.531198482528
1735565053189,-209,-48,1037,1058.940036073809,-10125,4256,-7612,13363.072438627278
1735565053219,-209,-48,1037,1058.940036073809,-10055,4248,-4382,11762.246936703888
1735565053249,-210,-19,963,985.8143841514994,-10012,4223,-1146,10926.444481165865
1735565053279,-210,-19,963,985.8143841514994,-10008,4196,2081,11049.752983664386
1735565053309,-210,-19,963,985.8143841514994,-10026,4172,5291,12079.77404590003
1735565053339,-215,-38,978,1002.0743485390692,-10067,4157,8472,13798.547822144184
1735565053369,-215,-38,978,1002.0743485390692,-10110,4152,11617,15950.10636328172
1735565053399,-215,-38,978,1002.0743485390692,-10142,4163,14766,18390.907780748617
1735565053429,-215,-38,978,1002.0743485390692,-10157,4182,17926,21023.683050312568
1735565053459,-192,-47,936,956.644657121964,-10159,4206,-14929,18541.05601091804
1735565053488,-192,-47,936,956.644657121964,-10145,4226,-11778,16109.046681911379
1735565053519,-192,-47,936,956.644657121964,-10121,4238,-8616,13951.012185501093
1735565053549,-245,-38,1020,1049.6994808039108,-10091,4239,-5436,12220.781398912264
1735565053579,-245,-38,1020,1049.6994808039108,-10053,4229,-2222,11130.342941706693
1735565053610,-245,-38,1020,1049.6994808039108,-10035,4209,978,10925.81301322698
1735565053639,-144,-59,870,883.8082371193425,-10032,4188,4182,11647.724756363365
1735565053669,-144,-59,870,883.8082371193425,-10088,4174,7296,13130.941931179195
1735565053699,-144,-59,870,883.8082371193425,-10137,4181,10409,15119.087637817303
1735565053729,-224,47,887,916.0534918878919,-10166,4203,13540,17445.46832274789
1735565053759,-224,47,887,916.0534918878919,-10189,4250,16802,20104.36333237141
1735565053789,-224,47,887,916.0534918878919,-10165,4296,-15901,19355.222602698217
1735565053819,-224,47,887,916.0534918878919,-10113,4325,-12576,16707.308879649052
1735565053849,-254,-28,1002,1034.0715642546215,-10022,4334,-9243,14305.841079782762
1735565053879,-254,-28,1002,1034.0715642546215,-9935,4300,-5910,12333.787942071973
1735565053910,-254,-28,1002,1034.0715642546215,-9904,4244,-2614,11087.549233261605
1735565053939,-198,-50,985,1005.9468176797419,-9932,4189,625,10797.359399408728
1735565053969,-198,-50,985,1005.9468176797419,-10027,4154,3739,11479.397458055018
1735565053999,-198,-50,985,1005.9468176797419,-10117,4157,6845,12903.036968093984
1735565054029,-163,-4,911,925.4760936944833,-10179,4182,9966,14846.626586534734
1735565054058,-163,-4,911,925.4760936944833,-10270,4222,13070,17150.017026230616
1735565054089,-163,-4,911,925.4760936944833,-10301,4285,16213,19680.782377740983
1735565054119,-163,-4,911,925.4760936944833,-10273,4346,-16598,19997.896114341627
1735565054149,-278,-41,993,1031.9951550273868,-10099,4384,-13253,17229.37218821394
1735565054179,-278,-41,993,1031.9951550273868,-9920,4345,-9866,14650.030068228529
1735565054209,-278,-41,993,1031.9951550273868,-9835,4254,-6536,12551.61491601778
1735565054239,-257,-44,1052,1083.8307063374796,-9833,4154,-3274,11165.244332301914
1735565054270,-257,-44,1052,1083.8307063374796,-9889,4069,-89,10693.783381011604
1735565054299,-257,-44,1052,1083.8307063374796,-9989,4019,3052,11191.388921845224
1735565054329,-234,-32,924,953.7064537896343,-10083,4014,6192,12494.796877100483
1735565054359,-234,-32,924,953.7064537896343,-10155,4047,9343,14380.329725009786
1735565054389,-234,-32,924,953.7064537896343,-10180,4098,12524,16651.623944828923
1735565054419,-234,-32,924,953.7064537896343,-10158,4147,15740,19186.718661615905
1735565054449,-247,-49,1002,1033.1572968333526,-10113,4199,-17038,20253.340810839083
1735565054479,-247,-49,1002,1033.1572968333526,-10037,4223,-13785,17567.052200070448
1735565054509,-247,-49,1002,1033.1572968333526,-9968,4216,-10528,15098.823265407142
1735565054539,-235,-32,902,932.6591017086575,-9968,4186,-7329,13061.31161101365
1735565054569,-235,-32,902,932.6591017086575,-10020,4167,-4177,11628.05306145444
1735565054599,-235,-32,902,932.6591017086575,-10069,4170,-1029,10946.803277669696
1735565054629,-258,-22,852,890.4785230425268,-10115,4181,2102,11145.061238055177
1735565054659,-258,-22,852,890.4785230425268,-10160,4196,5220,12168.82968900461
1735565054689,-258,-22,852,890.4785230425268,-10179,4224,8355,13829.686981273293
1735565054719,-258,-22,852,890.4785230425268,-10170,4253,11510,15937.283614217324
1735565054749,-193,-70,994,1014.9802953752353,-10105,4300,14711,18357.955931965847
1735565054780,-193,-70,994,1014.9802953752353,-10030,4314,17906,20972.275317666416
1735565054809,-193,-70,994,1014.9802953752353,-9970,4300,-14899,18435.593318361087
1735565054839,-252,-36,1021,1052.255197183649,-9911,4263,-11658,15884.27064740462
1735565054869,-252,-36,1021,1052.255197183649,-9880,4211,-8386,13626.148281888027
1735565054899,-252,-36,1021,1052.255197183649,-9900,4159,-5153,11910.528535711586
1735565054929,-210,-60,958,982.5802766186588,-9936,4122,-1937,10930.093732443469
1735565054959,-210,-60,958,982.5802766186588,-9973,4094,1233,10850.891852746483
1735565054989,-210,-60,958,982.5802766186588,-10020,4084,4392,11677.718955343977
1735565055019,-210,-60,958,982.5802766186588,-10058,4091,7552,13226.19934070253
1735565055049,-259,-135,1107,1144.8820899987911,-9996,4111,10801,15280.115771812725
1735565055079,-259,-135,1107,1144.8820899987911,-9913,4095,14068,17690.25771434662
1735565055109,-259,-135,1107,1144.8820899987911,-9870,4054,17314,20337.80745311549
1735565055139,-180,-90,981,1001.4294782959008,-9947,3992,-15570,18902.480604407454
1735565055169,-180,-90,981,1001.4294782959008,-10120,3975,-12571,16620.62170919006
1735565055200,-180,-90,981,1001.4294782959008,-10250,4018,-9560,14580.823845037015
1735565055229,-202,-106,928,955.6275425080631,-10319,4105,-6506,12870.929337075859
1735565055259,-202,-106,928,955.6275425080631,-10284,4214,-3355,11609.241017396444
1735565055289,-202,-106,928,955.6275425080631,-10176,4290,-137,11044.17697250456
1735565055319,-202,-106,928,955.6275425080631,-10043,4315,3116,11366.201212366426
1735565055379,-194,-52,825,849.0965787235277,-9999,4286,6281,12561.877168640043
1735565055379,-194,-52,825,849.0965787235277,-10004,4255,9420,14384.764196885537
1735565055410,-194,-52,825,849.0965787235277,-10031,4231,12539,16605.68706798969
1735565055439,-216,-100,930,959.9770830597989,-10030,4225,15685,19091.11704432195
1735565055469,-216,-100,930,959.9770830597989,-9992,4211,-17143,20284.35441417843
1735565055499,-216,-100,930,959.9770830597989,-9977,4187,-13987,17683.542263924384
1735565055529,-230,-56,977,1005.2686208173416,-9978,4160,-10845,15312.743353168302
1735565055559,-230,-56,977,1005.2686208173416,-10010,4140,-7696,13287.893587773797
1735565055589,-230,-56,977,1005.2686208173416,-10047,4134,-4556,11780.887105816777
1735565055619,-230,-56,977,1005.2686208173416,-10076,4142,-1414,10985.505723452152
1735565055649,-269,-67,973,1011.7208112913364,-10063,4164,1812,11040.208738968662
1735565055679,-269,-67,973,1011.7208112913364,-10026,4175,5065,11983.552311397485
1735565055709,-269,-67,973,1011.7208112913364,-9993,4171,8320,13655.756661569509
1735565055739,-219,-65,1081,1104.8742009839852,-9993,4156,11545,15824.645651640987
1735565055769,-219,-65,1081,1104.8742009839852,-10030,4148,14721,18289.74152359732
1735565055799,-219,-65,1081,1104.8742009839852,-10061,4155,17898,20948.177725043293
1735565055829,-274,-5,919,958.9900937965939,-10075,4169,-14920,18479.51801319504
1735565055859,-274,-5,919,958.9900937965939,-10075,4190,-11672,15978.025816727171
1735565055889,-274,-5,919,958.9900937965939,-10058,4208,-8410,13769.485393434281
1735565055918,-274,-5,919,958.9900937965939,-10033,4216,-5139,12035.159575178053
1735565055949,-170,-104,946,966.7636732935304,-9966,4219,-1890,10986.046468134022
1735565055980,-170,-104,946,966.7636732935304,-9922,4194,1308,10851.109804992298
1735565056010,-170,-104,946,966.7636732935304,-9913,4158,4484,11647.437014210465
1735565056040,-187,-100,1026,1047.68554442638,-9947,4127,7613,13188.354977024239
1735565056069,-187,-100,1026,1047.68554442638,-9996,4114,10725,15227.299071076262
1735565056100,-187,-100,1026,1047.68554442638,-10038,4120,13837,17584.038586172403
1735565056129,-223,-36,954,980.3779883289914,-10074,4130,16948,20143.909253171292
1735565056159,-223,-36,954,980.3779883289914,-10138,4150,-15909,19315.74034304665
1735565056189,-223,-36,954,980.3779883289914,-10166,4189,-12745,16832.41818634506
1735565056219,-223,-36,954,980.3779883289914,-10156,4229,-9553,14570.126492244328
1735565056249,-194,-31,920,940.7427916279773,-10175,4252,-6426,12763.369656951882
1735565056279,-194,-31,920,940.7427916279773,-10179,4279,-3293,11522.401268832813
1735565056309,-194,-31,920,940.7427916279773,-10161,4301,-142,11034.703711473181
1735565056339,-242,-32,985,1014.7970240397831,-10096,4306,3074,11398.259867190254
1735565056369,-242,-32,985,1014.7970240397831,-10016,4279,6336,12600.594946271387
1735565056399,-242,-32,985,1014.7970240397831,-9985,4231,9568,14461.957336405056
1735565056429,-251,1,966,998.0771513264893,-9995,4181,12771,16747.51405433057
1735565056459,-251,1,966,998.0771513264893,-10047,4147,15968,19316.232603693712
1735565056489,-251,1,966,998.0771513264893,-10108,4137,-16847,20077.545716546134
1735565056519,-251,1,966,998.0771513264893,-10157,4150,-13660,17520.923177732388
1735565056549,-219,-73,995,1021.4279220777157,-10163,4172,-10504,15199.545026085485
1735565056579,-219,-73,995,1021.4279220777157,-10143,4186,-7347,13205.3570190283
1735565056609,-219,-73,995,1021.4279220777157,-10119,4191,-4185,11724.882387469821
1735565056639,-228,-37,1003,1029.2531272723927,-10090,4193,-975,10969.9577939024
1735565056669,-228,-37,1003,1029.2531272723927,-10070,4194,2264,11140.925993830137
1735565056699,-228,-37,1003,1029.2531272723927,-10057,4187,5501,12203.901794098476
1735565056729,-233,20,905,934.7266980246151,-10058,4171,8715,13946.74980058078
1735565056759,-233,20,905,934.7266980246151,-10121,4159,11891,16159.449340865549
1735565056789,-233,20,905,934.7266980246151,-10172,4171,15068,18652.384539248593
1735565056819,-233,20,905,934.7266980246151,-10197,4198,-17739,20887.176305092078
1735565056849,-257,-22,998,1030.7943538844206,-10144,4236,-14498,18194.406722946478
1735565056879,-257,-22,998,1030.7943538844206,-10066,4243,-11233,15668.68513947485
1735565056909,-257,-22,998,1030.7943538844206,-10008,4222,-7975,13475.383964844936
1735565056939,-237,-42,979,1008.1537581143067,-9991,4190,-4754,11831.174793738786
1735565056969,-237,-42,979,1008.1537581143067,-10007,4159,-1576,10950.849556084679
1735565056999,-237,-42,979,1008.1537581143067,-10041,4139,1585,10975.665219019756
1735565057028,-247,-42,1012,1042.5531161528413,-10070,4135,4746,11875.505926064792
1735565057059,-247,-42,1012,1042.5531161528413,-10070,4138,7933,13470.72503616639
1735565057089,-247,-42,1012,1042.5531161528413,-10067,4141,11123,15563.209791042464
1735565057119,-247,-42,1012,1042.5531161528413,-10063,4143,14315,17981.869841593227
1735565057149,-226,-23,1004,1029.3789389724272,-10085,4143,17501,20619.327704850126
1735565057179,-226,-23,1004,1029.3789389724272,-10109,4153,-15316,18815.396514556902
1735565057209,-226,-23,1004,1029.3789389724272,-10117,4169,-12125,16332.479144330784
1735565057239,-218,-51,932,958.5139539933677,-10130,4185,-8965,14159.885239647954
1735565057269,-218,-51,932,958.5139539933677,-10130,4200,-5822,12415.81990848772
1735565057299,-218,-51,932,958.5139539933677,-10119,4211,-2669,11280.52494345897
1735565057329,-176,-8,877,894.5216598830908,-10103,4220,500,10960.337996613061
1735565057359,-176,-8,877,894.5216598830908,-10149,4238,3648,11587.5255771023
1735565057389,-176,-8,877,894.5216598830908,-10166,4267,6815,12961.445521237205
1735565057419,-176,-8,877,894.5216598830908,-10154,4297,10004,14887.845411610104
1735565057449,-153,66,924,938.9041484624508,-10168,4325,13182,17200.551531855017
1735565057479,-153,66,924,938.9041484624508,-10175,4361,16376,19766.69729621011
1735565057509,-153,66,924,938.9041484624508,-10152,4393,-16404,19785.165377120302
1735565057539,-147,-103,1089,1103.693345091833,-10040,4418,-13138,17115.12103375258
1735565057569,-147,-103,1089,1103.693345091833,-9861,4375,-9868,14620.443563722682
1735565057599,-147,-103,1089,1103.693345091833,-9776,4282,-6657,12578.606798847
1735565057629,-165,-69,924,941.1492974018522,-9805,4170,-3528,11223.801005007172
1735565057659,-165,-69,924,941.1492974018522,-9951,4077,-466,10763.897342505641
1735565057689,-165,-69,924,941.1492974018522,-10115,4050,2561,11192.606756247626
1735565057719,-228,-54,1071,1096.3306982840534,-10225,4097,5631,12371.103224854282
1735565057749,-228,-54,1071,1096.3306982840534,-10176,4194,8896,14152.01144714065
1735565057779,-228,-54,1071,1096.3306982840534,-10066,4254,12218,16392.08333312151
1735565057809,-228,-54,1071,1096.3306982840534,-9946,4263,15565,18956.93303253456
1735565057839,-219,-59,958,984.4826052297725,-9932,4204,-17232,20328.798882373743
1735565057869,-219,-59,958,984.4826052297725,-9970,4150,-14075,17740.603851053096
1735565057899,-219,-59,958,984.4826052297725,-10035,4120,-10944,15409.307609363894
1735565057929,-214,-73,1002,1027.194723506697,-10105,4121,-7818,13424.41022913111
1735565057959,-214,-73,1002,1027.194723506697,-10148,4152,-4674,11919.198127390953
1735565057989,-214,-73,1002,1027.194723506697,-10154,4191,-1504,11087.389819069229
1735565058019,-206,-38,966,988.4513139249702,-10139,4221,1674,11109.385131500303
1735565058049,-206,-38,966,988.4513139249702,-10160,4245,4827,12022.709927466436
1735565058079,-206,-38,966,988.4513139249702,-10156,4272,7999,13615.37076248752
1735565058109,-206,-38,966,988.4513139249702,-10132,4292,11187,15691.642903150709
1735565058139,-202,-21,899,921.6539480737877,-10076,4303,14406,18099.01712801002
1735565058169,-202,-21,899,921.6539480737877,-10035,4295,17623,20729.649755844886
1735565058199,-202,-21,899,921.6539480737877,-10012,4275,-15170,18672.029054176197
1735565058229,-160,-29,994,1007.2124899940429,-10024,4250,-11994,16198.737975533773
1735565058259,-160,-29,994,1007.2124899940429,-10069,4234,-8864,14067.054169228182
1735565058289,-160,-29,994,1007.2124899940429,-10112,4236,-5737,12373.738683195148
1735565058319,-207,-42,962,984.9147171202185,-10124,4256,-2584,11282.108313608764
1735565058349,-207,-42,962,984.9147171202185,-10040,4275,677,10933.231635705886
1735565058379,-207,-42,962,984.9147171202185,-9969,4261,3938,11534.510219337448
1735565058410,-207,-42,962,984.9147171202185,-9933,4227,7180,12964.737482880246
1735565058438,-169,-70,996,1012.6583826740388,-9961,4168,10314,14932.258402532418
1735565058469,-169,-70,996,1012.6583826740388,-10027,4128,13401,17238.55893049068
1735565058499,-169,-70,996,1012.6583826740388,-10102,4117,16472,19756.69195487949
1735565058529,-215,-80,1021,1046.454012367481,-10147,4138,-16434,19752.493741297578
1735565058559,-215,-80,1021,1046.454012367481,-10136,4168,-13288,17224.449599334082
1735565058589,-215,-80,1021,1046.454012367481,-10107,4188,-10125,14906.589750845094
1735565058619,-193,-49,1004,1023.5555676171177,-10078,4193,-6960,12945.614431150034
1735565058649,-193,-49,1004,1023.5555676171177,-10109,4193,-3838,11597.558967299972
1735565058679,-193,-49,1004,1023.5555676171177,-10130,4203,-711,10990.342578828015
1735565058709,-193,-49,1004,1023.5555676171177,-10137,4218,2424,11243.934765018872
1735565058739,-189,-41,958,977.3259435827947,-10152,4249,5563,12331.42627598284
1735565058769,-189,-41,958,977.3259435827947,-10140,4281,8722,14043.498317726962
1735565058799,-189,-41,958,977.3259435827947,-10108,4302,11901,16196.069554061565
1735565058829,-173,-62,971,988.2378256270097,-10064,4307,15101,18651.395282927228
1735565058859,-173,-62,971,988.2378256270097,-10028,4294,-17705,20795.822777663787
1735565058889,-173,-62,971,988.2378256270097,-10015,4271,-14526,18153.411304765836
1735565058920,-221,-59,1012,1037.5287947811375,-10017,4247,-11353,15724.754592679657
1735565058949,-221,-59,1012,1037.5287947811375,-9992,4221,-8121,13550.186197982668
1735565058979,-221,-59,1012,1037.5287947811375,-9995,4192,-4909,11898.368375537882
1735565059009,-221,-59,1012,1037.5287947811375,-10019,4170,-1714,10986.676340003833
1735565059039,-214,-60,1044,1067.3949597032956,-10031,4146,1458,10951.531445418947
1735565059069,-214,-60,1044,1067.3949597032956,-10058,4131,4615,11812.144174534951
1735565059099,-214,-60,1044,1067.3949597032956,-10088,4127,7767,13383.802225077894
1735565059130,-222,-43,1062,1085.807073102768,-10117,4133,10916,15446.502322532438
1735565059158,-222,-43,1062,1085.807073102768,-10138,4149,14075,17835.326461828503
1735565059189,-222,-43,1062,1085.807073102768,-10139,4169,17247,20436.215182856144
1735565059219,-209,-29,1016,1037.6791411606962,-10128,4189,-15561,19033.36086979911
1735565059250,-209,-29,1016,1037.6791411606962,-10125,4211,-12360,16523.248651521288
1735565059279,-209,-29,1016,1037.6791411606962,-10107,4228,-9145,14270.895486969273
1735565059309,-209,-29,1016,1037.6791411606962,-10081,4236,-5921,12434.970767959207
1735565059339,-176,-31,915,932.2885819315819,-10105,4237,-2756,11298.61628696187
1735565059369,-176,-31,915,932.2885819315819,-10127,4248,401,10989.196239944029
1735565059399,-176,-31,915,932.2885819315819,-10134,4264,3568,11558.991132447503
1735565059429,-169,-33,900,916.3241784434153,-10141,4270,6719,12892.545985956382
1735565059459,-169,-33,900,916.3241784434153,-10151,4275,9855,14779.697256709962
1735565059489,-169,-33,900,916.3241784434153,-10154,4282,12996,17039.226977771028
1735565059519,-162,1,953,966.6716091827669,-10136,4289,16158,19550.319204555202
1735565059549,-162,1,953,966.6716091827669,-10121,4290,-16653,19953.97579431227
1735565059579,-162,1,953,966.6716091827669,-10110,4287,-13466,17375.949614337627
1735565059609,-162,1,953,966.6716091827669,-10105,4281,-10284,15039.901661912554
1735565059638,-220,-25,1003,1027.1484800163996,-10044,4251,-7068,12996.521111435937
1735565059669,-220,-25,1003,1027.1484800163996,-10008,4201,-3861,11520.23376498932
1735565059699,-220,-25,1003,1027.1484800163996,-10022,4149,-690,10868.798691667815
1735565059729,-150,-25,1055,1065.9033727313185,-10067,4117,2455,11149.941838413328
1735565059759,-150,-25,1055,1065.9033727313185,-10143,4112,5553,12272.929642102574
1735565059789,-150,-25,1055,1065.9033727313185,-10198,4132,8658,14001.199662886034
1735565059819,-142,-27,1006,1016.3311468217433,-10243,4170,11762,16144.738864410288
1735565059849,-142,-27,1006,1016.3311468217433,-10286,4229,14850,18552.863310012286
1735565059879,-142,-27,1006,1016.3311468217433,-10271,4291,17982,21148.485666827306
1735565059909,-142,-27,1006,1016.3311468217433,-10213,4336,-14847,18534.823279438086
1735565059939,-157,-38,933,946.8801402500741,-10169,4362,-11694,16099.23106859455
1735565059969,-157,-38,933,946.8801402500741,-10113,4367,-8524,13928.461293337466
1735565059999,-157,-38,933,946.8801402500741,-10071,4353,-5359,12210.345244914248
1735565060029,-168,-43,938,953.8956966041937,-10018,4336,-2132,11122.348852647987
1735565060059,-168,-43,938,953.8956966041937,-9971,4304,1122,10918.064892644667
1735565060089,-168,-43,938,953.8956966041937,-9965,4264,4348,11678.528374756812
1735565060119,-153,-23,970,982.2616759295865,-9999,4228,7540,13217.699686405347
1735565060149,-153,-23,970,982.2616759295865,-10088,4215,10682,15285.25737434604
1735565060179,-153,-23,970,982.2616759295865,-10158,4235,13829,17673.749743616943
1735565060209,-153,-23,970,982.2616759295865,-10191,4273,16999,20275.132823239408
1735565060239,-202,-60,956,978.9484153927622,-10133,4318,-15790,19252.192420604984
1735565060269,-202,-60,956,978.9484153927622,-10040,4329,-12542,16638.61788130252
1735565060299,-202,-60,956,978.9484153927622,-9970,4306,-9300,14297.990628056798
1735565060329,-194,-86,860,885.7945585743909,-9934,4254,-6104,12411.272618067818
1735565060359,-194,-86,860,885.7945585743909,-9943,4192,-2964,11190.237218218388
1735565060389,-194,-86,860,885.7945585743909,-9996,4144,138,10821.820364430376
1735565060419,-170,-38,1093,1106.7940187767551,-10047,4120,3233,11329.999911738747
1735565060449,-170,-38,1093,1106.7940187767551,-10120,4118,6322,12622.99520716062
1735565060479,-170,-38,1093,1106.7940187767551,-10171,4141,9420,14468.36279611484
1735565060510,-170,-38,1093,1106.7940187767551,-10189,4176,12539,16687.756529863444
1735565060539,-287,0,987,1027.88034323067,-10041,4252,15874,19258.376385355023
1735565060569,-287,0,987,1027.88034323067,-9864,4258,-16715,19870.085178478726
1735565060599,-287,0,987,1027.88034323067,-9744,4201,-13329,17036.906350625984
1735565060629,-157,-41,970,983.4785203551728,-9840,4098,-10170,14732.552528329908
1735565060659,-157,-41,970,983.4785203551728,-10071,4046,-7218,13034.365385395638
1735565060689,-157,-41,970,983.4785203551728,-10266,4077,-4266,11841.091208161519
1735565060719,-231,-153,1046,1082.0748587782641,-10367,4181,-1246,11247.576005522256
1735565060749,-231,-153,1046,1082.0748587782641,-10181,4299,1997,11230.41277068657
1735565060779,-231,-153,1046,1082.0748587782641,-9962,4330,5295,12084.178457801754
1735565060810,-231,-153,1046,1082.0748587782641,-9792,4280,8580,13704.673071620497
1735565060839,-243,-53,986,1016.8844575466773,-9823,4168,11759,15878.842338155511
1735565060869,-243,-53,986,1016.8844575466773,-9944,4098,14881,18360.8524039599
1735565060899,-243,-53,986,1016.8844575466773,-10076,4082,17979,21010.30559035256
1735565060929,-204,-116,979,1006.7338277817032,-10167,4129,-14922,18522.489411523497
1735565060959,-204,-116,979,1006.7338277817032,-10178,4197,-11810,16145.667932916247
1735565060989,-204,-116,979,1006.7338277817032,-10133,4256,-8652,13987.434682599951
1735565061019,-155,-14,946,958.716329265336,-10057,4285,-5459,12219.048858237698
1735565061049,-155,-14,946,958.716329265336,-10097,4299,-2305,11213.555858870102
1735565061080,-155,-14,946,958.716329265336,-10113,4323,864,11032.116478717944
1735565061109,-155,-14,946,958.716329265336,-10105,4348,4051,11722.914739944157
1735565061139,-148,-31,907,919.5183521822715,-10040,4353,7213,13106.394546174779
1735565061169,-148,-31,907,919.5183521822715,-9991,4333,10364,15033.544691788427
1735565061199,-148,-31,907,919.5183521822715,-9974,4301,13495,17323.23012604751
1735565061229,-163,-60,1008,1022.8553172369981,-9945,4270,16654,19861.81363823556
1735565061259,-163,-60,1008,1022.8553172369981,-9917,4227,-16180,19442.39743447294
1735565061289,-163,-60,1008,1022.8553172369981,-9930,4183,-13046,16920.41680928694
1735565061319,-228,-114,1062,1092.1648227259473,-9981,4158,-9942,14688.52235590769
1735565061349,-228,-114,1062,1092.1648227259473,-9958,4154,-6780,12743.071843162465
1735565061379,-228,-114,1062,1092.1648227259473,-9945,4143,-3624,11366.655180834861
1735565061409,-186,-56,958,977.4947570191873,-9950,4123,-480,10781.095909043755
1735565061439,-186,-56,958,977.4947570191873,-10053,4111,2597,11167.252974657644
1735565061469,-186,-56,958,977.4947570191873,-10132,4136,5682,12330.816842366932
1735565061499,-186,-56,958,977.4947570191873,-10167,4183,8793,14077.720944812054
1735565061529,-222,-43,891,919.2464305070757,-10149,4220,11917,16211.893473619915
1735565061559,-222,-43,891,919.2464305070757,-10102,4244,15077,18638.075785874462
1735565061589,-222,-43,891,919.2464305070757,-10053,4247,-17753,20839.117711649887
1735565061619,-276,-57,952,992.838859030004,-10006,4242,-14570,18176.894674283612
1735565061649,-276,-57,952,992.838859030004,-9902,4229,-11290,15601.222548249223
1735565061679,-276,-57,952,992.838859030004,-9844,4183,-8035,13377.707202656216
1735565061709,-220,-84,958,986.519133114001,-9842,4122,-4823,11709.704394219352
1735565061740,-220,-84,958,986.519133114001,-9912,4065,-1722,10850.679840452394
1735565061770,-220,-84,958,986.519133114001,-10002,4041,1354,10872.120354374301
1735565061799,-220,-84,958,986.519133114001,-10081,4051,4428,11732.192719180845
1735565061829,-229,7,1020,1045.4137936721515,-10163,4089,7554,13306.74287720327
1735565061859,-229,7,1020,1045.4137936721515,-10206,4157,10723,15376.144315139605
1735565061889,-229,7,1020,1045.4137936721515,-10183,4227,13941,17773.92750632229
1735565061919,-223,-35,1016,1040.77375062979,-10105,4282,17190,20394.672073853013
1735565061949,-223,-35,1016,1040.77375062979,-9993,4296,-15545,18972.68273070522
1735565061979,-223,-35,1016,1040.77375062979,-9908,4270,-12288,16352.256969605143
1735565062009,-235,-48,982,1010.8674492731478,-9870,4222,-9040,14034.378646737447
1735565062039,-235,-48,982,1010.8674492731478,-9859,4171,-5773,12162.427841512565
1735565062069,-235,-48,982,1010.8674492731478,-9891,4127,-2540,11014.33656649369
1735565062099,-235,-48,982,1010.8674492731478,-9945,4103,669,10778.923647563332
1735565062128,-346,-29,1204,1253.065441228031,-9930,4117,3987,11465.197686913209
1735565062159,-346,-29,1204,1253.065441228031,-9889,4119,7353,12993.270989246703
1735565062189,-346,-29,1204,1253.065441228031,-9861,4105,10715,15129.493415180827
1735565062219,-263,-82,984,1021.8360925314784,-9891,4053,13959,17581.591822130325
1735565062249,-263,-82,984,1021.8360925314784,-9986,4005,17070,20177.837371730402
1735565062279,-263,-82,984,1021.8360925314784,-10084,3998,-15832,19191.750415217473
1735565062309,-264,-63,967,1004.3674626350656,-10157,4031,-12721,16770.13568818094
1735565062339,-264,-63,967,1004.3674626350656,-10193,4098,-9560,14563.119617719274
1735565062369,-264,-63,967,1004.3674626350656,-10166,4165,-6353,12690.760024521778
1735565062399,-264,-63,967,1004.3674626350656,-10096,4209,-3106,11370.669857136825
1735565062429,-236,-16,938,967.3654945262416,-10047,4225,143,10900.150595289957
1735565062459,-236,-16,938,967.3654945262416,-10017,4227,3388,11387.992009129617
1735565062489,-236,-16,938,967.3654945262416,-9996,4219,6630,12715.222255234079
1735565062519,-236,-53,892,924.2126378707445,-10006,4201,9814,14631.576572604881
1735565062549,-236,-53,892,924.2126378707445,-10023,4184,12961,16910.171672694516
1735565062579,-236,-53,892,924.2126378707445,-10047,4176,16100,19431.705663682744
1735565062609,-248,-32,963,994.9356763127956,-10065,4181,-16743,19977.81356905705
1735565062639,-248,-32,963,994.9356763127956,-10070,4199,-13527,17378.61415648555
1735565062669,-248,-32,963,994.9356763127956,-10059,4215,-10299,15000.636886479188
1735565062699,-248,-32,963,994.9356763127956,-10039,4224,-7062,12980.583230348318
1735565062729,-228,-72,969,998.0626232857335,-10004,4218,-3854,11520.627413470154
1735565062759,-228,-72,969,998.0626232857335,-9982,4197,-664,10848.78006966682
1735565062789,-228,-72,969,998.0626232857335,-9983,4174,2509,11107.549054584453
1735565062819,-216,-36,998,1021.741650320667,-9998,4150,5668,12219.195063505615
1735565062879,-216,-36,998,1021.741650320667,-10042,4139,8809,13984.690414878693
1735565062880,-216,-36,998,1021.741650320667,-10080,4144,11949,16172.746736408135
1735565062909,-262,-116,1019,1058.5183040458016,-10092,4169,15116,18647.318332671857
1735565062939,-262,-116,1019,1058.5183040458016,-9969,4184,-17610,20663.95211473352
1735565062969,-262,-116,1019,1058.5183040458016,-9875,4154,-14346,17904.72163983568
1735565062999,-262,-116,1019,1058.5183040458016,-9836,4097,-11115,15397.25722328493
1735565063029,-183,-105,1008,1029.8436774578945,-9937,4058,-8002,13388.179002388637
1735565063060,-183,-105,1008,1029.8436774578945,-10054,4064,-4927,11911.10158633533
1735565063089,-183,-105,1008,1029.8436774578945,-10129,4108,-1832,11082.803300609463
1735565063119,-269,-32,966,1003.2651693346081,-10154,4167,1305,11053.082375518605
1735565063149,-269,-32,966,1003.2651693346081,-10122,4229,4541,11872.657916406082
1735565063179,-269,-32,966,1003.2651693346081,-10051,4268,7813,13426.890704850472
1735565063209,-248,-117,998,1034.9864733415602,-9961,4283,11101,15517.66126064105
1735565063239,-248,-117,998,1034.9864733415602,-9817,4257,14360,17908.242180627334
1735565063269,-248,-117,998,1034.9864733415602,-9742,4187,17580,20530.31741108744
1735565063299,-248,-117,998,1034.9864733415602,-9745,4106,-15256,18562.59133310864
1735565063329,-247,-72,942,976.5024321526291,-9849,4016,-12169,16162.166253321366
1735565063359,-247,-72,942,976.5024321526291,-9993,3981,-9118,14101.288380853715
1735565063390,-247,-72,942,976.5024321526291,-10116,4001,-6068,12456.407226805008
1735565063420,-219,-81,904,933.6691062683824,-10141,4062,-2963,11318.970536228107
1735565063449,-219,-81,904,933.6691062683824,-10101,4116,177,10908.848976862775
1735565063479,-219,-81,904,933.6691062683824,-10032,4147,3348,11359.918001464623
1735565063509,-316,-120,1039,1092.6010250773152,-9959,4157,6529,12613.09521885885
1735565063540,-316,-120,1039,1092.6010250773152,-9789,4140,9825,14473.93332857382
1735565063569,-316,-120,1039,1092.6010250773152,-9690,4069,13084,16782.25005772468
1735565063599,-316,-120,1039,1092.6010250773152,-9678,3978,16283,19355.212657059597
1735565063628,-231,-94,966,997.6737943837154,-9819,3915,-16672,19740.708447267032
1735565063659,-231,-94,966,997.6737943837154,-9981,3917,-13675,17377.251652663606
1735565063689,-231,-94,966,997.6737943837154,-10092,3973,-10656,15204.720615650916
1735565063719,-264,-146,932,979.6101265299375,-10137,4067,-7603,13308.075255272643
1735565063749,-264,-146,932,979.6101265299375,-10072,4156,-4475,11778.928007250914
1735565063779,-264,-146,932,979.6101265299375,-9960,4206,-1298,10889.299334667956
1735565063809,-284,-148,932,985.4866817973747,-9865,4207,1895,10890.734548229519
1735565063839,-284,-148,932,985.4866817973747,-9817,4179,5102,11826.577442354148
1735565063869,-284,-148,932,985.4866817973747,-9806,4142,8285,13489.070575840278
1735565063899,-284,-148,932,985.4866817973747,-9827,4108,11442,15632.176975712628
1735565063928,-297,19,871,920.4406553385178,-9963,4089,14581,18126.964748683105
1735565063959,-297,19,871,920.4406553385178,-10100,4136,17738,20826.74098364888
1735565063989,-297,19,871,920.4406553385178,-10156,4221,-15055,18644.414766894668
1735565064020,-311,-71,925,978.461547532656,-10050,4310,-11738,16042.42014161205
1735565064049,-311,-71,925,978.461547532656,-9838,4323,-8349,13608.099573415826
1735565064079,-311,-71,925,978.461547532656,-9689,4260,-4985,11699.33955400902
1735565064109,-293,-112,928,979.5800120459788,-9653,4158,-1703,10647.51529700709
1735565064139,-293,-112,928,979.5800120459788,-9711,4055,1455,10623.7267943034
1735565064169,-293,-112,928,979.5800120459788,-9824,3992,4562,11543.781182957342
1735565064199,-293,-112,928,979.5800120459788,-9946,3979,7648,13162.342534670643
1735565064229,-254,-140,925,969.4023932299734,-10041,4020,10739,15241.660080188116
1735565064259,-254,-140,925,969.4023932299734,-10079,4085,13852,17611.11495618605
1735565064289,-254,-140,925,969.4023932299734,-10056,4150,17010,20191.22918497039
1735565064319,-242,-61,920,953.2497049566813,-10029,4187,-15807,19182.623882044918
1735565064350,-242,-61,920,953.2497049566813,-10030,4219,-12615,16659.50437438041
1735565064380,-242,-61,920,953.2497049566813,-10007,4245,-9402,14372.114597372232
1735565064410,-257,-85,924,962.8343575091201,-9968,4258,-6175,12474.863245743418
1735565064440,-257,-85,924,962.8343575091201,-9900,4249,-2930,11164.627221721288
1735565064469,-257,-85,924,962.8343575091201,-9862,4219,297,10730.666987657385
1735565064499,-257,-85,924,962.8343575091201,-9860,4183,3501,11268.2780405881
1735565064529,-261,-68,928,966.400020695364,-9872,4143,6684,12621.279214089196
1735565064559,-261,-68,928,966.400020695364,-9913,4116,9845,14564.788017681549
1735565064589,-261,-68,928,966.400020695364,-9961,4109,12996,16881.985013617326
1735565064619,-271,-68,950,990.2348206359944,-9998,4117,16152,19436.99557544838
1735565064649,-271,-68,950,990.2348206359944,-10014,4134,-16674,19884.477061265654
1735565064680,-271,-68,950,990.2348206359944,-10012,4154,-13488,17303.814723927208
1735565064710,-258,-96,939,978.5198005150432,-9994,4168,-10289,14937.060654626799
1735565064739,-258,-96,939,978.5198005150432,-9959,4166,-7099,12920.256885991083
1735565064769,-258,-96,939,978.5198005150432,-9936,4153,-3914,11458.224164328432
1735565064799,-258,-96,939,978.5198005150432,-9931,4134,-742,10782.637942544487
1735565064829,-222,-49,914,941.8497757073577,-10013,4115,2364,11080.69898517237
1735565064859,-222,-49,914,941.8497757073577,-10100,4132,5457,12200.912793721624
1735565064890,-222,-49,914,941.8497757073577,-10147,4175,8574,13925.003052064298
1735565064920,-198,-54,925,947.4940633059397,-10146,4221,11720,16066.006255445067
1735565064949,-198,-54,925,947.4940633059397,-10118,4256,14880,18490.588416813567
1735565064979,-198,-54,925,947.4940633059397,-10072,4275,-17941,21014.287758570357
1735565065009,-263,-20,960,995.5747083971147,-10022,4272,-14749,18336.3973833466
1735565065039,-263,-20,960,995.5747083971147,-9960,4250,-11475,15777.823836004762
1735565065069,-263,-20,960,995.5747083971147,-9937,4211,-8226,13569.950847368607
1735565065099,-263,-20,960,995.5747083971147,-9951,4173,-5005,11894.803697413421
1735565065129,-207,-30,895,919.1158795277122,-10038,4145,-1886,11022.679574404765
1735565065159,-207,-30,895,919.1158795277122,-10128,4152,1204,11012.043588725935
1735565065190,-207,-30,895,919.1158795277122,-10184,4188,4313,11826.037755732052
1735565065219,-242,-59,948,980.1780450509999,-10177,4238,7474,13318.88317390013
1735565065249,-242,-59,948,980.1780450509999,-10103,4271,10697,15321.157234360595
1735565065279,-242,-59,948,980.1780450509999,-10027,4272,13931,17687.947139224496
1735565065309,-239,-92,920,954.9790573619927,-9975,4250,17156,20295.109287707717
1735565065339,-239,-92,920,954.9790573619927,-9934,4212,-15642,19002.564669012445
1735565065369,-239,-92,920,954.9790573619927,-9936,4168,-12472,16481.72029856107
1735565065400,-222,-69,930,958.6161901407675,-9976,4129,-9332,14270.789781928679
1735565065429,-222,-69,930,958.6161901407675,-10071,4113,-6238,12540.113795336947
1735565065460,-222,-69,930,958.6161901407675,-10149,4131,-3140,11398.55087280835
1735565065489,-222,-69,930,958.6161901407675,-10188,4171,-21,11008.770412720942
1735565065519,-276,-39,894,936.4470086449099,-10166,4222,3188,11460.19999825483
1735565065549,-276,-39,894,936.4470086449099,-10104,4256,6451,12720.83931979333
1735565065579,-276,-39,894,936.4470086449099,-10037,4262,9728,14613.007801270756
1735565065609,-292,-30,933,978.086397001819,-9978,4246,13008,16935.083820282674
1735565065639,-292,-30,933,978.086397001819,-9931,4213,16309,19553.966630839892
1735565065670,-292,-30,933,978.086397001819,-9925,4171,-16419,19633.808265336604
1735565065699,-276,-36,954,993.7746223364733,-9947,4135,-13175,17018.2742662116
1735565065729,-276,-36,954,993.7746223364733,-9986,4109,-9970,14697.10777670219
1735565065759,-276,-36,954,993.7746223364733,-10032,4102,-6776,12782.08136415975
1735565065789,-276,-36,954,993.7746223364733,-10068,4112,-3579,11449.122630140704
1735565065819,-263,-4,901,938.6085446020614,-10159,4137,-429,10977.435538412421
1735565065849,-263,-4,901,938.6085446020614,-10211,4192,2744,11373.958018209843
1735565065880,-263,-4,901,938.6085446020614,-10204,4254,5961,12559.922491799063
1735565065910,-234,-65,921,952.48202082769,-10122,4307,9219,14352.529184781335
1735565065940,-234,-65,921,952.48202082769,-10002,4314,12483,16567.31387401108
1735565065969,-234,-65,921,952.48202082769,-9917,4279,15733,19083.606027163733
1735565066000,-254,-11,937,970.8789831899751,-9880,4214,-17057,20157.218186049384
1735565066030,-254,-11,937,970.8789831899751,-9925,4137,-13888,17564.080903935737
1735565066059,-254,-11,937,970.8789831899751,-10012,4091,-10759,15255.57294892591
1735565066089,-254,-11,937,970.8789831899751,-10104,4082,-7646,13312.207029640127
1735565066120,-262,8,904,941.2353584518593,-10152,4114,-4479,11834.25287037589
1735565066150,-262,8,904,941.2353584518593,-10162,4158,-1281,11054.237603742738
1735565066179,-262,8,904,941.2353584518593,-10135,4196,1945,11140.362022842884
1735565066209,-241,-13,951,981.1477972252702,-10105,4214,5149,12098.802502727285
1735565066239,-241,-13,951,981.1477972252702,-10079,4216,8325,13735.593252568307
1735565066269,-241,-13,951,981.1477972252702,-10061,4208,11498,15847.239160181814
1735565066299,-263,-59,909,948.1197181790916,-10048,4204,14677,18277.04158226927
1735565066329,-263,-59,909,948.1197181790916,-9975,4199,17910,20926.06809699328
1735565066359,-263,-59,909,948.1197181790916,-9930,4170,-14871,18361.3845066215
1735565066389,-263,-59,909,948.1197181790916,-9923,4132,-11679,15872.567341170741
1735565066420,-295,-73,958,1005.0462675916965,-9924,4128,-8461,13678.98684113703
1735565066450,-295,-73,958,1005.0462675916965,-9918,4122,-5235,11948.34017761463
1735565066480,-295,-73,958,1005.0462675916965,-9918,4115,-2014,10925.023798601082
1735565066509,-275,-84,966,1007.8873945039694,-9920,4113,1190,10804.59480961688
1735565066539,-275,-84,966,1007.8873945039694,-9924,4113,4376,11599.651762014237
1735565066569,-275,-84,966,1007.8873945039694,-9926,4114,7562,13139.037864318681
1735565066599,-249,-90,919,956.3796317362683,-9924,4116,10744,15194.103066650561
1735565066629,-249,-90,919,956.3796317362683,-9929,4117,13885,17559.269774110766
1735565066659,-249,-90,919,956.3796317362683,-9931,4119,17027,20137.27019732317
1735565066689,-249,-90,919,956.3796317362683,-9931,4122,-15827,19133.990017766813
1735565066719,-297,-109,953,1004.1409263644222,-9908,4124,-12695,16623.443235382976
1735565066749,-297,-109,953,1004.1409263644222,-9877,4112,-9547,14339.068379779768
1735565066780,-297,-109,953,1004.1409263644222,-9865,4093,-6410,12456.282511247085
1735565066809,-284,-117,910,960.4400033318062,-9862,4078,-3270,11161.631959529932
1735565066840,-284,-117,910,960.4400033318062,-9868,4067,-138,10674.125584796162
1735565066869,-284,-117,910,960.4400033318062,-9881,4060,2988,11092.605870578833
1735565066899,-254,-134,975,1016.4137936883777,-9896,4063,6118,12323.502302511246
1735565066929,-254,-134,975,1016.4137936883777,-9912,4079,9234,14147.534802925915
1735565066961,-254,-134,975,1016.4137936883777,-9911,4097,12363,16366.340427841527
1735565066990,-254,-134,975,1016.4137936883777,-9897,4112,15502,18845.985169260854
1735565067019,-270,-125,938,984.0574170240271,-9896,4126,-17353,20398.0710117403
1735565067049,-270,-125,938,984.0574170240271,-9882,4137,-14195,17783.889282156477
1735565067079,-270,-125,938,984.0574170240271,-9865,4142,-11031,15367.411948665916
1735565067109,-244,-127,958,996.7090849390307,-9875,4140,-7894,13303.024505728012
1735565067139,-244,-127,958,996.7090849390307,-9901,4146,-4782,11751.027231693406
1735565067169,-244,-127,958,996.7090849390307,-9915,4159,-1664,10879.954135932743
1735565067199,-272,-95,955,997.5139096774541,-9912,4169,1470,10853.073527807688
1735565067229,-272,-95,955,997.5139096774541,-9903,4171,4655,11710.494225266499
1735565067260,-272,-95,955,997.5139096774541,-9896,4170,7841,13296.653601564569
1735565067289,-272,-95,955,997.5139096774541,-9892,4167,11025,15387.208258810304
1735565067319,-263,-89,950,989.7423907259908,-9904,4160,14204,17808.661712773366
1735565067349,-263,-89,950,989.7423907259908,-9921,4159,17377,20437.31026823246
1735565067380,-263,-89,950,989.7423907259908,-9933,4164,-15447,18831.176118341627
1735565067410,-273,-85,944,986.3518641945176,-9929,4164,-12257,16314.349082939227
1735565067439,-273,-85,944,986.3518641945176,-9921,4157,-9059,14063.15650911985
1735565067469,-273,-85,944,986.3518641945176,-9922,4149,-5866,12250.315955109076
1735565067499,-291,-72,982,1026.7370646859886,-9922,4138,-2676,11078.361972782799
1735565067529,-291,-72,982,1026.7370646859886,-9922,4119,527,10755.927389118988
1735565067560,-291,-72,982,1026.7370646859886,-9936,4105,3721,11376.333416351685
1735565067589,-291,-72,982,1026.7370646859886,-9956,4098,6907,12791.488928189712
1735565067619,-279,-69,953,995.3948965109274,-10000,4095,10082,14778.895391740209
1735565067648,-279,-69,953,995.3948965109274,-10036,4108,13257,17127.31762419323
1735565067679,-279,-69,953,995.3948965109274,-10049,4131,16446,19710.872076090393
1735565067710,-241,-46,942,973.4274497876048,-10087,4148,-16370,19670.545823642005
1735565067740,-241,-46,942,973.4274497876048,-10141,4180,-13203,17164.832944133188
1735565067769,-241,-46,942,973.4274497876048,-10153,4225,-10007,14868.560219469806
1735565067799,-237,-50,878,910.7980017545054,-10127,4266,-6780,12912.137119779978
1735565067829,-237,-50,878,910.7980017545054,-10078,4294,-3533,11510.282750653869
1735565067860,-237,-50,878,910.7980017545054,-10024,4299,-275,10910.435463353422
1735565067889,-237,-50,878,910.7980017545054,-9984,4285,2978,11265.432304177235
1735565067920,-237,-57,964,994.3409877904058,-9966,4250,6207,12486.412815536734
1735565067949,-237,-57,964,994.3409877904058,-9980,4216,9411,14350.678625068573
1735565067979,-237,-57,964,994.3409877904058,-10015,4193,12594,16627.997774837473
1735565068010,-274,-6,988,1025.3077586754134,-10042,4182,15793,19176.802053522897
1735565068040,-274,-6,988,1025.3077586754134,-10065,4185,-16975,20173.47453960274
1735565068070,-274,-6,988,1025.3077586754134,-10078,4195,-13740,17548.552903302312
1735565068099,-270,-4,946,983.7845292542468,-10070,4205,-10494,15139.714693480852
1735565068129,-270,-4,946,983.7845292542468,-10047,4205,-7247,13082.17271709864
1735565068160,-270,-4,946,983.7845292542468,-10032,4198,-4004,11588.625630332528
1735565068189,-270,-4,946,983.7845292542468,-10028,4186,-768,10893.72314684011
1735565068219,-255,-20,995,1027.3509624271542,-10060,4181,2423,11160.43413134095
1735565068249,-255,-20,995,1027.3509624271542,-10085,4187,5610,12276.412098003228
1735565068280,-255,-20,995,1027.3509624271542,-10098,4200,8804,14039.94373208098
1735565068311,-290,-38,1007,1048.6148005821776,-10074,4218,12038,16253.936261718267
1735565068339,-290,-38,1007,1048.6148005821776,-10014,4219,15315,18778.428635005646
1735565068369,-290,-38,1007,1048.6148005821776,-9973,4199,-17416,20503.88709489008
1735565068399,-289,3,989,1030.3644986120203,-9966,4168,-14170,17818.032439076993
1735565068429,-289,3,989,1030.3644986120203,-10024,4147,-10952,15415.073434791026
1735565068460,-289,3,989,1030.3644986120203,-10079,4151,-7738,13367.635767030757
1735565068489,-289,3,989,1030.3644986120203,-10113,4172,-4514,11834.464457676148
1735565068518,-260,-9,972,1006.2131980847796,-10104,4193,-1301,11016.563257205034
1735565068549,-260,-9,972,1006.2131980847796,-10086,4206,1912,11093.853072760608
1735565068579,-260,-9,972,1006.2131980847796,-10064,4211,5132,12056.286368529905
1735565068609,-274,-14,947,985.941681845331,-10042,4204,8354,13722.415822296014
1735565068639,-274,-14,947,985.941681845331,-10026,4187,11575,15875.524243312408
1735565068669,-274,-14,947,985.941681845331,-10028,4167,14783,18342.89404646933
1735565068699,-224,-7,905,932.3357764239233,-10042,4154,17979,21008.139398813975
1735565068729,-224,-7,905,932.3357764239233,-10098,4153,-14888,18462.653032541126
1735565068760,-224,-7,905,932.3357764239233,-10137,4171,-11748,16067.716514800726
1735565068789,-224,-7,905,932.3357764239233,-10150,4198,-8591,13944.56829736941
1735565068819,-240,-69,984,1015.1930850828329,-10105,4230,-5390,12208.850273469652
1735565068849,-240,-69,984,1015.1930850828329,-10034,4234,-2171,11105.005763168248
1735565068879,-240,-69,984,1015.1930850828329,-9984,4212,1039,10885.803645115046
1735565068909,-247,-20,929,961.4832291829119,-9996,4175,4216,11624.340712487741
1735565068939,-247,-20,929,961.4832291829119,-10060,4158,7371,13146.262016253899
1735565068969,-247,-20,929,961.4832291829119,-10116,4164,10524,15179.819761775829
1735565069000,-306,-15,981,1027.7266173452938,-10133,4193,13712,17557.843888131596
1735565069029,-306,-15,981,1027.7266173452938,-10051,4222,17037,20226.399926828304
1735565069060,-306,-15,981,1027.7266173452938,-9973,4216,-15630,19014.002340380626
1735565069090,-263,-2,960,995.3758084261441,-9932,4185,-12321,16369.663710656978
1735565069119,-263,-2,960,995.3758084261441,-9980,4153,-9104,14132.608570253406
1735565069149,-263,-2,960,995.3758084261441,-10037,4143,-5899,12357.346762149227
1735565069179,-263,-2,960,995.3758084261441,-10082,4155,-2692,11231.990607189804
1735565069209,-282,-52,917,960.7897792961788,-10057,4168,503,10898.095338177218
1735565069239,-282,-52,917,960.7897792961788,-10016,4164,3708,11463.35099349226
1735565069269,-282,-52,917,960.7897792961788,-9992,4147,6905,12834.200325692287
1735565069299,-258,11,845,883.577953550223,-9996,4117,10075,14777.527871738223
1735565069329,-258,11,845,883.577953550223,-10102,4096,13177,17101.48967195548
1735565069359,-258,11,845,883.577953550223,-10189,4114,16281,19642.08945097237
1735565069389,-296,3,953,997.9148260247465,-10209,4166,-16562,19896.71030597772
1735565069419,-296,3,953,997.9148260247465,-10097,4214,-13265,17194.98269845015
1735565069449,-296,3,953,997.9148260247465,-9984,4214,-9953,14713.94783870053
1735565069480,-296,3,953,997.9148260247465,-9910,4175,-6659,12648.35981461628
1735565069509,-316,-38,998,1047.5227921148064,-9852,4136,-3408,11215.295983610955
1735565069539,-316,-38,998,1047.5227921148064,-9831,4080,-185,10645.618159599751
1735565069569,-316,-38,998,1047.5227921148064,-9859,4028,3000,11064.56799879688
1735565069599,-317,-108,946,1003.5282756355199,-9920,4012,6153,12343.498410094278
1735565069629,-317,-108,946,1003.5282756355199,-9948,4018,9301,14199.141840266264
1735565069659,-317,-108,946,1003.5282756355199,-9962,4033,12457,16452.458235777412
1735565069689,-331,-121,921,986.1252455951019,-9975,4058,15617,18969.941433752505
1735565069719,-331,-121,921,986.1252455951019,-9964,4099,-17200,20295.88867233953
1735565069749,-331,-121,921,986.1252455951019,-9925,4128,-13993,17645.11428129611
1735565069779,-331,-121,921,986.1252455951019,-9877,4139,-10773,15190.259346041463
1735565069809,-281,-116,889,939.5413774815881,-9900,4143,-7606,13153.922798922
1735565069839,-281,-116,889,939.5413774815881,-9924,4157,-4453,11644.553834303828
1735565069869,-281,-116,889,939.5413774815881,-9929,4177,-1287,10848.444081987058
1735565069899,-291,-94,920,969.4931665566293,-9907,4194,1915,10927.282827857985
1735565069929,-291,-94,920,969.4931665566293,-9877,4201,5144,11902.279865639188
1735565069960,-291,-94,920,969.4931665566293,-9852,4197,8373,13593.522060157919
1735565069989,-307,-108,923,978.694027773747,-9828,4182,11597,15766.074876138322
1735565070020,-307,-108,923,978.694027773747,-9788,4147,14822,18239.907812267036
1735565070050,-307,-108,923,978.694027773747,-9788,4105,-17980,20879.08927611547
1735565070079,-307,-108,923,978.694027773747,-9819,4072,-14808,18228.29693087097
1735565070109,-315,-132,1021,1076.6104216474964,-9808,4052,-11597,15719.604861446105
1735565070140,-315,-132,1021,1076.6104216474964,-9808,4030,-8397,13525.803968711065
1735565070169,-315,-132,1021,1076.6104216474964,-9825,4012,-5210,11822.47304923974
1735565070199,-290,-110,1028,1073.7709252908649,-9875,3995,-2059,10849.660409432177
1735565070229,-290,-110,1028,1073.7709252908649,-9951,4001,1059,10777.378299011314
1735565070260,-290,-110,1028,1073.7709252908649,-9998,4031,4192,11566.409512030948
1735565070289,-298,-140,956,1011.1083028044028,-10015,4071,7337,13065.406040380069
1735565070319,-298,-140,956,1011.1083028044028,-9983,4104,10490,15051.352264829895
1735565070350,-298,-140,956,1011.1083028044028,-9937,4119,13659,17386.15572804983
1735565070380,-298,-140,956,1011.1083028044028,-9894,4116,16831,19952.82568961098
1735565070410,-293,-54,927,973.701186196258,-9903,4096,-15971,19233.29056609919
1735565070439,-293,-54,927,973.701186196258,-9941,4093,-12783,16702.7308844991
1735565070470,-293,-54,927,973.701186196258,-9969,4104,-9592,14430.18506464834
1735565070499,-288,-39,881,927.6993047318726,-9991,4116,-6416,12566.884777063884
1735565070529,-288,-39,881,927.6993047318726,-10009,4132,-3245,11304.137738014342
1735565070559,-288,-39,881,927.6993047318726,-10009,4152,-61,10836.185029797156
1735565070589,-255,-50,871,908.9367414732446,-9998,4169,3130,11275.525043207523
1735565070619,-255,-50,871,908.9367414732446,-10000,4183,6289,12531.919645449376
1735565070649,-255,-50,871,908.9367414732446,-9991,4195,9457,14382.383495095659
1735565070679,-255,-50,871,908.9367414732446,-9975,4201,12631,16634.037002483794
1735565070709,-248,-66,914,949.3450373810357,-9979,4201,15775,19133.203260301187
1735565070739,-248,-66,914,949.3450373810357,-9980,4200,-17083,20225.461403883968
1735565070769,-248,-66,914,949.3450373810357,-9981,4200,-13942,17653.32050918467
1735565070799,-270,-100,932,975.4609166952821,-9936,4211,-10727,15215.950381096805
1735565070829,-270,-100,932,975.4609166952821,-9856,4199,-7462,13055.794920264334
1735565070860,-270,-100,932,975.4609166952821,-9813,4163,-4217,11463.360196731148
1735565070889,-219,-77,912,941.0812929816425,-9818,4116,-1016,10694.243124223425
1735565070919,-219,-77,912,941.0812929816425,-9924,4084,2069,10929.116752967735
1735565070950,-219,-77,912,941.0812929816425,-10019,4092,5151,11985.725927118474
1735565070979,-219,-77,912,941.0812929816425,-10078,4131,8251,13664.195768503903
1735565071009,-198,-95,928,953.631480185087,-10089,4169,11362,15756.380485377978
1735565071039,-198,-95,928,953.631480185087,-10070,4202,14491,18139.757027038704
1735565071069,-198,-95,928,953.631480185087,-10031,4222,17637,20724.623374141207
1735565071099,-258,-87,948,986.3249971485058,-9965,4223,-15177,18640.715731966946
1735565071129,-258,-87,948,986.3249971485058,-9891,4197,-11954,16073.108162393482
1735565071159,-258,-87,948,986.3249971485058,-9863,4150,-8758,13827.647413786628
1735565071189,-229,-125,987,1020.899113526895,-9880,4105,-5600,12075.819847944073
1735565071219,-229,-125,987,1020.899113526895,-9922,4070,-2507,11013.44782527252
1735565071249,-229,-125,987,1020.899113526895,-9976,4056,569,10784.037880126349
1735565071279,-229,-125,987,1020.899113526895,-10022,4062,3645,11411.67616960804
1735565071309,-212,-87,903,931.6233144356146,-10099,4070,6693,12780.882207422146
1735565071339,-212,-87,903,931.6233144356146,-10156,4107,9750,14665.411177324691
1735565071369,-212,-87,903,931.6233144356146,-10169,4156,12837,16895.841677762015
1735565071399,-227,-76,925,955.4737045047341,-10127,4196,15970,19370.168946088208
1735565071430,-227,-76,925,955.4737045047341,-10064,4211,-16863,20084.257168240005
1735565071460,-227,-76,925,955.4737045047341,-10009,4202,-13697,17476.97611144445
1735565071489,-188,-54,949,968.9483990388756,-9982,4178,-10542,15107.275465814477
1735565071520,-188,-54,949,968.9483990388756,-10029,4159,-7446,13165.144815002986
1735565071549,-188,-54,949,968.9483990388756,-10075,4160,-4354,11737.484440884256
1735565071579,-188,-54,949,968.9483990388756,-10106,4175,-1256,11006.334403424238
1735565071609,-245,-28,937,968.90556815409,-10123,4214,1906,11129.499584437748
1735565071639,-245,-28,937,968.90556815409,-10096,4252,5120,12092.275220156049
1735565071669,-245,-28,937,968.90556815409,-10048,4273,8354,13748.096195473758
1735565071699,-261,-43,950,986.1389354446968,-10005,4280,11607,15910.401440567111
1735565071729,-261,-43,950,986.1389354446968,-9958,4273,14876,18404.229649729976
1735565071759,-261,-43,950,986.1389354446968,-9933,4251,-17866,20878.923487574735
1735565071789,-221,-41,1005,1029.8286265199663,-9934,4222,-14632,18182.54833624814
1735565071819,-221,-41,1005,1029.8286265199663,-9990,4196,-11476,15783.06345422206
1735565071849,-221,-41,1005,1029.8286265199663,-10048,4193,-8329,13708.238180014236
1735565071879,-221,-41,1005,1029.8286265199663,-10090,4209,-5175,12095.635824544323
1735565071909,-267,-72,920,960.6627920347493,-10063,4235,-1993,11098.25405187681
1735565071939,-267,-72,920,960.6627920347493,-10009,4241,1218,10938.449890180967
1735565071969,-267,-72,920,960.6627920347493,-9968,4228,4426,11697.28532609169
1735565071999,-216,-78,917,945.319522701187,-9939,4198,7628,13213.376139352122
1735565072029,-216,-78,917,945.319522701187,-9955,4162,10782,15253.714072316945
1735565072059,-216,-78,917,945.319522701187,-9993,4138,13916,17624.92975872528
1735565072089,-254,-49,971,1004.8671553991602,-10029,4131,17054,20211.00982138201
1735565072119,-254,-49,971,1004.8671553991602,-10038,4140,-15735,19117.825948574802
1735565072149,-254,-49,971,1004.8671553991602,-10038,4151,-12518,16573.85196627507
1735565072179,-254,-49,971,1004.8671553991602,-10029,4159,-9294,14291.83536149224
1735565072209,-247,-54,1002,1033.4065027858107,-10039,4161,-6131,12477.363623778863
1735565072239,-247,-54,1002,1033.4065027858107,-10046,4165,-2970,11273.430755541987
1735565072269,-247,-54,1002,1033.4065027858107,-10047,4170,194,10879.740116381457
1735565072300,-290,-19,973,1015.4752581919463,-10044,4175,3390,11393.184848847139
1735565072329,-290,-19,973,1015.4752581919463,-10033,4182,6629,12731.60846083479
1735565072359,-290,-19,973,1015.4752581919463,-10021,4183,9871,14674.96408854209
1735565072389,-238,-45,967,996.8741144196694,-10013,4184,13109,17017.987718881453
1735565072419,-238,-45,967,996.8741144196694,-10025,4187,16281,19573.005773258228
1735565072450,-238,-45,967,996.8741144196694,-10032,4192,-16543,19796.078828899423
1735565072479,-238,-45,967,996.8741144196694,-10032,4199,-13364,17229.890336273183
1735565072509,-254,-62,873,911.3116920132211,-10005,4205,-10147,14857.444564931076
1735565072539,-254,-62,873,911.3116920132211,-9975,4199,-6925,12848.651719149368
1735565072569,-254,-62,873,911.3116920132211,-9960,4184,-3710,11422.414630891317
1735565072599,-269,-58,906,946.8690511364283,-9959,4158,-519,10804.628915423242
1735565072629,-269,-58,906,946.8690511364283,-9974,4131,2655,11117.322609333598
1735565072659,-269,-58,906,946.8690511364283,-10005,4115,5816,12282.471493962443
1735565072689,-203,-54,937,960.2572571972576,-10034,4109,8975,14075.356549657987
1735565072719,-203,-54,937,960.2572571972576,-10102,4113,12066,16265.163048675535
1735565072749,-203,-54,937,960.2572571972576,-10146,4138,15168,18711.830054807575
1735565072779,-256,-10,907,942.4887267230309,-10148,4173,-17696,20821.725408812785
1735565072809,-256,-10,907,942.4887267230309,-10097,4207,-14453,18125.60252791614
1735565072839,-256,-10,907,942.4887267230309,-10036,4217,-11194,15614.417088063197
1735565072869,-256,-10,907,942.4887267230309,-9988,4204,-7938,13433.004280502557
1735565072899,-282,-71,995,1036.6243292533704,-9933,4181,-4669,11744.990889736782
1735565072929,-282,-71,995,1036.6243292533704,-9897,4135,-1416,10819.144605744023
1735565072959,-282,-71,995,1036.6243292533704,-9908,4087,1801,10868.10167416555
1735565072989,-222,-41,995,1020.289174695096,-9950,4048,4992,11845.204430485783
1735565073019,-222,-41,995,1020.289174695096,-10070,4035,8100,13538.689929236138
1735565073049,-222,-41,995,1020.289174695096,-10161,4064,11217,15671.091410619747
1735565073079,-240,-33,910,941.6947488438066,-10210,4114,14350,18085.67377788287
1735565073109,-240,-33,910,941.6947488438066,-10216,4167,17514,20699.534801536
1735565073139,-240,-33,910,941.6947488438066,-10179,4212,-15287,18842.647213170447
1735565073169,-240,-33,910,941.6947488438066,-10119,4236,-12064,16305.764410171025
1735565073199,-257,-57,979,1013.774629787114,-10056,4225,-8849,14045.588702507275
1735565073228,-257,-57,979,1013.774629787114,-10014,4191,-5645,12235.632472414329
1735565073259,-257,-57,979,1013.774629787114,-10011,4150,-2469,11114.791136139267
1735565073289,-174,-72,950,968.4833503989627,-10079,4116,622,10904.796238353103
1735565073319,-174,-72,950,968.4833503989627,-10190,4115,3626,11572.259978068243
1735565073349,-174,-72,950,968.4833503989627,-10268,4149,6644,12914.672314851818
1735565073379,-251,-33,979,1011.2027492051235,-10292,4206,9711,14762.087284662693
1735565073409,-251,-33,979,1011.2027492051235,-10225,4273,12946,17041.363501785883
1735565073439,-251,-33,979,1011.2027492051235,-10126,4303,16217,19597.009312647682
1735565073469,-251,-33,979,1011.2027492051235,-10037,4294,-16506,19789.58920745956
1735565073499,-254,-4,937,970.824906973446,-10012,4254,-13258,17149.671250493404
1735565073529,-254,-4,937,970.824906973446,-10031,4216,-10038,14803.954235271061
1735565073559,-254,-4,937,970.824906973446,-10073,4193,-6839,12877.053195510221
1735565073589,-276,19,992,1029.854844140668,-10102,4184,-3630,11520.987804871595
1735565073619,-276,19,992,1029.854844140668,-10120,4186,-401,10958.91404291502
1735565073649,-276,19,992,1029.854844140668,-10131,4194,2832,11324.620126079284
1735565073679,-233,24,982,1009.5489091668616,-10136,4204,6065,12537.79633747494
1735565073709,-233,24,982,1009.5489091668616,-10173,4217,9239,14374.704831752199
1735565073739,-233,24,982,1009.5489091668616,-10188,4240,12427,16619.364398195255
1735565073769,-233,24,982,1009.5489091668616,-10181,4263,15632,19135.97016092991
1735565073799,-260,-27,963,997.8466816099556,-10084,4277,-17070,20282.12723064324
1735565073829,-260,-27,963,997.8466816099556,-9993,4247,-13772,17537.532380583078
1735565073859,-260,-27,963,997.8466816099556,-9956,4193,-10508,15070.542425539965
1735565073889,-284,16,920,962.9704045296512,-9968,4131,-7279,13015.76067696391
1735565073919,-284,16,920,962.9704045296512,-10029,4087,-4071,11569.67808540929
1735565073949,-284,16,920,962.9704045296512,-10103,4072,-880,10928.22917951486
1735565073979,-199,-9,982,1002.000998003495,-10178,4085,2290,11203.705146066635
1735565074009,-199,-9,982,1002.000998003495,-10288,4120,5340,12301.745567194925
1735565074039,-199,-9,982,1002.000998003495,-10337,4186,8426,13977.612135125226
1735565074070,-199,-9,982,1002.000998003495,-10322,4256,11561,16072.14798961234
1735565074099,-252,-31,952,985.2761034349712,-10247,4316,14760,18479.352396661525
1735565074129,-252,-31,952,985.2761034349712,-10131,4335,-17991,21097.522769273175
1735565074159,-252,-31,952,985.2761034349712,-10039,4312,-14747,18353.443110217766
1735565074188,-224,-23,920,947.156270105414,-9998,4265,-11525,15842.217458424184
1735565074218,-224,-23,920,947.156270105414,-10020,4218,-8350,13708.18820997144
1735565074249,-224,-23,920,947.156270105414,-10071,4188,-5202,12084.088256877305
1735565074280,-247,-19,930,962.4292181765888,-10120,4181,-2051,11140.097037279344
1735565074310,-247,-19,930,962.4292181765888,-10130,4194,1161,11025.173785478395
1735565074340,-247,-19,930,962.4292181765888,-10126,4207,4384,11809.071978779704
1735565074370,-247,-19,930,962.4292181765888,-10114,4216,7614,13343.1873253732
1735565074400,-218,1,962,986.3919099424934,-10096,4214,10847,15405.986531215714
1735565074430,-218,1,962,986.3919099424934,-10096,4210,14066,17818.68884065267
1735565074460,-218,1,962,986.3919099424934,-10100,4206,17281,20453.200165255315
1735565074490,-250,-41,971,1003.5048579852516,-10094,4205,-15507,18974.664950928647
1735565074520,-250,-41,971,1003.5048579852516,-10062,4193,-12284,16423.207634320403
1735565074550,-250,-41,971,1003.5048579852516,-10050,4172,-9074,14168.470630240936
1735565074580,-244,-40,925,957.476370465611,-10064,4148,-5895,12379.055900996651
1735565074610,-244,-40,925,957.476370465611,-10111,4128,-2770,11267.014023245023
1735565074640,-244,-40,925,957.476370465611,-10157,4127,348,10968.95081582555
1735565074669,-244,-40,925,957.476370465611,-10189,4142,3474,11534.321002989296
1735565074699,-252,-30,998,1029.7611373517648,-10169,4166,6653,12846.265060320062
1735565074729,-252,-30,998,1029.7611373517648,-10137,4179,9848,14737.907381986088
1735565074759,-252,-30,998,1029.7611373517648,-10105,4179,13047,17023.491856843
1735565074789,-240,10,844,877.5169514032193,-10118,4158,16220,19564.03046409405
1735565074819,-240,10,844,877.5169514032193,-10176,4151,-16633,19935.85879765404
1735565074849,-240,10,844,877.5169514032193,-10221,4164,-13484,17424.86708701102
1735565074879,-232,-14,937,965.395773763279,-10238,4198,-10314,15126.745981869333
1735565074909,-232,-14,937,965.395773763279,-10197,4239,-7113,13135.550959133767
1735565074939,-232,-14,937,965.395773763279,-10137,4259,-3890,11663.187814658564
1735565074969,-232,-14,937,965.395773763279,-10082,4255,-664,10963.24062492473
1735565074999,-259,-18,985,1018.6412518644628,-10080,4254,2548,11233.664584631322
1735565075030,-259,-18,985,1018.6412518644628,-10072,4252,5771,12362.407896522425
1735565075060,-259,-18,985,1018.6412518644628,-10068,4247,8991,14150.608255477924
1735565075089,-277,-13,989,1027.1411782223513,-10081,4241,12200,16384.52446670333
1735565075119,-277,-13,989,1027.1411782223513,-10095,4242,15414,18907.53778258819
1735565075149,-277,-13,989,1027.1411782223513,-10103,4247,-17370,20538.366975005585
1735565075179,-278,-35,972,1011.5794580753408,-10091,4258,-14129,17877.009984894008
1735565075209,-278,-35,972,1011.5794580753408,-10027,4260,-10841,15369.307401441354
1735565075239,-278,-35,972,1011.5794580753408,-9983,4240,-7562,13222.01697926606
1735565075269,-278,-35,972,1011.5794580753408,-9970,4209,-4303,11646.131975896547
1735565075299,-232,8,894,923.6471187634377,-10036,4169,-1136,10926.680786039282
1735565075330,-232,8,894,923.6471187634377,-10130,4165,1999,11133.738186251732
1735565075360,-232,8,894,923.6471187634377,-10196,4193,5145,12165.964408956654
1735565075390,-226,-1,934,960.95421326929,-10200,4239,8333,13836.47390052827
1735565075419,-226,-1,934,960.95421326929,-10156,4275,11554,15966.053895687563
1735565075450,-226,-1,934,960.95421326929,-10099,4289,14794,18418.67959436832
1735565075479,-200,-33,953,974.3192495275869,-10049,4278,-17977,21034.64318689528
1735565075509,-200,-33,953,974.3192495275869,-10023,4241,-14820,18386.924974013462
1735565075539,-200,-33,953,974.3192495275869,-10033,4202,-11691,15968.637199210207
1735565075569,-200,-33,953,974.3192495275869,-10069,4174,-8585,13874.770700807996
1735565075599,-209,-21,957,979.781098000977,-10103,4171,-5414,12197.509827829614
1735565075629,-209,-21,957,979.781098000977,-10127,4182,-2237,11182.549888106916
1735565075659,-209,-21,957,979.781098000977,-10135,4198,950,11011.082099412391
1735565075689,-217,-57,964,989.7646184825966,-10131,4213,4129,11723.274755800958
1735565075719,-217,-57,964,989.7646184825966,-10104,4218,7310,13165.046145000784
1735565075749,-217,-57,964,989.7646184825966,-10083,4213,10490,15147.816938423834
1735565075780,-234,-4,992,1019.2330449902024,-10071,4200,13668,17489.40436378552
1735565075810,-234,-4,992,1019.2330449902024,-10099,4194,16867,20101.619984468914
1735565075839,-234,-4,992,1019.2330449902024,-10122,4199,-15933,19337.708602624047
1735565075869,-234,-4,992,1019.2330449902024,-10133,4211,-12727,16804.366664649995
1735565075898,-252,30,885,920.6676924927908,-10137,4209,-9550,14549.121966634275
1735565075929,-252,30,885,920.6676924927908,-10144,4211,-6367,12695.351353940543
1735565075959,-252,30,885,920.6676924927908,-10148,4215,-3181,11439.706727010094
1735565075989,-158,-23,920,933.7521084313545,-10161,4208,-42,10997.952036629365
1735565076019,-158,-23,920,933.7521084313545,-10200,4198,3009,11433.16600946562
1735565076049,-158,-23,920,933.7521084313545,-10233,4203,6061,12614.088116070856
1735565076079,-254,-45,979,1012.4139469604318,-10218,4229,9159,14358.943066953083
1735565076109,-254,-45,979,1012.4139469604318,-10025,4248,12465,16550.59980786195
1735565076139,-254,-45,979,1012.4139469604318,-9883,4196,15753,19064.0266995197
1735565076170,-254,-45,979,1012.4139469604318,-9829,4107,-17013,20072.838837593452
1735565076200,-151,-81,940,955.4904499784391,-10037,4003,-14065,17736.67395539536
1735565076229,-151,-81,940,955.4904499784391,-10266,3982,-11186,15696.294976840873
1735565076259,-151,-81,940,955.4904499784391,-10442,4038,-8293,13932.5036156464
1735565076289,-224,-80,880,911.5788501276234,-10533,4149,-5340,12516.944115877484
1735565076319,-224,-80,880,911.5788501276234,-10490,4277,-2261,11551.837516170317
1735565076349,-224,-80,880,911.5788501276234,-10361,4367,896,11279.353970861983
1735565076379,-203,-6,815,839.9226154831169,-10189,4401,4126,11840.962714239075
1735565076409,-203,-6,815,839.9226154831169,-10093,4390,7390,13257.181035197491
1735565076440,-203,-6,815,839.9226154831169,-10038,4350,10631,15254.576526406756
1735565076470,-203,-6,815,839.9226154831169,-10034,4299,13837,17624.560306572188
1735565076499,-174,-37,1044,1059.0472133007102,-10001,4244,17030,20200.30784418891
1735565076529,-174,-37,1044,1059.0472133007102,-10023,4186,-15828,19196.5806590653
1735565076559,-174,-37,1044,1059.0472133007102,-10081,4147,-12721,16752.552372698316
1735565076589,-160,37,979,992.6781955900915,-10176,4123,-9640,14610.94469909458
1735565076618,-160,37,979,992.6781955900915,-10301,4142,-6572,12901.85835451622
1735565076649,-160,37,979,992.6781955900915,-10373,4199,-3477,11718.37271125987
1735565076679,-202,14,901,923.4722518841592,-10359,4278,-315,11212.019889386569
1735565076710,-202,14,901,923.4722518841592,-10198,4339,2990,11478.94703359154
1735565076739,-202,14,901,923.4722518841592,-10041,4333,6314,12627.872584089531
1735565076769,-132,-50,964,974.2792207575814,-9959,4275,9592,14472.86322743361
1735565076799,-132,-50,964,974.2792207575814,-9982,4196,12708,16695.508497796647
1735565076829,-132,-50,964,974.2792207575814,-10055,4139,15777,19161.10839695867
1735565076859,-132,-50,964,974.2792207575814,-10147,4117,-17177,20370.582392263605
1735565076889,-190,-38,973,992.1053371492363,-10210,4124,-14081,17875.2912423826
1735565076919,-190,-38,973,992.1053371492363,-10237,4150,-10949,15553.111264309788
1735565076950,-190,-38,973,992.1053371492363,-10235,4181,-7797,13528.828293684564
1735565076980,-218,9,876,902.7629810753208,-10216,4198,-4637,11978.79914682603
1735565077010,-218,9,876,902.7629810753208,-10221,4204,-1458,11147.565698393528
1735565077040,-218,9,876,902.7629810753208,-10219,4211,1725,11186.42512154799
1735565077069,-221,5,997,1021.2125146119196,-10199,4219,4922,12084.934670903272
1735565077099,-221,5,997,1021.2125146119196,-10149,4219,8141,13677.647568204116
1735565077130,-221,5,997,1021.2125146119196,-10116,4201,11353,15775.692251055103
1735565077160,-221,5,997,1021.2125146119196,-10107,4176,14549,18200.654548669398
1735565077189,-224,-71,1035,1061.339719411273,-10098,4156,17714,20809.318489561352
1735565077219,-224,-71,1035,1061.339719411273,-10091,4128,-15137,18654.68933003174
1735565077249,-224,-71,1035,1061.339719411273,-10108,4103,-12007,16222.648427430091
1735565077279,-241,-18,909,940.5774821884692,-10186,4084,-8887,14121.346288509463
1735565077310,-241,-18,909,940.5774821884692,-10286,4104,-5755,12480.570379594035
1735565077339,-241,-18,909,940.5774821884692,-10339,4155,-2596,11441.073463622197
1735565077369,-191,50,981,1000.6707750304292,-10347,4206,575,11183.982743191264
1735565077399,-191,50,981,1000.6707750304292,-10426,4254,3672,11844.052347064327
1735565077429,-191,50,981,1000.6707750304292,-10444,4319,6811,13195.477179700627
1735565077459,-191,50,981,1000.6707750304292,-10405,4378,9995,15077.497604045573
1735565077489,-131,-47,1007,1016.572181401793,-10225,4428,13305,17354.562339627006
1735565077519,-131,-47,1007,1016.572181401793,-10060,4399,16595,19898.462905460812
1735565077549,-131,-47,1007,1016.572181401793,-9975,4323,-16161,19477.342606218128
1735565077579,-136,14,952,961.7671235803394,-9989,4205,-13000,16925.192642921378
1735565077609,-136,14,952,961.7671235803394,-10116,4109,-9917,14750.058508358534
1735565077639,-136,14,952,961.7671235803394,-10271,4072,-6873,13012.023439880517
1735565077669,-166,21,989,1003.054335517274,-10396,4087,-3836,11810.812038128453
1735565077699,-166,21,989,1003.054335517274,-10444,4126,-754,11254.755794774048
1735565077729,-166,21,989,1003.054335517274,-10448,4175,2357,11495.51121090315
1735565077758,-166,21,989,1003.054335517274,-10413,4216,5501,12508.64604983289
1735565077789,-218,-17,946,970.9423257845957,-10307,4251,8693,14137.66243054346
1735565077819,-218,-17,946,970.9423257845957,-10188,4238,11911,16236.62246281535
1735565077849,-218,-17,946,970.9423257845957,-10119,4188,15103,18655.672434945893
1735565077879,-266,-7,1010,1044.4639773587216,-10126,4142,-17713,20819.279742584757
1735565077909,-266,-7,1010,1044.4639773587216,-10153,4118,-14508,18180.302445229012
1735565077939,-266,-7,1010,1044.4639773587216,-10189,4108,-11315,15770.878542427496
1735565077969,-158,-61,940,955.1361159541608,-10248,4118,-8144,13722.396437940422
1735565078000,-158,-61,940,955.1361159541608,-10361,4156,-5119,12281.157030182458
1735565078030,-158,-61,940,955.1361159541608,-10412,4224,-2056,11422.742928036156
1735565078059,-158,-61,940,955.1361159541608,-10395,4297,1056,11297.58248476195
1735565078089,-181,-40,974,991.4822237438249,-10309,4360,4280,11983.466985810075
1735565078119,-181,-40,974,991.4822237438249,-10199,4384,7546,13423.15808593492
1735565078149,-181,-40,974,991.4822237438249,-10107,4366,10810,15429.501126089592
1735565078179,-148,-10,979,990.1742270933939,-10096,4314,13997,17789.205181794943
1735565078209,-148,-10,979,990.1742270933939,-10168,4271,17104,20351.32627127775
1735565078239,-148,-10,979,990.1742270933939,-10249,4260,-15804,19312.069205551226
1735565078269,-177,-17,873,890.9248004180824,-10295,4275,-12698,16896.80011126367
1735565078299,-177,-17,873,890.9248004180824,-10263,4289,-9523,14642.821415287424
1735565078329,-177,-17,873,890.9248004180824,-10230,4290,-6343,12778.522958464331
1735565078359,-177,-17,873,890.9248004180824,-10208,4279,-3168,11513.006948664628
1735565078389,-207,-6,966,987.94787311882,-10145,4255,47,11001.284425011472
1735565078419,-207,-6,966,987.94787311882,-10117,4214,3249,11430.987971299768
1735565078449,-207,-6,966,987.94787311882,-10130,4172,6421,12698.493020827314
1735565078479,-182,-88,1049,1068.3019236152297,-10148,4147,9570,14552.12743896919
1735565078509,-182,-88,1049,1068.3019236152297,-10151,4123,12689,16764.624988349726
1735565078539,-182,-88,1049,1068.3019236152297,-10171,4103,15794,19228.475914642844
1735565078569,-207,-18,973,994.9381890348767,-10208,4091,-17105,20335.205187064133
1735565078599,-207,-18,973,994.9381890348767,-10293,4104,-13968,17829.573438531836
1735565078629,-207,-18,973,994.9381890348767,-10341,4145,-10810,15523.318137563245
1735565078659,-207,-18,973,994.9381890348767,-10342,4193,-7620,13513.053429924712
1735565078689,-197,-28,934,954.9602085951017,-10346,4242,-4466,12040.740674892057
1735565078719,-197,-28,934,954.9602085951017,-10311,4281,-1285,11238.100684724266
1735565078749,-197,-28,934,954.9602085951017,-10258,4301,1917,11287.163239716168
1735565078779,-154,24,891,904.5291592867529,-10211,4289,5129,12205.190821941294
1735565078810,-154,24,891,904.5291592867529,-10226,4267,8305,13847.432614026327
1735565078840,-154,24,891,904.5291592867529,-10253,4255,11470,15962.140645915886
1735565078869,-182,5,997,1013.4880364365432,-10275,4256,14632,18378.91686144752
1735565078900,-182,5,997,1013.4880364365432,-10240,4261,17832,20999.85583283847
1735565078930,-182,5,997,1013.4880364365432,-10213,4253,-14968,18612.748373090955
1735565078959,-182,5,997,1013.4880364365432,-10202,4237,-11779,16148.616473246246
1735565078989,-178,-83,938,958.3407535944613,-10165,4215,-8630,13984.646938696736
1735565079019,-178,-83,938,958.3407535944613,-10141,4175,-5505,12270.922173985133
1735565079049,-178,-83,938,958.3407535944613,-10154,4135,-2409,11225.204764279359
1735565079079,-177,-80,912,932.4553608618485,-10198,4113,671,11016.633514826568
1735565079109,-177,-80,912,932.4553608618485,-10247,4113,3751,11661.379806866767
1735565079139,-177,-80,912,932.4553608618485,-10280,4129,6837,13018.126209251468
1735565079169,-159,5,966,979.010725171078,-10301,4152,9932,14899.474118236523
1735565079199,-159,5,966,979.010725171078,-10394,4196,13017,17178.007480496683
1735565079229,-159,5,966,979.010725171078,-10424,4264,16143,19683.442813694965
1735565079259,-159,5,966,979.010725171078,-10391,4329,-16682,20124.66759973938
1735565079289,-174,-61,998,1014.8896491737414,-10215,4371,-13395,17403.38734269855
1735565079319,-174,-61,998,1014.8896491737414,-10047,4339,-10102,14893.6071520636
1735565079349,-174,-61,998,1014.8896491737414,-9963,4257,-6858,12822.463959785577
1735565079379,-196,-12,938,958.3339710142806,-10017,4153,-3727,11466.395553965509
1735565079408,-196,-12,938,958.3339710142806,-10160,4091,-659,10972.518489389753
1735565079439,-196,-12,938,958.3339710142806,-10303,4087,2390,11338.75998511301
1735565079469,-145,-30,961,972.3404753480131,-10399,4134,5468,12455.04640697898
1735565079499,-145,-30,961,972.3404753480131,-10446,4206,8556,14142.647842607126
1735565079529,-145,-30,961,972.3404753480131,-10423,4280,11696,16240.49706751613
1735565079559,-145,-30,961,972.3404753480131,-10350,4333,14881,18637.101437723624
1735565079589,-109,21,1010,1016.0816896293329,-10311,4351,-17906,21115.69932538347
1735565079620,-109,21,1010,1016.0816896293329,-10289,4360,-14699,18464.3906479472
1735565079650,-109,21,1010,1016.0816896293329,-10268,4360,-11489,16013.69866707876
1735565079679,-281,40,1067,1104.1059731746768,-10256,4344,-8267,13870.802464169115
1735565079709,-281,40,1067,1104.1059731746768,-10206,4319,-4952,12138.307171924758
1735565079739,-281,40,1067,1104.1059731746768,-10193,4283,-1661,11180.351470325071
1735565079769,-200,-74,871,896.7257105715214,-10162,4265,1655,11144.303208366147
1735565079799,-200,-74,871,896.7257105715214,-10034,4231,4967,11968.859845448938
1735565079829,-200,-74,871,896.7257105715214,-9978,4160,8235,13589.750144870213
1735565079859,-200,-74,871,896.7257105715214,-9996,4084,11449,15737.810298767741
1735565079889,-127,-62,1084,1093.173819664558,-10119,3990,14517,18139.943494950585
1735565079919,-127,-62,1084,1093.173819664558,-10288,3956,17521,20699.71789662845
1735565079949,-127,-62,1084,1093.173819664558,-10427,3984,-15472,19078.19092576652
1735565079979,-213,-38,869,895.5300106640759,-10518,4054,-12460,16802.227233316422
1735565080009,-213,-38,869,895.5300106640759,-10513,4146,-9359,14673.219346823655
1735565080039,-213,-38,869,895.5300106640759,-10440,4220,-6200,12854.648964479738
1735565080069,-223,-12,860,888.5229316117845,-10360,4261,-3001,11597.0566093298
1735565080099,-223,-12,860,888.5229316117845,-10325,4295,238,11185.226595827195
1735565080130,-223,-12,860,888.5229316117845,-10275,4310,3495,11677.617479606017
1735565080159,-223,-12,860,888.5229316117845,-10229,4305,6755,12992.13188818525
1735565080190,-187,37,984,1002.2943679378828,-10241,4284,9977,14925.523977401932
1735565080220,-187,37,984,1002.2943679378828,-10284,4277,13177,17253.600030138638
1735565080249,-187,37,984,1002.2943679378828,-10317,4286,16378,19825.467686791148
1735565080279,-244,73,866,902.6743598884373,-10306,4290,-16400,19838.79371332844
1735565080309,-244,73,866,902.6743598884373,-10277,4282,-13144,17225.475000707527
1735565080339,-244,73,866,902.6743598884373,-10265,4267,-9897,14883.820846812152
1735565080370,-228,32,1010,1035.9092624356633,-10248,4257,-6641,12932.379286117462
1735565080400,-228,32,1010,1035.9092624356633,-10186,4243,-3370,11537.527681440248
1735565080429,-228,32,1010,1035.9092624356633,-10156,4210,-118,10994.651426943921
1735565080459,-250,-2,940,972.6787753415821,-10163,4174,3113,11419.265037645811
1735565080489,-250,-2,940,972.6787753415821,-10154,4141,6361,12677.299318072442
1735565080519,-250,-2,940,972.6787753415821,-10174,4111,9586,14570.58657021055
1735565080550,-250,-2,940,972.6787753415821,-10210,4094,12795,16873.558042096516
1735565080579,-226,17,964,990.2832928006005,-10298,4090,15966,19434.249663930943
1735565080609,-226,17,964,990.2832928006005,-10370,4120,-16861,20218.91740425288
1735565080639,-226,17,964,990.2832928006005,-10396,4168,-13661,17665.55860990532
1735565080669,-160,-14,913,927.0194172723676,-10377,4219,-10433,15307.827376868345
1735565080699,-160,-14,913,927.0194172723676,-10353,4252,-7267,13344.414636843387
1735565080729,-160,-14,913,927.0194172723676,-10311,4270,-4083,11883.623605617942
1735565080759,-169,6,961,975.7653406429232,-10265,4270,-891,11153.340575809563
1735565080789,-169,6,961,975.7653406429232,-10236,4255,2309,11323.082707460897
1735565080819,-169,6,961,975.7653406429232,-10227,4234,5496,12358.167380319786
1735565080849,-169,6,961,975.7653406429232,-10238,4214,8668,14060.891294651276
1735565080879,-198,32,979,999.3342784073806,-10291,4199,11801,16211.103694690253
1735565080909,-198,32,979,999.3342784073806,-10337,4206,14943,18650.39554540332
1735565080939,-198,32,979,999.3342784073806,-10363,4227,-17902,21112.57686782928
1735565080969,-179,39,992,1008.774504039431,-10368,4254,-14719,18499.75407944657
1735565080999,-179,39,992,1008.774504039431,-10360,4281,-11521,16074.514051752856
1735565081029,-179,39,992,1008.774504039431,-10334,4300,-8306,13938.12010279722
1735565081059,-169,12,954,968.9277578849726,-10295,4309,-5075,12260.103221425177
1735565081089,-169,12,954,968.9277578849726,-10237,4298,-1840,11254.091389357029
1735565081119,-169,12,954,968.9277578849726,-10206,4270,1378,11148.731766438728
1735565081150,-169,12,954,968.9277578849726,-10208,4238,4574,11961.830294733327
1735565081179,-201,63,970,992.6076767786959,-10278,4205,7734,13532.703536248771
1735565081209,-201,63,970,992.6076767786959,-10352,4205,10897,15607.387289357563
1735565081239,-201,63,970,992.6076767786959,-10402,4231,14071,18002.66663580704
1735565081269,-246,20,993,1023.2130765388018,-10364,4274,17318,20629.898109297585
1735565081299,-246,20,993,1023.2130765388018,-10251,4286,-15360,18957.383706619436
1735565081329,-246,20,993,1023.2130765388018,-10166,4257,-12050,16330.09813197704
1735565081360,-177,39,930,947.4967018412254,-10144,4201,-8781,14058.986378825466
1735565081389,-177,39,930,947.4967018412254,-10260,4149,-5650,12425.952720013061
1735565081419,-177,39,930,947.4967018412254,-10376,4145,-2534,11457.03089809921
1735565081449,-177,39,930,947.4967018412254,-10458,4180,595,11278.128789830342
1735565081480,-175,-6,930,946.3408476864983,-10485,4244,3774,11924.338010975704
1735565081509,-175,-6,930,946.3408476864983,-10444,4300,6996,13285.749960013549
1735565081539,-175,-6,930,946.3408476864983,-10372,4331,10250,15211.786384248235
1735565081569,-200,56,941,963.6477572225238,-10298,4329,13528,17544.11094926158
1735565081598,-200,56,941,963.6477572225238,-10261,4309,16817,20165.98847068995
1735565081629,-200,56,941,963.6477572225238,-10253,4280,-15913,19407.884428757297
1735565081659,-113,57,1050,1057.6001134644416,-10271,4258,-12659,16848.5692567648
1735565081689,-113,57,1050,1057.6001134644416,-10366,4258,-9502,14692.600995058703
1735565081719,-113,57,1050,1057.6001134644416,-10431,4288,-6333,12934.434429073426
1735565081749,-113,57,1050,1057.6001134644416,-10451,4334,-3134,11740.055919798679
1735565081779,-162,25,931,945.3200516227295,-10424,4377,89,11306.008402614956
1735565081809,-162,25,931,945.3200516227295,-10352,4398,3357,11737.791828108046
1735565081839,-162,25,931,945.3200516227295,-10288,4391,6627,13001.57505843042
1735565081869,-194,100,921,946.5077918326928,-10268,4347,9883,14899.728923708646
1735565081899,-194,100,921,946.5077918326928,-10312,4309,13126,17239.39386985517
1735565081929,-194,100,921,946.5077918326928,-10372,4293,16350,19832.567483813084
1735565081959,-169,81,920,938.8940302291841,-10414,4304,-16418,19912.97406215355
1735565081989,-169,81,920,938.8940302291841,-10419,4331,-13183,17352.36614989437
1735565082019,-169,81,920,938.8940302291841,-10401,4353,-9930,15024.457061737705
1735565082049,-169,81,920,938.8940302291841,-10372,4365,-6665,13078.755063078443
1735565082079,-204,90,900,927.2087143680219,-10323,4346,-3396,11704.053186823785
1735565082109,-204,90,900,927.2087143680219,-10299,4315,-133,11167.19817143047
1735565082139,-204,90,900,927.2087143680219,-10309,4282,3103,11586.182028606318
1735565082170,-199,83,980,1003.4390863425642,-10312,4258,6341,12832.622062540453
1735565082200,-199,83,980,1003.4390863425642,-10320,4236,9570,14697.992924205671
1735565082229,-199,83,980,1003.4390863425642,-10341,4221,12787,16978.235803522108
1735565082259,-245,57,930,963.4178740297483,-10378,4216,15990,19523.258949263567
1735565082289,-245,57,930,963.4178740297483,-10371,4221,-16766,20161.181463396435
1735565082319,-245,57,930,963.4178740297483,-10362,4223,-13521,17550.561643434663
1735565082349,-245,57,930,963.4178740297483,-10355,4221,-10276,15186.80486475019
1735565082379,-91,-12,934,938.4993340434504,-10387,4219,-7148,13296.00067689529
1735565082409,-91,-12,934,938.4993340434504,-10433,4224,-4078,11971.622655262736
1735565082439,-91,-12,934,938.4993340434504,-10461,4243,-999,11332.85361239613
1735565082469,-193,109,950,975.5152484712886,-10506,4267,2129,11537.589262926636
1735565082499,-193,109,950,975.5152484712886,-10538,4320,5361,12587.778398112989
1735565082530,-193,109,950,975.5152484712886,-10516,4373,8634,14291.792784671909
1735565082560,-119,65,948,957.648160860762,-10443,4409,11948,16469.67619596694
1735565082589,-119,65,948,957.648160860762,-10368,4400,15199,18917.320766958517
1735565082620,-119,65,948,957.648160860762,-10325,4367,-17568,20840.128070623752
1735565082649,-119,65,948,957.648160860762,-10323,4327,-14364,18210.21015804046
1735565082680,-149,103,1005,1021.1929298619336,-10343,4295,-11126,15786.467305892094
1735565082710,-149,103,1005,1021.1929298619336,-10381,4280,-7893,13725.26903197165
1735565082740,-149,103,1005,1021.1929298619336,-10419,4280,-4664,12191.26150158383
1735565082770,-156,106,922,941.092981591086,-10430,4309,-1397,11371.191230473612
1735565082799,-156,106,922,941.092981591086,-10403,4342,1914,11434.105518141767
1735565082829,-156,106,922,941.092981591086,-10358,4360,5245,12401.926826102466
1735565082859,-136,73,916,928.913881907252,-10333,4354,8546,14098.309153937575
1735565082889,-136,73,916,928.913881907252,-10351,4332,11743,16242.151150632726
1735565082919,-136,73,916,928.913881907252,-10381,4320,14928,18688.840119172724
1735565082949,-136,73,916,928.913881907252,-10410,4320,-17891,21145.17394111479
1735565082980,-197,97,906,932.2306581527986,-10372,4331,-14575,18405.612459247313
1735565083010,-197,97,906,932.2306581527986,-10327,4327,-11233,15860.332499667213
1735565083039,-197,97,906,932.2306581527986,-10300,4309,-7901,13677.839083714942
1735565083069,-125,64,944,954.388285762142,-10299,4282,-4634,12078.032993828092
1735565083099,-125,64,944,954.388285762142,-10338,4256,-1452,11273.689901713635
1735565083129,-125,64,944,954.388285762142,-10384,4247,1717,11349.56184176288
1735565083159,-165,81,1041,1057.103117013662,-10426,4249,4882,12271.48731816971
1735565083189,-165,81,1041,1057.103117013662,-10447,4256,8084,13878.198766410575
1735565083219,-165,81,1041,1057.103117013662,-10455,4270,11293,15970.96659566978
1735565083250,-165,81,1041,1057.103117013662,-10449,4283,14513,18388.93305768445
1735565083280,-180,60,1030,1047.329938462565,-10426,4293,17761,21037.691080534478
1735565083309,-180,60,1030,1047.329938462565,-10395,4290,-14982,18732.87081576126
1735565083339,-180,60,1030,1047.329938462565,-10377,4277,-11733,16236.937734683841
1735565083370,-197,124,950,978.1027553381086,-10399,4265,-8508,14096.648183167516
1735565083399,-197,124,950,978.1027553381086,-10447,4276,-5280,12462.037754717325
1735565083429,-197,124,950,978.1027553381086,-10470,4301,-2038,11500.997565428836
1735565083459,-129,29,1036,1044.403178853837,-10475,4333,1212,11400.414817014334
1735565083488,-129,29,1036,1044.403178853837,-10451,4351,4381,12138.688685356421
1735565083519,-129,29,1036,1044.403178853837,-10422,4357,7558,13591.353758915997
1735565083548,-129,29,1036,1044.403178853837,-10397,4352,10735,15565.273463707601
1735565083578,-138,0,1054,1062.995766689595,-10366,4345,13962,17924.018104208666
1735565083608,-138,0,1054,1062.995766689595,-10341,4325,17182,20514.94650248935
1735565083638,-138,0,1054,1062.995766689595,-10341,4302,-15613,19214.818604400094
1735565083668,-195,132,1040,1066.3249973624363,-10371,4276,-12388,16712.401413321786
1735565083699,-195,132,1040,1066.3249973624363,-10440,4282,-9117,14506.854000781837
1735565083729,-195,132,1040,1066.3249973624363,-10481,4311,-5833,12745.978620725833
1735565083758,-199,48,1069,1088.4236307614788,-10471,4351,-2523,11616.306254571631
1735565083788,-199,48,1069,1088.4236307614788,-10339,4362,811,11250.76379629401
1735565083819,-199,48,1069,1088.4236307614788,-10244,4326,4132,11862.85109069485
1735565083848,-199,48,1069,1088.4236307614788,-10211,4265,7413,13319.433734209573
1735565083878,-202,106,1011,1036.4173869633798,-10260,4204,10640,15367.199354469245
1735565083910,-202,106,1011,1036.4173869633798,-10350,4178,13839,17779.09179345222
1735565083940,-202,106,1011,1036.4173869633798,-10430,4186,17035,20408.30029669301
1735565083969,-212,40,910,935.2240373300934,-10487,4227,-15765,19400.513472586234
1735565083999,-212,40,910,935.2240373300934,-10471,4273,-12534,16881.988212293007
1735565084029,-212,40,910,935.2240373300934,-10424,4304,-9275,14601.705961975813
1735565084059,-108,-31,948,954.6355325463221,-10353,4321,-5990,12717.537104329596
1735565084089,-108,-31,948,954.6355325463221,-10292,4307,-2801,11503.091497506224
1735565084120,-108,-31,948,954.6355325463221,-10262,4274,367,11122.518105177442
1735565084149,-183,46,874,894.1370141091353,-10274,4234,3506,11652.20442663104
1735565084179,-183,46,874,894.1370141091353,-10328,4214,6698,13011.094650335921
1735565084209,-183,46,874,894.1370141091353,-10378,4217,9885,14939.852676649794
1735565084239,-183,46,874,894.1370141091353,-10410,4236,13082,17246.753897472998
1735565084269,-185,6,1042,1058.3123357497068,-10386,4272,16304,19797.459331944592
1735565084299,-185,6,1042,1058.3123357497068,-10332,4289,-16452,19895.075998849563
1735565084329,-185,6,1042,1058.3123357497068,-10283,4284,-13207,17277.661705219256
1735565084359,-200,41,962,983.4251369575622,-10251,4265,-9971,14922.937612950072
1735565084389,-200,41,962,983.4251369575622,-10252,4246,-6732,12978.89995338588
1735565084420,-200,41,962,983.4251369575622,-10268,4231,-3505,11645.523174164397
1735565084450,-174,68,977,994.7004574242438,-10290,4220,-296,11125.651261836316
1735565084479,-174,68,977,994.7004574242438,-10356,4213,2853,11538.44504255231
1735565084510,-174,68,977,994.7004574242438,-10405,4230,6010,12738.799982729928
1735565084540,-174,68,977,994.7004574242438,-10426,4260,9184,14532.54733348562
1735565084570,-263,-12,1040,1072.8061334649424,-10271,4302,12507,16745.915740860517
1735565084600,-263,-12,1040,1072.8061334649424,-10098,4269,15865,19284.506475406622
1735565084629,-263,-12,1040,1072.8061334649424,-10012,4184,-16827,20022.33575285361
1735565084659,-199,30,1020,1039.6638879945767,-10094,4088,-13644,17457.35707373828
1735565084689,-199,30,1020,1039.6638879945767,-10287,4051,-10566,15292.917511057201
1735565084719,-199,30,1020,1039.6638879945767,-10445,4086,-7483,13482.904360708044
1735565084780,-226,18,1018,1042.9400749803413,-10532,4170,-4350,12134.019284639364
1735565084781,-226,18,1018,1042.9400749803413,-10500,4275,-1101,11390.251358069321
1735565084810,-226,18,1018,1042.9400749803413,-10395,4348,2214,11483.158319904851
1735565084840,-226,18,1018,1042.9400749803413,-10265,4370,5565,12467.411519637908
1735565084869,-179,-46,958,975.6643890190929,-10162,4333,8858,14159.989300843416
1735565084899,-179,-46,958,975.6643890190929,-10122,4264,12088,16332.676571829861
1735565084929,-179,-46,958,975.6643890190929,-10149,4195,15266,18805.610386265053
1735565084959,-126,66,971,981.3628279082105,-10265,4129,-17616,20802.45951804738
1735565084989,-126,66,971,981.3628279082105,-10472,4125,-14561,18403.834654766924
1735565085019,-126,66,971,981.3628279082105,-10616,4189,-11481,16188.283973293772
1735565085049,-209,99,1022,1047.838728049312,-10647,4296,-8316,14176.391677715455
1735565085079,-209,99,1022,1047.838728049312,-10500,4406,-4924,12405.990972106985
1735565085109,-209,99,1022,1047.838728049312,-10310,4442,-1475,11322.680292227631
1735565085139,-209,99,1022,1047.838728049312,-10158,4404,1967,11244.966385009784
1735565085169,-177,32,1019,1034.753110650072,-10100,4311,5275,12182.788925365161
1735565085199,-177,32,1019,1034.753110650072,-10131,4211,8496,13876.299867039485
1735565085229,-177,32,1019,1034.753110650072,-10227,4142,11659,16052.413338809838
1735565085259,-216,48,956,981.2726430508495,-10344,4119,14809,18527.573451480363
1735565085289,-216,48,956,981.2726430508495,-10430,4143,17994,21206.918328696418
1735565085319,-216,48,956,981.2726430508495,-10470,4192,-14794,18602.585841758668
1735565085349,-204,55,1052,1073.0074557056907,-10459,4244,-11546,16146.58889672986
1735565085379,-204,55,1052,1073.0074557056907,-10429,4281,-8285,13990.433410012714
1735565085409,-204,55,1052,1073.0074557056907,-10379,4300,-5002,12297.708932967962
1735565085439,-204,55,1052,1073.0074557056907,-10330,4299,-1715,11319.519689456793
1735565085469,-177,69,1032,1049.3397924409423,-10333,4267,1547,11285.893274349177
1735565085499,-177,69,1032,1049.3397924409423,-10369,4244,4780,12180.972744407567
1735565085529,-177,69,1032,1049.3397924409423,-10410,4239,8004,13798.595472003663
1735565085559,-227,104,1083,1111.4108151354296,-10433,4244,11249,15918.512053580887
1735565085589,-227,104,1083,1111.4108151354296,-10433,4257,14539,18394.3485614468
1735565085619,-227,104,1083,1111.4108151354296,-10422,4268,17839,21096.535947875425
1735565085649,-45,41,1060,1061.746674117701,-10391,4282,-14826,18604.265129265386
1735565085679,-45,41,1060,1061.746674117701,-10415,4285,-11638,16194.952732255811
1735565085709,-45,41,1060,1061.746674117701,-10430,4294,-8445,14090.470574114976
1735565085739,-45,41,1060,1061.746674117701,-10433,4306,-5244,12445.42731287279
1735565085769,-102,126,981,994.3042793833284,-10491,4287,-2090,11524.215808461762
1735565085799,-102,126,981,994.3042793833284,-10549,4297,1084,11442.056895506157
1735565085829,-102,126,981,994.3042793833284,-10580,4325,4274,12202.831679573394
1735565085859,-226,95,920,952.1034607646377,-10543,4363,7518,13664.221236499356
1735565085889,-226,95,920,952.1034607646377,-10413,4373,10869,15674.465190238549
1735565085919,-226,95,920,952.1034607646377,-10320,4337,14206,18086.52550933982
1735565085949,-162,87,916,934.2745849053157,-10300,4282,17497,20750.193565362228
1735565085980,-162,87,916,934.2745849053157,-10390,4245,-15333,19001.921323908275
1735565086010,-162,87,916,934.2745849053157,-10480,4244,-12174,16614.698673162868
1735565086040,-162,87,916,934.2745849053157,-10540,4273,-9003,14505.31412965607
1735565086070,-69,113,960,969.0871993788794,-10647,4313,-5885,12907.122181183535
1735565086100,-69,113,960,969.0871993788794,-10716,4385,-2760,11902.8770051614
