Timestamp,Acc_X,Acc_Y,Acc_Z,Acc_Betrag,Ori_X,Ori_Y,Ori_Z,Ori_Betrag
1735562941557,-174,139,1001,1025.474524305699,-10437,4265,-9152,14521.71814903457
1735562941557,-174,139,1001,1025.474524305699,-10496,4285,-5862,12762.847840509578
1735562941577,-214,79,1011,1036.4159396690115,-10512,4327,-2553,11650.874731109248
1735562941607,-214,79,1011,1036.4159396690115,-10399,4361,827,11306.699385762407
1735562941637,-214,79,1011,1036.4159396690115,-10297,4349,4213,11945.349680942789
1735562941667,-214,79,1011,1036.4159396690115,-10241,4305,7574,13445.318218621678
1735562941697,-223,96,997,1026.135468639497,-10267,4265,10881,15556.274457594272
1735562941727,-223,96,997,1026.135468639497,-10317,4244,14170,18034.43719665241
1735562941757,-223,96,997,1026.135468639497,-10366,4244,17453,20738.19425600985
1735562941787,-214,7,966,989.4447938111555,-10401,4270,-15262,18956.327307788288
1735562941817,-214,7,966,989.4447938111555,-10344,4300,-11978,16400.024999980946
1735562941847,-214,7,966,989.4447938111555,-10283,4304,-8682,14129.459614578329
1735562941877,-191,57,1044,1062.8574692779837,-10240,4280,-5386,12336.328303024364
1735562941907,-191,57,1044,1062.8574692779837,-10291,4248,-2126,11334.463419147816
1735562941937,-191,57,1044,1062.8574692779837,-10349,4239,1120,11239.45381235227
1735562941967,-191,57,1044,1062.8574692779837,-10395,4252,4370,12051.241803233392
1735562941997,-218,20,1040,1062.790666123861,-10342,4297,7695,13588.016705906715
1735562942027,-218,20,1040,1062.790666123861,-10257,4310,11052,15682.11889382299
1735562942057,-218,20,1040,1062.790666123861,-10191,4291,14403,18158.07178639847
1735562942087,-232,15,984,1011.0909949158879,-10196,4252,17694,20859.42367372598
1735562942117,-232,15,984,1011.0909949158879,-10237,4223,-15050,18685.084907487042
1735562942147,-232,15,984,1011.0909949158879,-10287,4213,-11808,16217.293300671354
1735562942177,-228,8,1083,1106.7687201940612,-10327,4226,-8559,14062.805054469041
1735562942207,-228,8,1083,1106.7687201940612,-10338,4255,-5289,12367.408378476066
1735562942237,-228,8,1083,1106.7687201940612,-10323,4282,-1999,11353.230993862497
1735562942267,-228,8,1083,1106.7687201940612,-10291,4298,1306,11228.674053511393
1735562942297,-189,41,970,989.0915023393943,-10354,4300,4520,12088.247019315912
1735562942327,-189,41,970,989.0915023393943,-10410,4327,7731,13669.652153584597
1735562942357,-189,41,970,989.0915023393943,-10426,4367,10968,15750.21234777487
1735562942387,-214,35,938,962.7382821930371,-10374,4416,14275,18190.562305767242
1735562942417,-214,35,938,962.7382821930371,-10272,4439,17643,20892.442509194563
1735562942447,-214,35,938,962.7382821930371,-10186,4422,-14988,18653.38639496861
1735562942477,-207,63,917,942.1820418581539,-10154,4379,-11665,16073.318947871345
1735562942507,-207,63,917,942.1820418581539,-10212,4343,-8420,13929.93155044202
1735562942537,-207,63,917,942.1820418581539,-10278,4333,-5190,12302.368593079953
1735562942567,-207,63,917,942.1820418581539,-10331,4347,-1956,11377.69335146628
1735562942597,-192,-12,985,1003.609984007732,-10241,4396,1374,11229.01478314104
1735562942627,-192,-12,985,1003.609984007732,-10132,4396,4717,12009.676473577463
1735562942657,-192,-12,985,1003.609984007732,-10060,4360,8043,13597.9060520361
1735562942687,-270,-8,987,1023.2951675836254,-10018,4304,11342,15732.949628089451
1735562942717,-270,-8,987,1023.2951675836254,-9998,4238,14646,18232.552317215494
1735562942747,-270,-8,987,1023.2951675836254,-10037,4178,17904,20946.366486815798
1735562942777,-211,-9,940,963.4324055168582,-10119,4145,-14890,18473.96237952216
1735562942807,-211,-9,940,963.4324055168582,-10261,4151,-11805,16182.61248995353
1735562942837,-211,-9,940,963.4324055168582,-10354,4202,-8696,14159.18556979885
1735562942867,-211,-9,940,963.4324055168582,-10378,4274,-5543,12517.779715268998
1735562942897,-275,-43,953,992.8156928654986,-10234,4362,-2210,11342.217596219885
1735562942927,-275,-43,953,992.8156928654986,-10044,4375,1185,11019.38228758763
1735562942957,-275,-43,953,992.8156928654986,-9910,4320,4559,11732.645950509203
1735562942987,-251,-19,971,1003.0967052084261,-9915,4236,7825,13322.220010193496
1735562943017,-251,-19,971,1003.0967052084261,-10020,4181,11002,15457.204307377191
1735562943047,-251,-19,971,1003.0967052084261,-10131,4171,14160,17903.630972515046
1735562943077,-276,-35,917,958.2744909471398,-10197,4204,17343,20553.15241027517
1735562943107,-276,-35,917,958.2744909471398,-10152,4250,-15382,18913.79200477789
1735562943137,-276,-35,917,958.2744909471398,-10087,4271,-12084,16309.876333068869
1735562943167,-276,-35,917,958.2744909471398,-10027,4265,-8782,13994.801820676134
1735562943197,-181,-104,915,938.5105220507653,-10032,4263,-5593,12251.360822373977
1735562943227,-181,-104,915,938.5105220507653,-10044,4261,-2444,11180.840442471219
1735562943257,-181,-104,915,938.5105220507653,-10055,4263,704,10944.030793085334
1735562943287,-233,-40,914,944.0789161929208,-10078,4260,3871,11605.960752992403
1735562943317,-233,-40,914,944.0789161929208,-10105,4271,7079,13056.213348440657
1735562943348,-233,-40,914,944.0789161929208,-10115,4289,10298,15058.471037924135
1735562943377,-213,-27,937,961.2840371086997,-10100,4307,13536,17429.387396004484
1735562943407,-213,-27,937,961.2840371086997,-10087,4316,16769,20039.330976856487
1735562943437,-213,-27,937,961.2840371086997,-10071,4319,-15993,19386.976324326595
1735562943467,-213,-27,937,961.2840371086997,-10058,4316,-12755,16807.17837711018
1735562943498,-250,-93,966,1002.1501883450404,-9956,4310,-9462,14395.39787571014
1735562943527,-250,-93,966,1002.1501883450404,-9872,4262,-6178,12401.157687893497
1735562943557,-250,-93,966,1002.1501883450404,-9855,4196,-2939,11106.987080212168
1735562943587,-192,-82,1011,1032.3318264976626,-9930,4139,205,10760.030018545487
1735562943618,-192,-82,1011,1032.3318264976626,-10063,4124,3271,11356.53054414067
1735562943647,-192,-82,1011,1032.3318264976626,-10164,4156,6345,12682.20237182801
1735562943677,-229,-79,937,967.8073155334175,-10206,4218,9462,14542.468978821993
1735562943707,-229,-79,937,967.8073155334175,-10152,4287,12688,16805.559110008806
1735562943737,-229,-79,937,967.8073155334175,-10061,4324,15952,19349.082691435273
1735562943767,-229,-79,937,967.8073155334175,-9972,4322,-16772,19985.506048133982
1735562943797,-212,-63,924,950.0994684768538,-9979,4305,-13580,17393.385696867645
1735562943827,-212,-63,924,950.0994684768538,-10005,4296,-10404,15059.842529057201
1735562943857,-212,-63,924,950.0994684768538,-10029,4297,-7230,13088.84830686031
1735562943887,-203,-93,1063,1086.1984164967282,-10022,4309,-4018,11625.501666594866
1735562943917,-203,-93,1063,1086.1984164967282,-9992,4312,-789,10911.275315012448
1735562943947,-203,-93,1063,1086.1984164967282,-9970,4304,2436,11129.214347832465
1735562943977,-219,-56,1014,1038.8902733205273,-9962,4289,5656,12232.22387793814
1735562944007,-219,-56,1014,1038.8902733205273,-9986,4280,8887,14036.2874364983
1735562944037,-219,-56,1014,1038.8902733205273,-10009,4280,12115,16287.163841504143
1735562944067,-219,-56,1014,1038.8902733205273,-10024,4288,15348,18826.27483067216
1735562944097,-184,-37,953,971.3053073055866,-10089,4293,-17497,20648.553920311224
1735562944127,-184,-37,953,971.3053073055866,-10141,4321,-14342,18088.777902334918
1735562944157,-184,-37,953,971.3053073055866,-10154,4361,-11162,15707.077417521059
1735562944187,-210,-30,977,999.7644722633427,-10059,4402,-7871,13509.764098606607
1735562944217,-210,-30,977,999.7644722633427,-9922,4397,-4512,11753.2053925727
1735562944247,-210,-30,977,999.7644722633427,-9836,4347,-1179,10818.195135973468
1735562944277,-227,-29,1002,1027.8005643119682,-9823,4279,2091,10916.65933333087
1735562944307,-227,-29,1002,1027.8005643119682,-9863,4217,5305,11966.824265443192
1735562944337,-227,-29,1002,1027.8005643119682,-9936,4180,8486,13718.917304219018
1735562944367,-227,-29,1002,1027.8005643119682,-10013,4176,11656,15923.613942820895
1735562944397,-219,-50,1011,1035.6553480767625,-10066,4191,14804,18386.06137812011
1735562944427,-219,-50,1011,1035.6553480767625,-10088,4218,17965,21030.94132462929
1735562944456,-219,-50,1011,1035.6553480767625,-10083,4248,-14852,18447.067436316265
1735562944487,-228,-79,1061,1088.0928269224091,-10004,4280,-11593,15899.561786414115
1735562944518,-228,-79,1061,1088.0928269224091,-9889,4275,-8291,13594.433677060622
1735562944548,-228,-79,1061,1088.0928269224091,-9817,4231,-5010,11805.716835499656
1735562944577,-212,-52,1010,1033.318924630726,-9824,4173,-1791,10822.78088108597
1735562944607,-212,-52,1010,1033.318924630726,-9939,4143,1333,10850.117925626431
1735562944637,-212,-52,1010,1033.318924630726,-10039,4157,4455,11743.474571011768
1735562944667,-212,-52,1010,1033.318924630726,-10096,4201,7600,13316.817074661647
1735562944697,-211,-45,1018,1040.6103977954479,-10089,4250,10797,15376.138331843922
1735562944728,-211,-45,1018,1040.6103977954479,-10047,4288,14025,17777.226386587983
1735562944758,-211,-45,1018,1040.6103977954479,-9989,4304,17272,20411.431135518156
1735562944788,-200,-89,977,1001.2242506052278,-9907,4306,-15479,18875.638426289057
1735562944817,-200,-89,977,1001.2242506052278,-9826,4274,-12251,16275.882556715627
1735562944847,-200,-89,977,1001.2242506052278,-9797,4223,-9056,13993.786978513
1735562944877,-227,-74,1032,1059.2587030560571,-9806,4173,-5890,12176.356803247842
1735562944907,-227,-74,1032,1059.2587030560571,-9824,4133,-2709,10996.8789208575
1735562944937,-227,-74,1032,1059.2587030560571,-9865,4108,451,10695.66687962934
1735562944967,-227,-74,1032,1059.2587030560571,-9911,4102,3601,11314.659782777386
1735562944997,-214,-120,972,1002.4869076451822,-9928,4132,6735,12688.531554123983
1735562945027,-214,-120,972,1002.4869076451822,-9910,4156,9884,14600.475745673495
1735562945058,-214,-120,972,1002.4869076451822,-9880,4171,13045,16887.381857469794
1735562945087,-232,-142,1073,1106.9403777981902,-9834,4179,16222,19424.85214872947
1735562945117,-232,-142,1073,1106.9403777981902,-9777,4167,-16585,19698.11775271942
1735562945147,-232,-142,1073,1106.9403777981902,-9746,4139,-13409,17085.58216742994
1735562945177,-197,-123,937,965.3533032004397,-9754,4109,-10261,14741.52359832592
1735562945208,-197,-123,937,965.3533032004397,-9830,4099,-7181,12845.133786769215
1735562945237,-197,-123,937,965.3533032004397,-9889,4116,-4096,11467.824248740473
1735562945267,-244,-167,1035,1076.4060572107535,-9898,4149,-973,10776.424917383316
1735562945297,-244,-167,1035,1076.4060572107535,-9783,4156,2258,10866.369632954696
1735562945327,-244,-167,1035,1076.4060572107535,-9700,4123,5477,11877.990486610099
1735562945357,-244,-167,1035,1076.4060572107535,-9671,4069,8663,13606.34304286056
1735562945387,-242,-166,1014,1055.611671023014,-9735,4022,11758,15785.983434680273
1735562945417,-242,-166,1014,1055.611671023014,-9813,4006,14833,18230.76778416093
1735562945447,-242,-166,1014,1055.611671023014,-9878,4018,17909,20843.499922038045
1735562945477,-235,-160,992,1031.9345909504148,-9915,4053,-14997,18429.43414758033
1735562945507,-235,-160,992,1031.9345909504148,-9924,4100,-11885,16017.14709303751
1735562945537,-235,-160,992,1031.9345909504148,-9896,4141,-8742,13838.398064805044
1735562945567,-204,-158,959,993.1067414935818,-9835,4165,-5572,12046.644097008926
1735562945597,-204,-158,959,993.1067414935818,-9780,4162,-2420,10900.781806824683
1735562945627,-204,-158,959,993.1067414935818,-9745,4141,721,10612.857626483077
1735562945657,-204,-158,959,993.1067414935818,-9737,4113,3845,11247.664779855417
1735562945687,-199,-146,1067,1095.1739587846307,-9765,4082,6951,12662.320087566892
1735562945717,-199,-146,1067,1095.1739587846307,-9810,4068,10042,14615.966885567304
1735562945747,-199,-146,1067,1095.1739587846307,-9851,4072,13130,16912.13425325142
1735562945777,-237,-124,950,986.9371813849147,-9901,4090,16219,19437.43455294448
1735562945807,-237,-124,950,986.9371813849147,-9925,4126,-16654,19821.332371967328
1735562945837,-237,-124,950,986.9371813849147,-9915,4163,-13502,17260.990643644993
1735562945867,-241,-125,945,983.224796269907,-9867,4186,-10314,14874.773309197019
1735562945897,-241,-125,945,983.224796269907,-9793,4179,-7089,12791.435064135689
1735562945927,-241,-125,945,983.224796269907,-9750,4147,-3880,11283.373121544815
1735562945957,-241,-125,945,983.224796269907,-9745,4108,-697,10598.41959916666
1735562945987,-199,-125,1010,1036.9792669094209,-9807,4062,2401,10883.101304315787
1735562946017,-199,-125,1010,1036.9792669094209,-9892,4047,5466,12004.458713328144
1735562946047,-199,-125,1010,1036.9792669094209,-9960,4062,8533,13730.02305169223
1735562946077,-191,-137,1033,1059.4050216985004,-9988,4094,11629,15866.777272023453
1735562946107,-191,-137,1033,1059.4050216985004,-9979,4124,14747,18277.3582883304
1735562946137,-191,-137,1033,1059.4050216985004,-9951,4146,17883,20880.934030833007
1735562946167,-207,-111,1003,1030.1354279899317,-9925,4154,-14981,18444.28643238876
1735562946197,-207,-111,1003,1030.1354279899317,-9926,4158,-11846,16004.44175846193
1735562946227,-207,-111,1003,1030.1354279899317,-9923,4163,-8708,13842.895723077596
1735562946257,-207,-111,1003,1030.1354279899317,-9918,4165,-5567,12112.202029358657
1735562946287,-198,-93,1048,1070.5872220421838,-9896,4152,-2400,10996.814084088173
1735562946317,-198,-93,1048,1070.5872220421838,-9897,4137,753,10753.250066840257
1735562946347,-198,-93,1048,1070.5872220421838,-9909,4126,3897,11419.227907349954
1735562946377,-240,-83,1021,1052.1074089654535,-9931,4120,7042,12852.584370468065
1735562946407,-240,-83,1021,1052.1074089654535,-9941,4123,10212,14836.022175772048
1735562946437,-240,-83,1021,1052.1074089654535,-9946,4128,13386,17179.88055837409
1735562946467,-192,-89,1083,1103.4826686450494,-9938,4134,16563,19753.14580009979
1735562946497,-192,-89,1083,1103.4826686450494,-9945,4132,-16315,19548.802367408596
1735562946527,-192,-89,1083,1103.4826686450494,-9952,4133,-13194,17035.422771390207
1735562946557,-192,-89,1083,1103.4826686450494,-9955,4136,-10072,14753.091370963579
1735562946587,-152,-41,972,984.666948769989,-10075,4134,-7013,12952.905079556478
1735562946617,-152,-41,972,984.666948769989,-10177,4179,-3953,11690.234343245647
1735562946647,-152,-41,972,984.666948769989,-10214,4249,-851,11095.224107696067
1735562946677,-218,-35,1062,1084.7087166608371,-10145,4297,2351,11265.541931039092
1735562946707,-218,-35,1062,1084.7087166608371,-10026,4297,5634,12277.086014197343
1735562946737,-218,-35,1062,1084.7087166608371,-9947,4257,8900,14009.81291809423
1735562946767,-157,10,965,977.7392290380907,-9937,4192,12113,16218.557334115756
1735562946797,-157,10,965,977.7392290380907,-10081,4139,15186,18691.50817884956
1735562946827,-157,10,965,977.7392290380907,-10217,4143,-17751,20896.16086748951
1735562946858,-157,10,965,977.7392290380907,-10308,4190,-14669,18411.695332043706
1735562946887,-121,-23,972,979.7724225553605,-10325,4252,-11586,16091.007581876282
1735562946918,-121,-23,972,979.7724225553605,-10290,4307,-8474,14008.676775484542
1735562946947,-121,-23,972,979.7724225553605,-10225,4340,-5332,12321.381781277618
1735562946977,-169,-7,982,996.460736808029,-10121,4342,-2129,11216.96242304484
1735562947007,-169,-7,982,996.460736808029,-10022,4306,1109,10964.12335756945
1735562947037,-169,-7,982,996.460736808029,-9986,4244,4309,11674.7253929161
1735562947067,-151,-4,944,956.0088911720435,-10015,4182,7457,13167.999012758164
1735562947097,-151,-4,944,956.0088911720435,-10106,4144,10536,15176.009620450299
1735562947127,-151,-4,944,956.0088911720435,-10196,4143,13605,17499.111120282654
1735562947157,-151,-4,944,956.0088911720435,-10258,4172,16686,20026.35124030336
1735562947187,-204,0,1026,1046.0841266360942,-10232,4210,-16121,19552.610183809218
1735562947217,-204,0,1026,1046.0841266360942,-10173,4230,-12887,16954.57454494214
1735562947247,-204,0,1026,1046.0841266360942,-10118,4227,-9648,14605.661813146298
1735562947277,-139,13,909,919.6580886394682,-10133,4202,-6490,12745.76765047912
1735562947307,-139,13,909,919.6580886394682,-10211,4194,-3417,11555.520152723546
1735562947337,-139,13,909,919.6580886394682,-10271,4212,-338,11106.242794032552
1735562947367,-134,-3,927,936.6397386402095,-10295,4248,2770,11476.298575760391
1735562947397,-134,-3,927,936.6397386402095,-10269,4282,5922,12603.887059157583
1735562947428,-134,-3,927,936.6397386402095,-10225,4302,9094,14344.290327513592
1735562947457,-134,-3,927,936.6397386402095,-10180,4303,12271,16514.407346314307
1735562947487,-160,31,907,921.52590848006,-10143,4287,15458,18979.16178338759
1735562947517,-160,31,907,921.52590848006,-10131,4265,-17360,20547.432589012184
1735562947547,-160,31,907,921.52590848006,-10141,4243,-14195,17953.85627100763
1735562947577,-86,-22,1034,1037.8034495992003,-10149,4233,-11050,15589.194655273248
1735562947607,-86,-22,1034,1037.8034495992003,-10163,4223,-7957,13580.65340843363
1735562947637,-86,-22,1034,1037.8034495992003,-10180,4220,-4869,12047.736758412346
1735562947667,-82,-18,977,980.6003263307636,-10218,4220,-1803,11201.193373922262
1735562947697,-82,-18,977,980.6003263307636,-10295,4236,1215,11198.524277778746
1735562947727,-82,-18,977,980.6003263307636,-10337,4274,4255,11967.692760093734
1735562947757,-82,-18,977,980.6003263307636,-10336,4319,7324,13383.857179453164
1735562947787,-90,-27,992,996.4401637830542,-10231,4351,10493,15287.498520032635
1735562947817,-90,-27,992,996.4401637830542,-10131,4342,13671,17560.932947881785
1735562947847,-90,-27,992,996.4401637830542,-10071,4302,16827,20076.85667628277
1735562947877,-109,-19,946,952.4484238004702,-10088,4251,-16074,19447.679064608197
1735562947907,-109,-19,946,952.4484238004702,-10146,4218,-13007,17026.887237542862
1735562947937,-109,-19,946,952.4484238004702,-10210,4210,-9952,14866.422030872123
1735562947967,-107,-41,1008,1014.4919910970219,-10252,4223,-6884,13050.92674870256
1735562947997,-107,-41,1008,1014.4919910970219,-10245,4239,-3787,11716.250040008536
1735562948027,-107,-41,1008,1014.4919910970219,-10228,4249,-681,11096.384366089704
1735562948057,-107,-41,1008,1014.4919910970219,-10209,4252,2428,11322.47185909508
1735562948087,-82,-26,931,934.9657747746705,-10243,4252,5457,12360.315610857191
1735562948117,-82,-26,931,934.9657747746705,-10277,4264,8480,13989.597027791759
1735562948147,-82,-26,931,934.9657747746705,-10291,4285,11517,16028.324772102667
1735562948177,-111,-34,1013,1019.6303251669204,-10233,4307,14637,18371.34472486976
1735562948207,-111,-34,1013,1019.6303251669204,-10141,4300,17814,20944.41398082076
1735562948238,-111,-34,1013,1019.6303251669204,-10084,4264,-15026,18591.64941579956
1735562948267,-110,-24,943,949.6973202026002,-10096,4218,-11925,16184.139303651586
1735562948297,-110,-24,943,949.6973202026002,-10183,4196,-8901,14160.78055758227
1735562948327,-110,-24,943,949.6973202026002,-10259,4206,-5880,12550.375173675087
1735562948357,-110,-24,943,949.6973202026002,-10304,4238,-2842,11498.261781678133
1735562948387,-61,-36,945,947.6507795596435,-10294,4276,234,11149.231722410294
1735562948417,-61,-36,945,947.6507795596435,-10268,4304,3315,11616.60298882595
1735562948447,-61,-36,945,947.6507795596435,-10228,4319,6411,12820.556384182397
1735562948477,-83,-61,1002,1007.280497180403,-10162,4326,9543,14596.21077540332
1735562948507,-83,-61,1002,1007.280497180403,-10083,4308,12700,16778.431184112535
1735562948537,-83,-61,1002,1007.280497180403,-10043,4268,15833,19229.185162143505
1735562948567,-57,-64,984,987.7251642030793,-10054,4217,-17080,20263.079849815527
1735562948597,-57,-64,984,987.7251642030793,-10133,4172,-14086,17846.531007453523
1735562948627,-57,-64,984,987.7251642030793,-10220,4160,-11109,15657.709953885338
1735562948657,-57,-64,984,987.7251642030793,-10289,4177,-8128,13761.367446587567
1735562948687,-30,-25,942,942.8091005076266,-10370,4219,-5145,12321.034291000085
1735562948717,-30,-25,942,942.8091005076266,-10409,4285,-2135,11457.169414824937
1735562948747,-30,-25,942,942.8091005076266,-10386,4351,922,11298.242385433232
1735562948777,-77,-40,946,949.9710521905391,-10285,4403,4059,11901.39130522142
1735562948807,-77,-40,946,949.9710521905391,-10137,4409,7263,13226.83707467511
1735562948837,-77,-40,946,949.9710521905391,-10034,4365,10448,15129.279064119348
1735562948867,-35,-95,1071,1075.7746046454156,-9996,4297,13589,17408.19192219571
1735562948897,-35,-95,1071,1075.7746046454156,-10008,4220,16633,19865.174376279712
1735562948927,-35,-95,1071,1075.7746046454156,-10073,4161,-16368,19664.452039149222
1735562948957,-47,-41,1010,1011.9239101829742,-10177,4124,-13416,17336.89017673008
1735562948987,-47,-41,1010,1011.9239101829742,-10342,4128,-10496,15302.397328523397
1735562949017,-47,-41,1010,1011.9239101829742,-10454,4183,-7553,13558.444379795199
1735562949047,-47,-41,1010,1011.9239101829742,-10492,4265,-4563,12210.37501471597
1735562949077,-92,-45,975,980.3642180332777,-10399,4355,-1439,11365.55968705457
1735562949107,-92,-45,975,980.3642180332777,-10253,4396,1750,11292.091258929853
1735562949137,-92,-45,975,980.3642180332777,-10122,4382,4946,12087.999172733262
1735562949167,-123,-28,911,919.692339861543,-10038,4326,8123,13618.3276873484
1735562949197,-123,-28,911,919.692339861543,-10005,4250,11305,15683.28887701811
1735562949227,-123,-28,911,919.692339861543,-10040,4178,14434,18072.012616197455
1735562949257,-139,-23,989,998.9849848721451,-10113,4131,17523,20649.296816114587
1735562949287,-139,-23,989,998.9849848721451,-10184,4114,-15392,18909.059098749465
1735562949317,-139,-23,989,998.9849848721451,-10246,4123,-12308,16536.822820602512
1735562949347,-139,-23,989,998.9849848721451,-10280,4151,-9210,14412.956011866545
1735562949377,-158,-23,952,965.2963275595738,-10294,4190,-6097,12676.590432762274
1735562949407,-158,-23,952,965.2963275595738,-10269,4225,-2950,11489.36403810063
1735562949437,-158,-23,952,965.2963275595738,-10225,4245,215,11073.250426139562
1735562949467,-150,-75,993,1007.0620636286525,-10179,4251,3389,11539.859747847891
1735562949498,-150,-75,993,1007.0620636286525,-10111,4232,6550,12768.893648237501
1735562949528,-150,-75,993,1007.0620636286525,-10080,4194,9688,14596.34817343023
1735562949557,-168,-70,957,974.1524521346748,-10091,4151,12797,16817.321160042105
1735562949588,-168,-70,957,974.1524521346748,-10129,4119,15900,19296.963543521557
1735562949618,-168,-70,957,974.1524521346748,-10177,4106,-17010,20242.79291501052
1735562949647,-168,-70,957,974.1524521346748,-10220,4111,-13922,17753.050582927994
1735562949677,-174,-40,942,958.7700454227802,-10253,4128,-10802,15454.694982431714
1735562949707,-174,-40,942,958.7700454227802,-10267,4156,-7664,13469.243519960577
1735562949737,-174,-40,942,958.7700454227802,-10256,4183,-4507,11958.096587668122
1735562949767,-188,-43,987,1005.6649541472548,-10232,4203,-1352,11143.919283627281
1735562949798,-188,-43,987,1005.6649541472548,-10197,4212,1811,11180.316364039078
1735562949827,-188,-43,987,1005.6649541472548,-10167,4207,4975,12075.486035766842
1735562949857,-186,-19,919,937.826209913116,-10157,4192,8128,13667.549048750474
1735562949887,-186,-19,919,937.826209913116,-10193,4180,11261,15753.722417257453
1735562949917,-186,-19,919,937.826209913116,-10226,4183,14392,18143.82068363772
1735562949947,-186,-19,919,937.826209913116,-10246,4196,17530,20733.7365662825
1735562949977,-204,-42,1011,1032.231078780328,-10205,4217,-15284,18855.39100628783
1735562950007,-204,-42,1011,1032.231078780328,-10153,4217,-12086,16338.234115105586
1735562950037,-204,-42,1011,1032.231078780328,-10118,4200,-8895,14111.518309522899
1735562950067,-194,-14,938,957.9540698801796,-10131,4171,-5731,12364.415190375968
1735562950097,-194,-14,938,957.9540698801796,-10185,4156,-2592,11301.54967250067
1735562950127,-194,-14,938,957.9540698801796,-10232,4162,545,11059.524989799516
1735562950157,-225,-71,961,989.5387814532587,-10259,4185,3691,11678.389743453505
1735562950187,-225,-71,961,989.5387814532587,-10192,4204,6884,12997.68964085541
1735562950217,-225,-71,961,989.5387814532587,-10133,4196,10079,14895.312886945343
1735562950247,-225,-71,961,989.5387814532587,-10100,4170,13261,17182.928184683773
1735562950277,-145,-66,920,933.6921334144355,-10128,4152,16392,19710.736972523377
1735562950308,-145,-66,920,933.6921334144355,-10179,4150,-16513,19837.17999111769
1735562950337,-145,-66,920,933.6921334144355,-10215,4165,-13412,17365.920476611656
1735562950368,-201,-43,1015,1035.6036886763197,-10217,4182,-10283,15086.95801014903
1735562950397,-201,-43,1015,1035.6036886763197,-10191,4193,-7104,13111.237393930445
1735562950427,-201,-43,1015,1035.6036886763197,-10165,4193,-3921,11674.01880245188
1735562950457,-152,-56,987,1000.20447909415,-10154,4184,-751,11007.886854433053
1735562950487,-152,-56,987,1000.20447909415,-10192,4174,2337,11258.80584253943
1735562950517,-152,-56,987,1000.20447909415,-10226,4178,5425,12306.802387297848
1735562950547,-152,-56,987,1000.20447909415,-10246,4192,8520,13969.387244972486
1735562950577,-236,-16,942,971.2445624043411,-10209,4207,11719,16101.474808227971
1735562950607,-236,-16,942,971.2445624043411,-10161,4208,14955,18563.54518942974
1735562950637,-236,-16,942,971.2445624043411,-10128,4193,-17814,20916.410519015924
1735562950667,-182,-57,920,939.5600034058496,-10138,4174,-14647,18295.789925553912
1735562950697,-182,-57,920,939.5600034058496,-10172,4163,-11545,15940.112232980042
1735562950727,-182,-57,920,939.5600034058496,-10203,4164,-8446,13884.344456977435
1735562950785,-158,-73,924,940.2494349905242,-10222,4177,-5335,12263.720397986901
1735562950788,-158,-73,924,940.2494349905242,-10230,4191,-2228,11277.47156946095
1735562950817,-158,-73,924,940.2494349905242,-10224,4206,888,11090.949283086638
1735562950847,-158,-73,924,940.2494349905242,-10209,4215,4013,11751.343540208498
1735562950877,-234,-32,990,1017.7819019809696,-10137,4213,7247,13153.978371580211
1735562950907,-234,-32,990,1017.7819019809696,-10082,4188,10499,15146.454007456663
1735562950937,-234,-32,990,1017.7819019809696,-10065,4150,13727,17520.19560393091
1735562950967,-190,-47,977,996.4125651556186,-10115,4119,16891,20114.30503398017
1735562950997,-190,-47,977,996.4125651556186,-10195,4116,-15997,19410.911622074836
1735562951027,-190,-47,977,996.4125651556186,-10251,4140,-12877,16971.733264460647
1735562951057,-208,-24,970,992.3406673113825,-10270,4172,-9739,14755.561832746322
1735562951087,-208,-24,970,992.3406673113825,-10264,4194,-6575,12890.692650125517
1735562951117,-208,-24,970,992.3406673113825,-10243,4210,-3396,11583.434939602328
1735562951147,-208,-24,970,992.3406673113825,-10216,4216,-210,11053.75103754377
1735562951177,-183,-46,993,1010.7690141669361,-10221,4228,2914,11438.366185780205
1735562951207,-183,-46,993,1010.7690141669361,-10218,4237,6037,12601.788047733544
1735562951237,-183,-46,993,1010.7690141669361,-10208,4244,9166,14360.722683764909
1735562951267,-192,-49,903,924.4858030278236,-10218,4250,12298,16544.208291725536
1735562951297,-192,-49,903,924.4858030278236,-10225,4262,15443,19005.302365392665
1735562951327,-192,-49,903,924.4858030278236,-10220,4273,-17402,20628.536860378634
1735562951357,-187,-16,909,928.1734751650685,-10197,4279,-14232,18023.275895352654
1735562951387,-187,-16,909,928.1734751650685,-10185,4276,-11048,15622.954426100077
1735562951417,-187,-16,909,928.1734751650685,-10180,4270,-7868,13556.20610642963
1735562951447,-187,-16,909,928.1734751650685,-10182,4263,-4692,11994.213479841019
1735562951477,-187,-43,957,976.0466177391323,-10166,4272,-1485,11126.669088276149
1735562951507,-187,-43,957,976.0466177391323,-10142,4272,1725,11139.37938127614
1735562951537,-187,-43,957,976.0466177391323,-10127,4263,4932,12043.833359856819
1735562951567,-173,-73,974,991.9344736422865,-10134,4249,8094,13647.88602678085
1735562951598,-173,-73,974,991.9344736422865,-10151,4235,11218,15710.55536892315
1735562951627,-173,-73,974,991.9344736422865,-10173,4229,14337,18081.038106259275
1735562951658,-143,-82,908,922.8418065952583,-10200,4226,17442,20642.73334614387
1735562951687,-143,-82,908,922.8418065952583,-10256,4223,-15511,19068.5706333747
1735562951717,-143,-82,908,922.8418065952583,-10297,4239,-12460,16710.74295176609
1735562951747,-143,-82,908,922.8418065952583,-10313,4265,-9394,14587.509383030401
1735562951777,-83,-33,945,949.2117782665784,-10374,4277,-6367,12901.600443355856
1735562951807,-83,-33,945,949.2117782665784,-10431,4313,-3345,11772.712304307788
1735562951837,-83,-33,945,949.2117782665784,-10443,4361,-292,11320.770026813547
1735562951867,-53,-41,989,991.2673705918096,-10396,4411,2814,11638.399073755805
1735562951897,-53,-41,989,991.2673705918096,-10324,4438,5942,12711.734106722026
1735562951927,-53,-41,989,991.2673705918096,-10255,4437,9078,14396.599529055464
1735562951957,-51,-26,985,986.6620495387466,-10202,4411,12207,16509.045217698083
1735562951987,-51,-26,985,986.6620495387466,-10189,4369,15318,18908.860515641867
1735562952017,-51,-26,985,986.6620495387466,-10213,4331,-17600,20804.396891042048
1735562952047,-51,-26,985,986.6620495387466,-10259,4307,-14540,18308.711860750882
1735562952077,-56,-64,985,988.6642503903942,-10287,4308,-11497,16017.560425982478
1735562952108,-56,-64,985,988.6642503903942,-10297,4315,-8448,14000.576345279504
1735562952137,-56,-64,985,988.6642503903942,-10298,4323,-5394,12402.917761559173
1735562952167,24,-56,972,973.907593152451,-10331,4324,-2373,11448.042015995574
1735562952197,24,-56,972,973.907593152451,-10405,4337,584,11287.80979641312
1735562952227,24,-56,972,973.907593152451,-10446,4372,3562,11871.021186064829
1735562952257,40,-79,1045,1048.7449642310564,-10451,4417,6558,13104.985845089646
1735562952287,40,-79,1045,1048.7449642310564,-10416,4459,9552,14819.46156241852
1735562952317,40,-79,1045,1048.7449642310564,-10360,4483,12569,16893.98265655556
1735562952347,40,-79,1045,1048.7449642310564,-10302,4485,15595,19221.093985514977
1735562952378,53,-54,985,987.9018169838539,-10280,4466,-17380,20680.61788245216
1735562952407,53,-54,985,987.9018169838539,-10288,4446,-14376,18228.528081005334
1735562952437,53,-54,985,987.9018169838539,-10309,4432,-11384,15984.791553223333
1735562952467,62,-42,1024,1026.7346297851261,-10346,4445,-8434,14068.763165253724
1735562952497,62,-42,1024,1026.7346297851261,-10370,4479,-5490,12559.396522126372
1735562952527,62,-42,1024,1026.7346297851261,-10361,4514,-2519,11578.941143299762
1735562952557,91,-90,1059,1066.7061451027644,-10296,4538,509,11263.220720557685
1735562952587,91,-90,1059,1066.7061451027644,-10168,4516,3578,11686.939890322017
1735562952617,91,-90,1059,1066.7061451027644,-10099,4458,6613,12868.38505796279
1735562952648,91,-90,1059,1066.7061451027644,-10096,4390,9599,14606.235551982585
1735562952677,80,-79,1035,1041.0888530764316,-10171,4339,12551,16727.33580101745
1735562952707,80,-79,1035,1041.0888530764316,-10260,4320,15485,19071.319435214755
1735562952737,80,-79,1035,1041.0888530764316,-10335,4332,-17579,20847.054708039694
1735562952767,98,-111,1073,1083.1685002805427,-10357,4359,-14650,18463.229132521756
1735562952797,98,-111,1073,1083.1685002805427,-10341,4379,-11727,16236.82391972026
1735562952827,98,-111,1073,1083.1685002805427,-10315,4390,-8793,14247.39183148972
1735562952857,34,-92,1002,1006.7889550447005,-10292,4391,-5856,12629.286638603147
1735562952887,34,-92,1002,1006.7889550447005,-10248,4387,-2851,11506.323218126632
1735562952917,34,-92,1002,1006.7889550447005,-10220,4371,145,11116.432251401526
1735562952947,53,-83,974,978.9657808115664,-10210,4345,3129,11528.823270394945
1735562952978,53,-83,974,978.9657808115664,-10240,4314,6076,12664.358333527996
1735562953007,53,-83,974,978.9657808115664,-10284,4297,9008,14330.698831529466
1735562953037,53,-83,974,978.9657808115664,-10326,4296,11934,16355.495957017018
1735562953067,38,-100,1062,1067.374348576918,-10264,4316,14979,18664.082967025195
1735562953097,38,-100,1062,1067.374348576918,-10200,4311,-17966,21104.54635854559
1735562953127,38,-100,1062,1067.374348576918,-10159,4286,-14924,18555.34567180035
1735562953158,57,-113,1111,1118.1855838813162,-10198,4253,-11949,16274.698583998415
1735562953187,57,-113,1111,1118.1855838813162,-10271,4240,-9022,14313.194087973516
1735562953216,57,-113,1111,1118.1855838813162,-10332,4252,-6094,12726.608503446627
1735562953247,85,-109,1036,1045.1803672094113,-10370,4281,-3161,11655.718853850241
1735562953277,85,-109,1036,1045.1803672094113,-10407,4320,-257,11270.940422165313
1735562953307,85,-109,1036,1045.1803672094113,-10405,4363,2674,11595.260669773665
1735562953336,85,-109,1036,1045.1803672094113,-10370,4400,5634,12595.191780993253
1735562953367,117,-116,1037,1050.0066666455027,-10340,4416,8568,14136.027730589665
1735562953397,117,-116,1037,1050.0066666455027,-10314,4420,11496,16064.651007725004
1735562953428,117,-116,1037,1050.0066666455027,-10292,4416,14424,18261.382642067387
1735562953488,37,-109,1021,1027.4682476845696,-10268,4418,17398,20679.481424832684
1735562953488,37,-109,1021,1027.4682476845696,-10213,4417,-15554,19124.3868921333
1735562953517,37,-109,1021,1027.4682476845696,-10176,4398,-12515,16718.80991578049
1735562953547,91,-80,1058,1064.9154896046916,-10160,4369,-9498,14578.263442536632
1735562953577,91,-80,1058,1064.9154896046916,-10229,4340,-6574,12910.674536986826
1735562953608,91,-80,1058,1064.9154896046916,-10297,4337,-3660,11757.269155718091
1735562953637,91,-80,1058,1064.9154896046916,-10348,4355,-738,11251.30094700164
1735562953667,92,-141,988,1002.2419867477115,-10344,4393,2208,11453.036671555714
1735562953697,92,-141,988,1002.2419867477115,-10299,4418,5178,12345.031753705618
1735562953727,92,-141,988,1002.2419867477115,-10250,4425,8158,13827.36739224065
1735562953757,101,-87,1021,1029.665479658321,-10247,4401,11115,15745.254364410885
1735562953787,101,-87,1021,1029.665479658321,-10305,4384,14041,17960.015645872918
1735562953817,101,-87,1021,1029.665479658321,-10357,4387,16963,20353.294254247885
1735562953847,73,-102,1001,1008.8280329174046,-10380,4411,-16092,19650.796039855486
1735562953877,73,-102,1001,1008.8280329174046,-10319,4442,-13069,17234.032784000385
1735562953907,73,-102,1001,1008.8280329174046,-10252,4448,-10033,15018.29873853893
1735562953937,73,-102,1001,1008.8280329174046,-10202,4433,-7001,13143.298444454496
1735562953967,80,-100,1003,1011.1424232025872,-10187,4407,-3970,11788.024346768207
1735562953997,80,-100,1003,1011.1424232025872,-10198,4381,-960,11140.644729996555
1735562954027,80,-100,1003,1011.1424232025872,-10226,4363,2034,11302.389172206025
1735562954057,25,-48,997,998.4678262217566,-10259,4351,5037,12229.049472465143
1735562954087,25,-48,997,998.4678262217566,-10290,4354,8078,13787.512465996178
1735562954117,25,-48,997,998.4678262217566,-10309,4366,11125,15782.999144649282
1735562954148,-8,-86,1088,1091.4229244431326,-10310,4389,14185,18076.881534158485
1735562954177,-8,-86,1088,1091.4229244431326,-10227,4411,17308,20581.91716045908
1735562954207,-8,-86,1088,1091.4229244431326,-10153,4403,-15565,19098.142396578784
1735562954237,-8,-86,1088,1091.4229244431326,-10110,4372,-12456,16627.640241477442
1735562954267,22,-96,995,999.8624905455749,-10176,4332,-9469,14559.504146776428
1735562954297,22,-96,995,999.8624905455749,-10258,4320,-6510,12894.53620724685
1735562954327,22,-96,995,999.8624905455749,-10324,4334,-3549,11745.804910690455
1735562954357,24,-68,967,969.6850003996143,-10358,4369,-555,11255.414252705228
1735562954387,24,-68,967,969.6850003996143,-10363,4414,2474,11532.382277742965
1735562954417,24,-68,967,969.6850003996143,-10333,4453,5535,12539.390854423511
1735562954447,108,-116,1054,1065.8498956232065,-10263,4476,8626,14134.058900400832
1735562954477,108,-116,1054,1065.8498956232065,-10197,4461,11635,16101.321529613648
1735562954507,108,-116,1054,1065.8498956232065,-10163,4428,14625,18351.685971594
1735562954537,108,-116,1054,1065.8498956232065,-10166,4391,17589,20784.642359203586
1735562954567,105,-99,1042,1051.9458160951067,-10211,4340,-15481,19046.298380525284
1735562954597,105,-99,1042,1051.9458160951067,-10282,4313,-12575,16806.31185001635
1735562954627,105,-99,1042,1051.9458160951067,-10352,4312,-9678,14812.863733930722
1735562954658,56,-95,1034,1039.863933406674,-10391,4338,-6748,13127.323756196462
1735562954687,56,-95,1034,1039.863933406674,-10375,4372,-3755,11868.236347494938
1735562954717,56,-95,1034,1039.863933406674,-10338,4396,-742,11258.31355043907
1735562954748,70,-86,1001,1007.123130505898,-10302,4404,2277,11432.897664196948
1735562954778,70,-86,1001,1007.123130505898,-10302,4407,5274,12384.180594613435
1735562954808,70,-86,1001,1007.123130505898,-10300,4409,8274,13927.970311570885
1735562954837,70,-86,1001,1007.123130505898,-10297,4410,11274,15892.74630137913
1735562954867,74,-80,1058,1063.5976682937962,-10300,4410,14265,18139.137934312093
1735562954897,74,-80,1058,1063.5976682937962,-10304,4412,17256,20576.872843073117
1735562954927,74,-80,1058,1063.5976682937962,-10305,4414,-15751,19333.1430967652
1735562954958,98,-101,1004,1013.8150718942779,-10307,4417,-12772,16996.12079269855
1735562954987,98,-101,1004,1013.8150718942779,-10310,4418,-9813,14903.348382158956
1735562955018,98,-101,1004,1013.8150718942779,-10311,4420,-6853,13145.97771183262
1735562955048,86,-63,1006,1011.632838533823,-10302,4422,-3884,11864.684740860162
1735562955077,86,-63,1006,1011.632838533823,-10298,4423,-886,11242.629985906322
1735562955107,86,-63,1006,1011.632838533823,-10294,4423,2111,11401.126523287074
1735562955137,86,-63,1006,1011.632838533823,-10292,4421,5109,12311.473754185565
1735562955167,83,-101,1041,1049.176343614361,-10266,4424,8118,13815.370280958814
1735562955204,83,-101,1041,1049.176343614361,-10238,4415,11126,15751.087105339746
1735562955227,83,-101,1041,1049.176343614361,-10226,4399,14123,17982.808623794004
1735562955256,105,-82,1033,1041.5555674086718,-10237,4381,17109,20413.407628321147
1735562955288,105,-82,1033,1041.5555674086718,-10277,4372,-15924,19450.06141378479
1735562955317,105,-82,1033,1041.5555674086718,-10310,4377,-12959,17128.62837474151
1735562955348,74,-98,1037,1044.2456607522963,-10333,4391,-9991,15029.033601665811
1735562955377,74,-98,1037,1044.2456607522963,-10308,4406,-6984,13207.723346587783
1735562955407,74,-98,1037,1044.2456607522963,-10279,4410,-3971,11869.06828693811
1735562955437,74,-98,1037,1044.2456607522963,-10256,4405,-959,11203.09073425722
1735562955467,7,-80,1021,1024.1533088361332,-10225,4399,2096,11326.740131211627
1735562955497,7,-80,1021,1024.1533088361332,-10196,4384,5170,12243.642105190758
1735562955527,7,-80,1021,1024.1533088361332,-10188,4363,8230,13804.492493387796
1735562955557,4,-70,1028,1030.3882763308209,-10196,4340,11273,15807.420567568892
1735562955586,4,-70,1028,1030.3882763308209,-10221,4324,14303,18103.635712198808
1735562955617,4,-70,1028,1030.3882763308209,-10250,4318,17327,20589.622458899044
1735562955647,-30,-79,997,1000.5748347824864,-10275,4322,-15651,19214.814857291756
1735562955677,-30,-79,997,1000.5748347824864,-10256,4331,-12588,16804.78625273169
1735562955707,-30,-79,997,1000.5748347824864,-10236,4333,-9522,14636.224547334603
1735562955737,-30,-79,997,1000.5748347824864,-10222,4328,-6457,12841.873578259521
1735562955767,-73,-61,1010,1014.470305134655,-10186,4318,-3339,11556.32471852535
1735562955797,-73,-61,1010,1014.470305134655,-10163,4300,-216,11037.355888073918
1735562955827,-73,-61,1010,1014.470305134655,-10162,4277,2891,11398.107474488912
1735562955857,-62,-66,985,989.1536786566585,-10187,4258,5963,12548.422291268333
1735562955887,-62,-66,985,989.1536786566585,-10226,4250,9008,14275.070577758977
1735562955917,-62,-66,985,989.1536786566585,-10257,4257,12054,16389.84484368293
1735562955947,-80,-53,989,993.6448057530417,-10276,4271,15110,18765.652586574226
1735562955977,-80,-53,989,993.6448057530417,-10276,4292,-17800,20996.605439927665
1735562956007,-80,-53,989,993.6448057530417,-10260,4308,-14698,18435.22899233964
1735562956037,-80,-53,989,993.6448057530417,-10237,4317,-11586,16052.042050779708
1735562956067,-95,-45,988,993.5763684790414,-10202,4318,-8444,13929.35978428298
1735562956097,-95,-45,988,993.5763684790414,-10175,4309,-5301,12255.55820842119
1735562956127,-95,-45,988,993.5763684790414,-10164,4292,-2167,11243.844938454105
1735562956157,-85,-50,975,979.974489463884,-10174,4276,945,11076.437920197992
1735562956188,-85,-50,975,979.974489463884,-10196,4267,4039,11767.719660155064
1735562956217,-85,-50,975,979.974489463884,-10218,4266,7131,13170.324255689378
1735562956247,-118,-54,1008,1016.3188476063996,-10232,4272,10226,15083.596520724093
1735562956277,-118,-54,1008,1016.3188476063996,-10208,4278,13366,17353.803732899596
1735562956307,-118,-54,1008,1016.3188476063996,-10186,4275,16506,19861.476707435428
1735562956337,-131,-44,976,985.734751340339,-10178,4267,-16359,19733.62242468422
1735562956367,-131,-44,976,985.734751340339,-10183,4261,-13216,17219.531526728595
1735562956397,-131,-44,976,985.734751340339,-10189,4259,-10077,14949.940836003332
1735562956427,-131,-44,976,985.734751340339,-10196,4259,-6938,13047.349960815798
1735562956457,-132,-40,987,996.5906882968554,-10206,4261,-3805,11696.007096441075
1735562956487,-132,-40,987,996.5906882968554,-10216,4267,-673,11091.748013726241
1735562956517,-132,-40,987,996.5906882968554,-10217,4275,2463,11345.883967324891
1735562956547,-116,-48,974,982.0570248208604,-10214,4282,5601,12410.983885252612
1735562956577,-116,-48,974,982.0570248208604,-10215,4284,8711,14091.855874937126
1735562956607,-116,-48,974,982.0570248208604,-10214,4287,11824,16202.195561096034
1735562956637,-117,-45,977,985.0091370134594,-10210,4287,14941,18597.20274664983
1735562956667,-117,-45,977,985.0091370134594,-10203,4285,-17933,21072.61073051937
1735562956697,-117,-45,977,985.0091370134594,-10201,4281,-14811,18486.56493240429
1735562956727,-117,-45,977,985.0091370134594,-10202,4277,-11692,16095.850303727355
1735562956757,-130,-37,982,991.2582912641891,-10199,4276,-8559,13984.286109773355
1735562956787,-130,-37,982,991.2582912641891,-10196,4276,-5421,12313.80660072262
1735562956817,-130,-37,982,991.2582912641891,-10195,4274,-2283,11287.922306607183
1735562956847,-134,-29,956,965.7810310831333,-10194,4273,853,11086.197454492682
1735562956877,-134,-29,956,965.7810310831333,-10194,4275,3999,11755.22275416336
1735562956908,-134,-29,956,965.7810310831333,-10193,4277,7147,13163.190608663235
1735562956937,-176,-15,956,972.1815674039495,-10190,4277,10296,15104.186340217073
1735562956967,-176,-15,956,972.1815674039495,-10167,4277,13495,17429.160708421965
1735562956997,-176,-15,956,972.1815674039495,-10151,4270,16690,19995.79458286167
1735562957027,-176,-15,956,972.1815674039495,-10146,4259,-16121,19518.376930472474
1735562957057,-231,-11,952,979.686684608911,-10115,4248,-12889,16925.869253896533
1735562957087,-231,-11,952,979.686684608911,-10091,4228,-9647,14586.599123853373
1735562957117,-231,-11,952,979.686684608911,-10091,4203,-6422,12678.153414436978
1735562957148,-219,-15,957,981.8528402973635,-10112,4183,-3221,11407.229023737535
1735562957177,-219,-15,957,981.8528402973635,-10145,4173,-40,10969.801912523308
1735562957207,-219,-15,957,981.8528402973635,-10174,4176,3139,11436.895251771784
1735562957237,-268,-2,953,989.9681813068539,-10192,4189,6326,12706.016724371175
1735562957267,-268,-2,953,989.9681813068539,-10167,4205,9586,14592.508694532273
1735562957297,-268,-2,953,989.9681813068539,-10137,4210,12852,16901.38375991741
1735562957327,-268,-2,953,989.9681813068539,-10113,4204,16117,19485.996869547114
1735562957357,-287,-6,950,992.4238006013359,-10097,4191,-16617,19890.66562486032
1735562957387,-287,-6,950,992.4238006013359,-10091,4173,-13355,17251.035766005472
1735562957417,-287,-6,950,992.4238006013359,-10100,4158,-10105,14879.85178017577
1735562957447,-291,-4,936,980.2004896958581,-10116,4149,-6864,12909.769672616161
1735562957477,-291,-4,936,980.2004896958581,-10132,4149,-3624,11532.779413480515
1735562957507,-291,-4,936,980.2004896958581,-10142,4154,-381,10966.359514442338
1735562957537,-309,-3,926,976.199774636319,-10146,4161,2865,11334.17231208349
1735562957567,-309,-3,926,976.199774636319,-10133,4165,6137,12557.375641430815
1735562957597,-309,-3,926,976.199774636319,-10120,4164,9410,14432.650345657239
1735562957627,-309,-3,926,976.199774636319,-10113,4159,12680,16743.728676731476
1735562957657,-303,-2,932,980.0188773692066,-10110,4153,15950,19335.511604299485
1735562957687,-303,-2,932,980.0188773692066,-10114,4148,-16785,20030.85432526531
1735562957717,-303,-2,932,980.0188773692066,-10121,4146,-13524,17393.174897068104
1735562957748,-326,3,935,990.2070490559032,-10120,4143,-10248,14986.672512602656
1735562957777,-326,3,935,990.2070490559032,-10111,4139,-6954,12950.743530778454
1735562957807,-326,3,935,990.2070490559032,-10109,4132,-3663,11518.805233182824
1735562957837,-325,7,946,1000.2949565003314,-10115,4126,-383,10930.864101250185
1735562957867,-325,7,946,1000.2949565003314,-10134,4124,2882,11314.205937669687
1735562957897,-325,7,946,1000.2949565003314,-10148,4128,6149,12563.140093145503
1735562957927,-325,7,946,1000.2949565003314,-10154,4137,9421,14455.923560948986
1735562957957,-377,8,935,1008.1755799462711,-10126,4148,12740,16794.325827493045
1735562957987,-377,8,935,1008.1755799462711,-10087,4146,16082,19431.09901678235
1735562958017,-377,8,935,1008.1755799462711,-10064,4130,-16582,19831.886445822547
1735562958047,-401,6,915,999.0305300640216,-10057,4112,-13254,17138.27030362166
1735562958077,-401,6,915,999.0305300640216,-10055,4095,-9920,14706.408467059522
1735562958107,-401,6,915,999.0305300640216,-10066,4081,-6597,12708.238508935847
1735562958137,-358,-8,926,992.8262687902652,-10083,4070,-3281,11357.673617427117
1735562958167,-358,-8,926,992.8262687902652,-10125,4056,-27,10907.221919444015
1735562958197,-358,-8,926,992.8262687902652,-10163,4060,3224,11408.958979679084
1735562958227,-358,-8,926,992.8262687902652,-10186,4076,6483,12743.534085959043
1735562958257,-323,16,939,993.1293974100253,-10224,4095,9732,14697.313530029902
1735562958287,-323,16,939,993.1293974100253,-10248,4127,12985,17048.866765858664
1735562958317,-323,16,939,993.1293974100253,-10239,4162,16263,19663.27882119358
1735562958347,-394,34,922,1003.2327745842438,-10189,4188,-16405,19760.543767821775
1735562958377,-394,34,922,1003.2327745842438,-10107,4190,-13007,16996.752572182722
1735562958408,-394,34,922,1003.2327745842438,-10052,4163,-9620,14523.00495765253
1735562958465,-349,-2,930,993.3302572659306,-10040,4125,-6265,12532.655345137358
1735562958467,-349,-2,930,993.3302572659306,-10072,4092,-3002,11278.370981662201
1735562958497,-349,-2,930,993.3302572659306,-10118,4075,243,10910.481107632238
1735562958527,-349,-2,930,993.3302572659306,-10162,4078,3486,11491.236835084377
1735562958557,-330,-13,925,982.1883729712952,-10189,4092,6738,12882.57850742622
1735562958587,-330,-13,925,982.1883729712952,-10199,4112,9995,14860.28835521034
1735562958617,-330,-13,925,982.1883729712952,-10190,4132,13267,17231.448372089908
1735562958646,-380,56,898,976.6985205271891,-10167,4137,16576,19880.80566777916
1735562958677,-380,56,898,976.6985205271891,-10152,4137,-16071,19453.917703126022
1735562958707,-380,56,898,976.6985205271891,-10143,4132,-12720,16785.478039066984
1735562958737,-357,-20,931,997.3013586674792,-10134,4128,-9371,14406.733876906314
1735562958767,-357,-20,931,997.3013586674792,-10078,4110,-6048,12451.36490510177
1735562958797,-357,-20,931,997.3013586674792,-10056,4077,-2745,11192.858884127862
1735562958827,-357,-20,931,997.3013586674792,-10068,4042,532,10862.10900331975
1735562958857,-390,15,930,1008.5757284408544,-10117,4023,3825,11539.88054530895
1735562958887,-390,15,930,1008.5757284408544,-10162,4029,7128,13050.190381753056
1735562958917,-390,15,930,1008.5757284408544,-10189,4049,10441,15140.165223669126
1735562958947,-384,13,937,1012.7161497675447,-10194,4079,13757,17601.446701904933
1735562958977,-384,13,937,1012.7161497675447,-10176,4108,17085,20305.759404661527
1735562959007,-384,13,937,1012.7161497675447,-10142,4124,-15571,19034.799210918933
1735562959037,-380,8,922,997.2702742987981,-10112,4126,-12226,16393.64193826375
1735562959067,-380,8,922,997.2702742987981,-10096,4122,-8894,14072.076463692201
1735562959097,-380,8,922,997.2702742987981,-10089,4113,-5566,12234.584014178823
1735562959127,-380,8,922,997.2702742987981,-10091,4104,-2245,11122.550157225634
1735562959157,-378,5,916,990.941471530988,-10102,4094,1064,10951.86449879654
1735562959187,-378,5,916,990.941471530988,-10117,4091,4370,11755.291149095372
1735562959217,-378,5,916,990.941471530988,-10129,4093,7676,13351.78886891191
1735562959247,-374,5,926,998.6876388541114,-10139,4100,10974,15493.15968419612
1735562959277,-374,5,926,998.6876388541114,-10144,4110,14269,17983.247676657295
1735562959307,-374,5,926,998.6876388541114,-10140,4120,17571,20701.0637649373
1735562959337,-395,15,875,960.143218483576,-10131,4127,-15123,18664.79089087258
1735562959367,-395,15,875,960.143218483576,-10114,4132,-11793,16076.10863984192
1735562959397,-395,15,875,960.143218483576,-10098,4130,-8462,13806.952886136753
1735562959427,-395,15,875,960.143218483576,-10090,4123,-5135,12048.87770707297
1735562959457,-358,0,910,977.8875190940929,-10097,4112,-1834,11055.383711115594
1735562959487,-358,0,910,977.8875190940929,-10116,4106,1445,11012.75247156677
1735562959517,-358,0,910,977.8875190940929,-10133,4108,4724,11910.89958819232
1735562959548,-362,19,905,974.8999948712689,-10166,4114,7990,13568.811738689576
1735562959578,-362,19,905,974.8999948712689,-10199,4135,11262,15746.443090425215
1735562959607,-362,19,905,974.8999948712689,-10205,4163,14551,18253.88164199604
1735562959637,-380,13,929,1003.7977884016283,-10177,4191,17872,20989.144670519567
1735562959667,-380,13,929,1003.7977884016283,-10097,4205,-14744,18358.021952269257
1735562959697,-380,13,929,1003.7977884016283,-10034,4188,-11365,15728.43682633465
1735562959727,-380,13,929,1003.7977884016283,-10006,4153,-8007,13471.432514769913
1735562959757,-354,22,936,1000.9475510734816,-10054,4117,-4721,11845.693141391093
1735562959787,-354,22,936,1000.9475510734816,-10120,4107,-1459,11018.644653495274
1735562959817,-354,22,936,1000.9475510734816,-10172,4121,1804,11122.348717784387
1735562959847,-343,14,906,968.8555103832563,-10191,4147,5072,12115.249646623053
1735562959877,-343,14,906,968.8555103832563,-10184,4169,8344,13810.023642267959
1735562959906,-343,14,906,968.8555103832563,-10163,4185,11629,16001.076057565628
1735562959937,-355,0,924,989.8489783800355,-10121,4190,14939,18524.698702003225
1735562959967,-355,0,924,989.8489783800355,-10046,4170,-17704,20778.417456582203
1735562959997,-355,0,924,989.8489783800355,-10012,4129,-14374,17997.240371790336
1735562960027,-355,0,924,989.8489783800355,-10022,4084,-11075,15484.675166111816
1735562960057,-278,-2,943,983.1261363629797,-10113,4050,-7884,13447.405883663956
1735562960087,-278,-2,943,983.1261363629797,-10216,4057,-4730,11966.57031066128
1735562960117,-278,-2,943,983.1261363629797,-10281,4097,-1557,11176.252457778503
1735562960147,-222,-18,958,983.5507104364268,-10338,4152,1588,11253.225848617809
1735562960177,-222,-18,958,983.5507104364268,-10369,4218,4713,12145.78338354509
1735562960207,-222,-18,958,983.5507104364268,-10340,4283,7885,13690.614084108864
1735562960237,-210,-14,951,974.0107802278166,-10268,4328,11100,15728.108850081118
1735562960267,-210,-14,951,974.0107802278166,-10191,4345,14329,18112.30926745676
1735562960297,-210,-14,951,974.0107802278166,-10126,4333,17558,20726.65262409731
1735562960327,-211,-13,933,956.6498837087684,-10098,4301,-15232,18774.504760445747
1735562960357,-211,-13,933,956.6498837087684,-10115,4265,-12051,16301.22851198645
1735562960387,-211,-13,933,956.6498837087684,-10154,4243,-8890,14147.044390967323
1735562960417,-211,-13,933,956.6498837087684,-10197,4237,-5739,12444.561020783336
1735562960447,-177,-19,964,980.2989339992164,-10206,4244,-2553,11344.239992172239
1735562960477,-177,-19,964,980.2989339992164,-10213,4253,625,11080.794330732793
1735562960507,-177,-19,964,980.2989339992164,-10211,4263,3811,11703.05135424091
1735562960569,-172,-24,948,963.7759075635788,-10202,4271,6997,13087.408223173907
1735562960569,-172,-24,948,963.7759075635788,-10191,4273,10167,15016.088005868905
1735562960598,-172,-24,948,963.7759075635788,-10182,4272,13337,17314.695405926148
1735562960627,-198,-18,958,978.4130007312863,-10179,4265,16511,19859.893932244453
1735562960657,-198,-18,958,978.4130007312863,-10171,4255,-16282,19663.615893319315
1735562960687,-198,-18,958,978.4130007312863,-10173,4243,-13083,17107.246037863606
1735562960718,-198,-18,958,978.4130007312863,-10184,4235,-9892,14815.557532539908
1735562960747,-200,-9,946,966.9524290263715,-10189,4232,-6690,12902.776639157944
1735562960777,-200,-9,946,966.9524290263715,-10197,4232,-3488,11578.202667080932
1735562960807,-200,-9,946,966.9524290263715,-10202,4234,-285,11049.379394337042
1735562960837,-211,-13,936,959.5759480103699,-10194,4244,2939,11426.58711076934
1735562960868,-211,-13,936,959.5759480103699,-10168,4251,6186,12638.268117111616
1735562960898,-211,-13,936,959.5759480103699,-10146,4247,9434,14490.641152136783
1735562960926,-221,-9,986,1010.5038347280034,-10135,4235,12671,16769.248373138256
1735562960957,-221,-9,986,1010.5038347280034,-10134,4218,15899,19320.136671359236
1735562960987,-221,-9,986,1010.5038347280034,-10147,4204,-16883,20141.273892184676
1735562961017,-221,-9,986,1010.5038347280034,-10166,4197,-13673,17547.45833447112
1735562961047,-216,-3,938,962.5533751434255,-10206,4197,-10513,15241.404594065469
1735562961077,-216,-3,938,962.5533751434255,-10235,4211,-7350,13285.715863287156
1735562961107,-216,-3,938,962.5533751434255,-10244,4232,-4173,11843.280331056932
1735562961137,-240,-11,941,971.1858730438782,-10196,4246,-952,11085.722168627535
1735562961167,-240,-11,941,971.1858730438782,-10126,4234,2297,11213.333179746332
1735562961197,-240,-11,941,971.1858730438782,-10089,4200,5528,12246.905935786393
1735562961227,-254,-10,951,984.386611042633,-10094,4159,8731,13979.144394418423
1735562961257,-254,-10,951,984.386611042633,-10125,4128,11926,16179.786308848457
1735562961287,-254,-10,951,984.386611042633,-10169,4113,15106,18668.598394094828
1735562961317,-254,-10,951,984.386611042633,-10210,4116,-17715,20856.81617601306
1735562961347,-246,-29,979,1009.8504839826537,-10254,4140,-14549,18274.504562367758
1735562961377,-246,-29,979,1009.8504839826537,-10264,4173,-11365,15872.203690729275
1735562961408,-246,-29,979,1009.8504839826537,-10246,4203,-8158,13754.95143575578
1735562961437,-231,-12,947,974.8404997741939,-10241,4229,-4953,12136.504068305667
1735562961467,-231,-12,947,974.8404997741939,-10240,4259,-1746,11226.985214205994
1735562961497,-231,-12,947,974.8404997741939,-10216,4282,1480,11175.534886527803
1735562961527,-234,17,932,961.0770000369378,-10176,4292,4720,12010.438792983377
1735562961557,-234,17,932,961.0770000369378,-10155,4290,7965,13600.343745655842
1735562961588,-234,17,932,961.0770000369378,-10142,4280,11206,15708.373563166875
1735562961617,-234,17,932,961.0770000369378,-10141,4269,14438,18152.688120496092
1735562961647,-235,-11,961,989.3770767508211,-10101,4249,17685,20804.889497423435
1735562961677,-235,-11,961,989.3770767508211,-10085,4217,-15088,18631.641312562886
1735562961707,-235,-11,961,989.3770767508211,-10098,4185,-11884,16146.618376613724
1735562961737,-253,-1,945,978.2816567839754,-10142,4159,-8707,13998.90331418858
1735562961767,-253,-1,945,978.2816567839754,-10194,4150,-5534,12319.305662252236
1735562961798,-253,-1,945,978.2816567839754,-10235,4161,-2359,11297.523047110813
1735562961827,-258,-7,923,958.4059682618844,-10258,4187,826,11110.346934277075
1735562961857,-258,-7,923,958.4059682618844,-10249,4222,4034,11795.780643942138
1735562961887,-258,-7,923,958.4059682618844,-10216,4247,7263,13234.607436565695
1735562961917,-258,-7,923,958.4059682618844,-10174,4255,10504,15229.882369867471
1735562961947,-253,4,969,1001.4918871363861,-10123,4251,13767,17608.98688170333
1735562961977,-253,4,969,1001.4918871363861,-10096,4231,17017,20233.854452377578
1735562962007,-253,4,969,1001.4918871363861,-10094,4207,-15748,19172.563443629544
1735562962037,-261,-2,927,963.0441319067367,-10108,4188,-12533,16636.919696866964
1735562962067,-261,-2,927,963.0441319067367,-10125,4176,-9324,14383.726116691738
1735562962097,-261,-2,927,963.0441319067367,-10146,4173,-6119,12561.743748381432
1735562962127,-311,-3,938,988.2175873763834,-10159,4177,-2914,11364.154434008718
1735562962157,-311,-3,938,988.2175873763834,-10123,4182,350,10958.410149287167
1735562962188,-311,-3,938,988.2175873763834,-10096,4173,3614,11506.699830968044
1735562962218,-311,-3,938,988.2175873763834,-10084,4157,6868,12889.419265428523
1735562962247,-309,-9,937,986.6767454440183,-10094,4156,10093,14867.071702255289
1735562962277,-309,-9,937,986.6767454440183,-10101,4158,13318,17224.64191209791
1735562962307,-309,-9,937,986.6767454440183,-10104,4162,16546,19828.84706683674
1735562962337,-319,8,913,967.1576913823309,-10110,4176,-16224,19567.045050287998
1735562962367,-319,8,913,967.1576913823309,-10107,4198,-12976,16975.0177908596
1735562962397,-319,8,913,967.1576913823309,-10088,4213,-9715,14625.263689930516
1735562962427,-364,8,875,947.7262262911162,-10056,4225,-6440,12666.781793336459
1735562962457,-364,8,875,947.7262262911162,-9975,4228,-3093,11266.909869169984
1735562962487,-364,8,875,947.7262262911162,-9920,4203,243,10776.393552575926
1735562962517,-364,8,875,947.7262262911162,-9903,4164,3555,11315.755829815347
1735562962547,-405,14,910,996.1531006828218,-9864,4138,6903,12730.787446187294
1735562962577,-405,14,910,996.1531006828218,-9851,4103,10244,14792.44219187623
1735562962608,-405,14,910,996.1531006828218,-9869,4070,13561,17258.70163135107
1735562962637,-422,5,876,972.3605298447691,-9895,4059,16869,19973.724414840613
1735562962667,-422,5,876,972.3605298447691,-9906,4059,-15810,19093.46529574975
1735562962697,-422,5,876,972.3605298447691,-9913,4063,-12489,16454.502696830434
1735562962727,-423,-28,978,1065.9254195299031,-9901,4082,-9159,14091.83472795505
1735562962757,-423,-28,978,1065.9254195299031,-9818,4101,-5802,12119.180211548965
1735562962787,-423,-28,978,1065.9254195299031,-9750,4087,-2446,10851.22043827329
1735562962817,-423,-28,978,1065.9254195299031,-9716,4052,890,10564.632506623218
1735562962847,-433,-26,891,990.9823409122889,-9734,4061,4171,11341.945071282968
1735562962877,-433,-26,891,990.9823409122889,-9736,4075,7465,12927.54988387204
1735562962907,-433,-26,891,990.9823409122889,-9728,4086,10767,15075.067794209086
1735562962937,-435,4,892,992.4238006013359,-9712,4113,14066,17581.01444740889
1735562962967,-435,4,892,992.4238006013359,-9685,4143,17382,20324.802532866095
1735562962997,-435,4,892,992.4238006013359,-9644,4157,-15286,18545.866951965334
1735562963027,-428,-66,917,1014.1148850105692,-9593,4177,-11948,15881.67755622812
1735562963057,-428,-66,917,1014.1148850105692,-9453,4199,-8594,13447.960663238126
1735562963087,-428,-66,917,1014.1148850105692,-9344,4167,-5248,11498.50985997751
1735562963117,-428,-66,917,1014.1148850105692,-9299,4105,-1940,10348.237821001216
1735562963147,-402,-81,942,1027.3894101069955,-9285,4102,1312,10235.183095577724
1735562963177,-402,-81,942,1027.3894101069955,-9280,4096,4552,11118.287637941376
1735562963206,-402,-81,942,1027.3894101069955,-9282,4089,7786,12786.603966651974
1735562963237,-389,-76,924,1005.4218020313664,-9266,4134,11025,14983.301939158804
1735562963267,-389,-76,924,1005.4218020313664,-9206,4185,14295,17510.330836394838
1735562963297,-389,-76,924,1005.4218020313664,-9127,4205,17590,20258.140437858554
1735562963327,-391,-108,909,995.4024311804749,-9044,4212,-15105,18102.372910753995
1735562963357,-391,-108,909,995.4024311804749,-8914,4209,-11780,15360.451718618173
1735562963387,-391,-108,909,995.4024311804749,-8832,4163,-8477,12930.36434134785
1735562963417,-391,-108,909,995.4024311804749,-8813,4099,-5216,11030.74911327422
1735562963447,-408,-95,896,989.0930188814397,-8851,4056,-1973,9933.98540365346
1735562963478,-408,-95,896,989.0930188814397,-8907,4035,1254,9858.417215760348
1735562963507,-408,-95,896,989.0930188814397,-8960,4039,4479,10800.766732042684
1735562963537,-400,-100,910,999.0495483208027,-8966,4081,7712,12510.741824528232
1735562963567,-400,-100,910,999.0495483208027,-8923,4123,10971,14730.305461870097
1735562963597,-400,-100,910,999.0495483208027,-8862,4141,14249,17283.429231492228
1735562963627,-395,-162,909,1004.2659010441408,-8788,4159,17537,20051.74790386115
1735562963658,-395,-162,909,1004.2659010441408,-8623,4175,-15155,17929.327343768367
1735562963687,-395,-162,909,1004.2659010441408,-8504,4130,-11862,15168.452788600425
1735562963717,-395,-162,909,1004.2659010441408,-8459,4055,-8617,12737.75470795383
1735562963748,-422,-195,912,1023.6469117815967,-8430,4051,-5389,10794.29580843512
1735562963777,-422,-195,912,1023.6469117815967,-8403,4031,-2161,9567.094177439669
1735562963807,-422,-195,912,1023.6469117815967,-8399,4006,1051,9364.605597674683
1735562963837,-395,-162,894,990.7093418354345,-8449,4039,4227,10274.56329972228
1735562963867,-395,-162,894,990.7093418354345,-8482,4117,7414,11994.223984902066
1735562963897,-395,-162,894,990.7093418354345,-8447,4187,10654,14226.401301805035
1735562963927,-359,-177,923,1006.0511915404703,-8359,4243,13931,16791.3278510069
1735562963957,-359,-177,923,1006.0511915404703,-8243,4283,17192,19541.136149159804
1735562963987,-359,-177,923,1006.0511915404703,-8135,4275,-15536,18050.51650230541
1735562964018,-354,-162,869,952.2189874183354,-8055,4228,-12294,15293.83683056675
1735562964078,-354,-162,869,952.2189874183354,-8030,4156,-9113,12837.445423447767
1735562964078,-354,-162,869,952.2189874183354,-8065,4093,-5980,10842.383225103235
1735562964108,-354,-162,869,952.2189874183354,-8134,4056,-2879,9534.240032640253
1735562964137,-333,-200,925,1003.2517131806952,-8129,4032,200,9076.214243835368
1735562964167,-333,-200,925,1003.2517131806952,-8138,4010,3256,9638.914876686069
1735562964197,-333,-200,925,1003.2517131806952,-8160,3996,6301,11056.953332631914
1735562964227,-352,-248,1005,1093.3585871067187,-8182,4004,9351,13054.437597997088
1735562964257,-352,-248,1005,1093.3585871067187,-8131,4024,12456,15409.661677012899
1735562964288,-352,-248,1005,1093.3585871067187,-8082,4022,15566,17994.32032614736
1735562964317,-344,-273,935,1033.0004840269921,-8072,4021,-17331,19536.867353800608
1735562964347,-344,-273,935,1033.0004840269921,-8075,4052,-14229,16854.93310577055
1735562964378,-344,-273,935,1033.0004840269921,-8055,4076,-11109,14314.561886414827
1735562964408,-344,-273,935,1033.0004840269921,-8025,4088,-7978,12031.660442349594
1735562964439,-333,-213,855,941.9570053882502,-8025,4110,-4805,10216.689777026608
1735562964468,-333,-213,855,941.9570053882502,-8023,4135,-1619,9169.94629210008
1735562964498,-333,-213,855,941.9570053882502,-8003,4153,1580,9153.787085135857
1735562964528,-365,-237,910,1008.7090759976337,-7931,4167,4798,10162.945144002304
1735562964556,-365,-237,910,1008.7090759976337,-7835,4143,8034,11962.308723653641
1735562964588,-365,-237,910,1008.7090759976337,-7789,4093,11241,14275.197056433231
1735562964618,-408,-246,846,970.925331835564,-7782,4041,14424,16880.194933708557
1735562964648,-408,-246,846,970.925331835564,-7761,3980,17644,19682.07959032785
1735562964678,-408,-246,846,970.925331835564,-7790,3927,-15172,17501.286038460144
1735562964708,-408,-246,846,970.925331835564,-7846,3896,-12016,14870.197981197158
1735562964738,-395,-248,857,975.6935994460556,-7882,3889,-8845,12469.333181850583
1735562964767,-395,-248,857,975.6935994460556,-7913,3897,-5678,10490.083984411183
1735562964797,-395,-248,857,975.6935994460556,-7927,3914,-2502,9187.85769371729
1735562964827,-400,-277,931,1050.471322788014,-7874,3930,722,8829.83918313352
1735562964857,-400,-277,931,1050.471322788014,-7793,3913,3968,9580.576287468306
1735562964888,-400,-277,931,1050.471322788014,-7751,3872,7192,11260.3396485186
1735562964918,-404,-282,1003,1117.4743844938907,-7766,3826,10380,13516.413429604763
1735562964947,-404,-282,1003,1117.4743844938907,-7826,3797,13536,16089.95901175637
1735562964978,-404,-282,1003,1117.4743844938907,-7886,3796,16685,18841.120906145687
1735562965008,-404,-282,1003,1117.4743844938907,-7928,3816,-16158,18398.260896073847
1735562965039,-398,-229,930,1037.1812763446899,-8105,3832,-13106,15878.99508785112
1735562965068,-398,-229,930,1037.1812763446899,-8228,3910,-10024,13545.060354239844
1735562965098,-398,-229,930,1037.1812763446899,-8259,4012,-6882,11474.717817881188
1735562965127,-436,-180,896,1012.576910659136,-8237,4040,-3685,9886.809090904911
1735562965158,-436,-180,896,1012.576910659136,-8234,4030,-466,9179.150941127398
1735562965188,-436,-180,896,1012.576910659136,-8240,4021,2745,9570.844581331368
1735562965218,-458,-224,854,994.6134927699302,-8230,3999,5969,10924.919313203187
1735562965248,-458,-224,854,994.6134927699302,-8174,3924,9220,12931.374714236688
1735562965278,-458,-224,854,994.6134927699302,-8190,3847,12419,15365.775932246312
1735562965308,-458,-224,854,994.6134927699302,-8254,3794,15578,18033.22034468608
1735562965338,-437,-238,917,1043.3129923469755,-8349,3738,-17261,19535.11110795124
1735562965368,-437,-238,917,1043.3129923469755,-8451,3729,-14125,16877.217395056567
1735562965398,-437,-238,917,1043.3129923469755,-8526,3757,-10980,14400.282115292048
1735562965428,-432,-227,903,1026.4316830651712,-8617,3786,-7844,12252.135364906804
1735562965458,-432,-227,903,1026.4316830651712,-8696,3838,-4702,10604.690660269162
1735562965488,-432,-227,903,1026.4316830651712,-8712,3907,-1520,9668.19491942524
1735562965548,-464,-206,877,1013.3415021600566,-8685,3961,1690,9694.062409537088
1735562965549,-464,-206,877,1013.3415021600566,-8645,3985,4939,10724.270184958974
1735562965578,-464,-206,877,1013.3415021600566,-8601,3989,8198,12533.815301016686
1735562965608,-464,-206,877,1013.3415021600566,-8568,3978,11453,14846.08759909492
1735562965638,-412,-231,893,1010.2247274740408,-8589,3950,14654,17438.839898341863
1735562965668,-412,-231,893,1010.2247274740408,-8627,3938,17821,20187.149724515344
1735562965698,-412,-231,893,1010.2247274740408,-8661,3942,-15012,17773.925537145697
1735562965728,-438,-153,923,1033.0450135400683,-8743,3920,-11839,15230.507870717904
1735562965757,-438,-153,923,1033.0450135400683,-8865,3930,-8653,12996.443128794894
1735562965788,-438,-153,923,1033.0450135400683,-8941,3979,-5445,11199.194033500804
1735562965818,-391,-141,899,990.435762682265,-8985,4023,-2205,10088.4477993396
1735562965848,-391,-141,899,990.435762682265,-9089,4060,986,10003.2853103368
1735562965877,-391,-141,899,990.435762682265,-9132,4124,4215,10870.46572139391
1735562965907,-391,-141,899,990.435762682265,-9113,4188,7491,12518.034749911825
1735562965938,-378,-76,891,970.8455077920482,-9176,4138,10732,14713.865705517364
1735562965967,-378,-76,891,970.8455077920482,-9271,4129,13950,17251.161757980244
1735562965997,-378,-76,891,970.8455077920482,-9341,4153,17176,19987.91299760933
1735562966027,-411,-41,873,965.7799956511835,-9359,4120,-15565,18623.49338872812
1735562966057,-411,-41,873,965.7799956511835,-9409,4065,-12315,16022.257362806278
1735562966088,-411,-41,873,965.7799956511835,-9483,4040,-9090,13743.252489858432
1735562966118,-426,-39,842,944.4368692506662,-9528,4031,-5860,11889.968250588392
1735562966148,-426,-39,842,944.4368692506662,-9528,4004,-2602,10657.63594799522
1735562966177,-426,-39,842,944.4368692506662,-9548,3982,638,10364.73212389013
1735562966207,-426,-39,842,944.4368692506662,-9577,3972,3868,11066.035288214112
1735562966238,-446,-136,938,1047.4998806682509,-9541,3995,7137,12566.919869244015
1735562966267,-446,-136,938,1047.4998806682509,-9476,3989,10419,14637.699887618955
1735562966297,-446,-136,938,1047.4998806682509,-9439,3961,13686,17090.665229885
1735562966327,-422,-80,908,1004.4640361904452,-9518,3922,16893,19782.51392012653
1735562966358,-422,-80,908,1004.4640361904452,-9663,3934,-15942,19052.487737825737
1735562966387,-422,-80,908,1004.4640361904452,-9753,3994,-12750,16541.932928167735
1735562966418,-418,-62,963,1051.6353930902098,-9771,4078,-9497,14223.06345341959
1735562966448,-418,-62,963,1051.6353930902098,-9734,4167,-6162,12250.913802651621
1735562966478,-418,-62,963,1051.6353930902098,-9639,4224,-2772,10882.852613170868
1735562966508,-418,-62,963,1051.6353930902098,-9532,4234,639,10449.598126243898
1735562966538,-325,-43,916,972.8977335773786,-9578,4186,3902,11157.342156624936
1735562966567,-325,-43,916,972.8977335773786,-9669,4172,7107,12704.51077373702
1735562966598,-325,-43,916,972.8977335773786,-9740,4192,10317,14794.625814801806
1735562966627,-323,-15,903,959.1470168853157,-9802,4188,13551,17240.88596911423
1735562966657,-323,-15,903,959.1470168853157,-9878,4193,16787,19923.84255107433
1735562966688,-323,-15,903,959.1470168853157,-9924,4223,-15961,19263.255851490943
1735562966718,-341,28,942,1002.212053409856,-9923,4239,-12685,16653.65650540445
1735562966748,-341,28,942,1002.212053409856,-9932,4211,-9397,14306.668165579295
1735562966778,-341,28,942,1002.212053409856,-9959,4192,-6125,12420.554335455403
1735562966808,-341,28,942,1002.212053409856,-9992,4186,-2862,11205.074921659381
1735562966838,-324,-5,933,987.6689728851463,-9968,4174,406,10814.256146402304
1735562966867,-324,-5,933,987.6689728851463,-9959,4154,3655,11392.823267302974
1735562966898,-324,-5,933,987.6689728851463,-9969,4135,6890,12804.346371447471
1735562966928,-319,-14,904,958.7351041867613,-10009,4115,10106,14806.90859024935
1735562966958,-319,-14,904,958.7351041867613,-10059,4110,13308,17180.757986771132
1735562966988,-319,-14,904,958.7351041867613,-10096,4123,16513,19789.075622676264
1735562967018,-346,7,919,982.001018329411,-10118,4141,-16271,19602.73567643047
1735562967048,-346,7,919,982.001018329411,-10130,4157,-13019,17011.522859520835
1735562967078,-346,7,919,982.001018329411,-10126,4174,-9756,14667.572668986508
1735562967108,-346,7,919,982.001018329411,-10110,4187,-6482,12718.46661355055
1735562967139,-328,-2,949,1004.086151682215,-10115,4197,-3210,11411.929459999305
1735562967168,-328,-2,949,1004.086151682215,-10113,4207,62,10953.33109149906
1735562967198,-328,-2,949,1004.086151682215,-10103,4214,3341,11445.116251047868
1735562967228,-321,29,945,998.4523023159394,-10108,4198,6625,12793.963146734479
1735562967257,-321,29,945,998.4523023159394,-10149,4184,9893,14777.669166685253
1735562967288,-321,29,945,998.4523023159394,-10186,4187,13159,17159.3952690647
1735562967318,-338,49,932,992.6071730548798,-10197,4197,16439,19794.805859113647
1735562967347,-338,49,932,992.6071730548798,-10182,4197,-16244,19625.378187438833
1735562967377,-338,49,932,992.6071730548798,-10172,4192,-12929,16976.49813713064
1735562967407,-338,49,932,992.6071730548798,-10169,4185,-9620,14610.516281090138
1735562967438,-356,22,930,996.0522074670585,-10128,4179,-6292,12634.464333718308
1735562967468,-356,22,930,996.0522074670585,-10096,4156,-2968,11314.175886912843
1735562967497,-356,22,930,996.0522074670585,-10092,4127,335,10908.38292323844
1735562967527,-302,18,937,984.6303875058904,-10123,4101,3606,11502.024430507874
1735562967558,-302,18,937,984.6303875058904,-10187,4094,6828,12928.936112457204
1735562967588,-302,18,937,984.6303875058904,-10235,4109,10054,14923.874228899143
1735562967618,-346,46,922,985.8580019455135,-10265,4135,13283,17288.913759979256
1735562967648,-346,46,922,985.8580019455135,-10272,4167,16557,19925.163035719434
1735562967678,-346,46,922,985.8580019455135,-10251,4196,-16145,19579.33711850327
1735562967708,-377,39,978,1048.8727282182524,-10211,4215,-12827,16928.162186132315
1735562967738,-377,39,978,1048.8727282182524,-10135,4217,-9454,14487.21608867625
1735562967768,-377,39,978,1048.8727282182524,-10083,4192,-6091,12503.60084135766
1735562967798,-377,39,978,1048.8727282182524,-10069,4154,-2754,11234.989675117642
1735562967828,-351,25,907,972.8694670920657,-10134,4126,482,10952.358467471744
1735562967858,-351,25,907,972.8694670920657,-10203,4125,3699,11610.315887175508
1735562967889,-351,25,907,972.8694670920657,-10250,4147,6925,13046.675208649904
1735562967918,-297,35,854,904.8480535426929,-10258,4179,10182,15045.388961406083
1735562967948,-297,35,854,904.8480535426929,-10277,4206,13413,17413.090880139574
1735562967977,-297,35,854,904.8480535426929,-10270,4234,16664,20027.195310377338
1735562968008,-298,62,887,937.7723604372226,-10227,4256,-16044,19496.538179892348
1735562968038,-298,62,887,937.7723604372226,-10171,4264,-12697,16817.988762036915
1735562968068,-298,62,887,937.7723604372226,-10128,4251,-9355,14427.869212049296
1735562968097,-298,62,887,937.7723604372226,-10110,4226,-6027,12505.834838186533
1735562968127,-386,89,958,1036.6682207919755,-10105,4197,-2658,11260.142006209335
1735562968158,-386,89,958,1036.6682207919755,-10109,4172,726,10960.134168886803
1735562968188,-386,89,958,1036.6682207919755,-10132,4154,4096,11691.465092108858
1735562968248,-348,56,946,1009.5325651012948,-10148,4143,7450,13253.25820317404
1735562968249,-348,56,946,1009.5325651012948,-10166,4133,10772,15377.425954950979
1735562968278,-348,56,946,1009.5325651012948,-10186,4132,14090,17870.537764712062
1735562968308,-356,46,951,1016.4905311905271,-10207,4135,17398,20590.567694942263
1735562968338,-356,46,951,1016.4905311905271,-10221,4139,-15303,18862.18362226389
1735562968368,-356,46,951,1016.4905311905271,-10228,4147,-12000,16303.668084207307
1735562968398,-356,46,951,1016.4905311905271,-10226,4155,-8691,14048.792901883065
1735562968428,-375,54,942,1015.3349201125706,-10195,4161,-5364,12248.44651374206
1735562968458,-375,54,942,1015.3349201125706,-10168,4154,-2032,11170.18191436469
1735562968488,-375,54,942,1015.3349201125706,-10155,4139,1291,11041.830781170303
1735562968518,-351,41,960,1022.977028090074,-10165,4125,4597,11894.33726611113
1735562968548,-351,41,960,1022.977028090074,-10190,4119,7878,13522.763955641612
1735562968578,-351,41,960,1022.977028090074,-10212,4122,11158,15677.269915390243
1735562968608,-374,28,949,1020.4219715392255,-10228,4132,14439,18170.584167824654
1735562968638,-374,28,949,1020.4219715392255,-10211,4146,17744,20887.87622042988
1735562968667,-374,28,949,1020.4219715392255,-10190,4150,-14944,18557.52505050175
1735562968698,-374,28,949,1020.4219715392255,-10172,4146,-11633,15999.549649912025
1735562968728,-365,22,904,975.1538340179974,-10138,4146,-8287,13734.727117784321
1735562968758,-365,22,904,975.1538340179974,-10117,4134,-4951,11998.168443558376
1735562968788,-365,22,904,975.1538340179974,-10113,4117,-1625,11039.161335898665
1735562968818,-355,38,930,996.1771930736018,-10125,4111,1676,11055.538069221235
1735562968847,-355,38,930,996.1771930736018,-10145,4116,4966,12021.798409555868
1735562968877,-355,38,930,996.1771930736018,-10154,4128,8262,13726.060760465838
1735562968907,-380,-12,940,1013.9743586501584,-10160,4144,11552,15932.577945831616
1735562968938,-380,-12,940,1013.9743586501584,-10108,4157,14857,18444.044079322735
1735562968968,-380,-12,940,1013.9743586501584,-10063,4150,-17837,20896.053168002803
1735562968998,-380,-12,940,1013.9743586501584,-10040,4128,-14543,18147.7500809329
1735562969028,-360,17,905,974.1221689295445,-10096,4100,-11301,15698.783933795636
1735562969058,-360,17,905,974.1221689295445,-10165,4102,-8074,13614.077456809184
1735562969088,-360,17,905,974.1221689295445,-10210,4126,-4837,12027.657502606233
1735562969118,-350,35,893,959.7780993542206,-10208,4169,-1549,11134.775525352992
1735562969148,-350,35,893,959.7780993542206,-10175,4207,1775,11152.582615699379
1735562969178,-350,35,893,959.7780993542206,-10124,4225,5121,12106.63627933044
1735562969207,-356,27,928,994.3083022885809,-10074,4223,8473,13824.287829758176
1735562969237,-356,27,928,994.3083022885809,-10028,4202,11828,16066.087638252195
1735562969268,-356,27,928,994.3083022885809,-10015,4170,15162,18643.37332673462
1735562969298,-356,27,928,994.3083022885809,-10031,4140,-17526,20613.617756230953
1735562969328,-367,-20,892,964.7554094173299,-10027,4112,-14240,17894.883989565285
1735562969358,-367,-20,892,964.7554094173299,-10035,4083,-10970,15417.944545236891
1735562969388,-367,-20,892,964.7554094173299,-10062,4062,-7717,13315.246036029526
1735562969418,-405,32,925,1010.284118453814,-10095,4045,-4464,11755.77925958122
1735562969447,-405,32,925,1010.284118453814,-10137,4044,-1190,10978.561153448114
1735562969478,-405,32,925,1010.284118453814,-10165,4058,2089,11142.643761693183
1735562969508,-376,14,923,996.7452031487285,-10166,4085,5388,12209.231138773644
1735562969538,-376,14,923,996.7452031487285,-10137,4114,8686,13968.906936478603
1735562969568,-376,14,923,996.7452031487285,-10096,4127,11997,16213.863019034052
1735562969598,-376,14,923,996.7452031487285,-10058,4122,15311,18777.13953188824
1735562969628,-354,13,912,978.3808052082788,-10059,4102,-17410,20521.159445801302
1735562969658,-354,13,912,978.3808052082788,-10079,4087,-14153,17849.29183469193
1735562969688,-354,13,912,978.3808052082788,-10104,4082,-10902,15414.510825841993
1735562969718,-397,-12,922,1003.9108526159083,-10091,4087,-7626,13292.393539163668
1735562969748,-397,-12,922,1003.9108526159083,-10039,4078,-4313,11662.48575561831
1735562969778,-397,-12,922,1003.9108526159083,-10011,4053,-1013,10847.723217339204
1735562969808,-353,10,883,950.9984227116257,-10028,4024,2268,11040.705774541771
1735562969838,-353,10,883,950.9984227116257,-10136,4022,5490,12208.811571975382
1735562969868,-353,10,883,950.9984227116257,-10209,4058,8727,14030.380393987898
1735562969898,-353,10,883,950.9984227116257,-10230,4112,11997,16293.84709023624
1735562969928,-387,-7,993,1065.7706132184355,-10152,4167,15374,18888.80274130682
1735562969958,-387,-7,993,1065.7706132184355,-10046,4179,-17210,20360.998428367897
1735562969988,-387,-7,993,1065.7706132184355,-9968,4151,-13804,17525.474059208784
1735562970018,-392,4,1017,1089.9399066003593,-9949,4111,-10425,14985.444504585108
1735562970048,-392,4,1017,1089.9399066003593,-9971,4082,-7065,12884.012961806582
1735562970078,-392,4,1017,1089.9399066003593,-10009,4066,-3720,11425.884517182903
1735562970108,-361,-33,931,999.0850814620344,-10057,4068,-402,10856.034128538837
1735562970138,-361,-33,931,999.0850814620344,-10105,4086,2845,11265.009809139094
1735562970168,-361,-33,931,999.0850814620344,-10124,4116,6110,12520.740073973264
1735562970197,-361,-33,931,999.0850814620344,-10113,4146,9397,14414.079713946361
1735562970228,-357,9,938,1003.6802279610772,-10123,4171,12681,16753.511005159486
1735562970258,-357,9,938,1003.6802279610772,-10120,4199,15984,19378.706277767873
1735562970289,-357,9,938,1003.6802279610772,-10096,4219,-16695,19961.267544923092
1735562970318,-328,-1,921,977.6635413065171,-10070,4231,-13373,17266.82918198938
1735562970348,-328,-1,921,977.6635413065171,-10053,4234,-10069,14845.010138090172
1735562970378,-328,-1,921,977.6635413065171,-10040,4231,-6765,12824.515039563874
1735562970408,-326,-9,982,1034.737164694494,-10029,4219,-3467,11419.320951790434
1735562970438,-326,-9,982,1034.737164694494,-10024,4195,-189,10868.041313870683
1735562970467,-326,-9,982,1034.737164694494,-10039,4174,3071,11297.558939877234
1735562970498,-326,-9,982,1034.737164694494,-10066,4162,6322,12594.216291615767
1735562970527,-278,12,945,985.1157292420013,-10121,4165,9550,14525.300891892051
1735562970558,-278,12,945,985.1157292420013,-10170,4190,12771,16854.77502074709
1735562970588,-278,12,945,985.1157292420013,-10184,4227,16016,19444.63013276416
1735562970618,-337,-3,949,1007.0645460942412,-10133,4264,-16683,19979.53638100744
1735562970648,-337,-3,949,1007.0645460942412,-10030,4268,-13317,17209.27694588009
1735562970678,-337,-3,949,1007.0645460942412,-9959,4236,-9966,14712.121974752656
1735562970708,-349,40,917,981.9826882384434,-9943,4182,-6659,12676.53951202772
1735562970738,-349,40,917,981.9826882384434,-10008,4135,-3400,11349.814491876068
1735562970767,-349,40,917,981.9826882384434,-10086,4121,-161,10896.603048656953
1735562970798,-349,40,917,981.9826882384434,-10149,4136,3080,11383.984232244879
1735562970828,-319,15,877,933.3354166643416,-10172,4182,6363,12706.159018365857
1735562970858,-319,15,877,933.3354166643416,-10153,4225,9666,14641.229115070906
1735562970888,-319,15,877,933.3354166643416,-10106,4252,12994,17001.610982492217
1735562970918,-364,38,938,1006.8684124551728,-10038,4253,16357,19657.08274388649
1735562970948,-364,38,938,1006.8684124551728,-9979,4227,-16253,19534.788941782812
1735562970977,-364,38,938,1006.8684124551728,-9961,4186,-12890,16819.518928911137
1735562971008,-353,18,933,997.7083742256552,-9980,4150,-9553,14425.07223552104
1735562971038,-353,18,933,997.7083742256552,-10011,4127,-6243,12499.091927016138
1735562971068,-353,18,933,997.7083742256552,-10050,4120,-2943,11253.361675517232
1735562971098,-353,18,933,997.7083742256552,-10080,4128,358,10898.391991482045
1735562971127,-322,3,958,1010.6715589151602,-10128,4139,3591,11515.336990292555
1735562971158,-322,3,958,1010.6715589151602,-10156,4163,6825,12924.996324951122
1735562971188,-322,3,958,1010.6715589151602,-10155,4192,10079,14909.162619007146
1735562971218,-337,0,917,976.9636636026951,-10104,4217,13391,17297.190118629096
1735562971248,-337,0,917,976.9636636026951,-10031,4216,16738,19963.873897618167
1735562971278,-337,0,917,976.9636636026951,-9984,4189,-15925,19257.04032295721
1735562971308,-300,56,912,961.7068160307485,-9979,4149,-12622,16616.543744112372
1735562971338,-300,56,912,961.7068160307485,-10085,4125,-9401,14391.026752806763
1735562971368,-300,56,912,961.7068160307485,-10174,4142,-6179,12603.431318494182
1735562971398,-337,4,946,1004.2415048184375,-10219,4191,-2934,11428.070615812627
1735562971428,-337,4,946,1004.2415048184375,-10141,4240,390,10998.617231270484
1735562971458,-337,4,946,1004.2415048184375,-10051,4252,3736,11535.155005460481
1735562971488,-337,4,946,1004.2415048184375,-9983,4230,7075,12946.382274597023
1735562971518,-343,10,964,1023.2521683338863,-9933,4185,10439,15005.046984264995
1735562971548,-343,10,964,1023.2521683338863,-9935,4134,13768,17474.3241643275
1735562971577,-343,10,964,1023.2521683338863,-9975,4094,17064,20185.18161919778
1735562971608,-370,12,963,1031.7039303986392,-10038,4073,-15676,19054.861558143108
1735562971638,-370,12,963,1031.7039303986392,-10090,4070,-12429,16518.263861556396
1735562971668,-370,12,963,1031.7039303986392,-10126,4087,-9177,14263.827466707524
1735562971698,-338,7,994,1049.9185682708921,-10139,4114,-5910,12435.93249418796
1735562971727,-338,7,994,1049.9185682708921,-10146,4145,-2663,11278.91439811474
1735562971758,-338,7,994,1049.9185682708921,-10127,4172,603,10969.289949673133
1735562971788,-338,7,994,1049.9185682708921,-10094,4186,3885,11597.614280532009
1735562971818,-360,-7,968,1032.798625095909,-10020,4188,7214,13037.696882501908
1735562971848,-360,-7,968,1032.798625095909,-9961,4161,10541,15088.012559644825
1735562971878,-360,-7,968,1032.798625095909,-9944,4119,13841,17533.470221265383
1735562971908,-312,49,950,1001.1218707030628,-9968,4079,17119,20225.217576085553
1735562971938,-312,49,950,1001.1218707030628,-10097,4071,-15663,19074.905478140645
1735562971968,-312,49,950,1001.1218707030628,-10189,4109,-12432,16590.7873833643
1735562971998,-319,6,922,975.6438899516564,-10218,4175,-9166,14347.602761437187
1735562972028,-319,6,922,975.6438899516564,-10141,4233,-5848,12448.183562271244
1735562972058,-319,6,922,975.6438899516564,-10045,4252,-2503,11191.359970977612
1735562972088,-319,6,922,975.6438899516564,-9967,4234,838,10861.403638572687
1735562972118,-339,27,919,979.9035666839875,-9935,4193,4174,11563.206735157855
1735562972148,-339,27,919,979.9035666839875,-9946,4151,7487,13122.838336274664
1735562972178,-339,27,919,979.9035666839875,-9985,4122,10775,15257.514017689775
1735562972208,-359,-40,880,951.2523324544335,-9997,4110,14047,17724.286106921205
1735562972238,-359,-40,880,951.2523324544335,-9971,4089,17318,20397.399000853027
1735562972268,-359,-40,880,951.2523324544335,-9970,4064,-15427,18812.47790696377
1735562972298,-338,-43,930,990.4509074154054,-10001,4041,-12198,16283.147300199676
1735562972327,-338,-43,930,990.4509074154054,-10076,4036,-9020,14112.954049383141
1735562972358,-338,-43,930,990.4509074154054,-10130,4057,-5836,12374.774543400781
1735562972388,-338,-43,930,990.4509074154054,-10150,4093,-2630,11255.75626068724
1735562972418,-375,0,926,999.0500487963553,-10109,4132,668,10941.276388063689
1735562972448,-375,0,926,999.0500487963553,-10051,4152,4003,11588.1712966283
1735562972478,-375,0,926,999.0500487963553,-9997,4148,7342,13078.642016662128
1735562972508,-294,-39,925,971.3814904557323,-9992,4130,10627,15160.148185291593
1735562972538,-294,-39,925,971.3814904557323,-10028,4116,13832,17573.459078963366
1735562972568,-294,-39,925,971.3814904557323,-10063,4117,17033,20207.34388780475
1735562972598,-344,-26,987,1045.5529637469351,-10084,4132,-15747,19150.156370118755
1735562972628,-344,-26,987,1045.5529637469351,-10054,4155,-12432,16519.73259468809
1735562972658,-344,-26,987,1045.5529637469351,-10015,4163,-9105,14160.925781883048
1735562972688,-344,-26,987,1045.5529637469351,-9983,4156,-5780,12261.363097143809
1735562972718,-358,-2,927,993.7288362526268,-9965,4128,-2473,11066.044370053827
1735562972748,-358,-2,927,993.7288362526268,-9976,4102,819,10817.473873321811
1735562972778,-358,-2,927,993.7288362526268,-10004,4084,4097,11556.14472910408
1735562972808,-351,6,897,963.247631712635,-10047,4079,7359,13104.78275287309
1735562972838,-351,6,897,963.247631712635,-10091,4093,10617,15208.60345330892
1735562972867,-351,6,897,963.247631712635,-10109,4119,13889,17665.286949268615
1735562972898,-357,8,963,1027.0744861011785,-10093,4144,17185,20355.972342288147
1735562972928,-357,8,963,1027.0744861011785,-10045,4150,-15492,18924.23285102992
1735562972958,-357,8,963,1027.0744861011785,-10009,4139,-12173,16293.966091777655
1735562972988,-357,8,963,1027.0744861011785,-9993,4118,-8867,13980.045135835579
1735562973018,-341,-2,984,1041.4129824426043,-9991,4095,-5586,12156.993954099014
1735562973048,-341,-2,984,1041.4129824426043,-10008,4076,-2327,11053.902885406584
1735562973078,-341,-2,984,1041.4129824426043,-10034,4067,921,10865.996778943016
1735562973107,-321,-8,876,932.995712744705,-10055,4059,4148,11609.668815259116
1735562973137,-321,-8,876,932.995712744705,-10080,4056,7349,13117.367761864421
1735562973167,-321,-8,876,932.995712744705,-10100,4062,10552,15160.95471927807
1735562973197,-309,0,899,950.6219017043527,-10100,4073,13768,17554.405515425464
1735562973227,-309,0,899,950.6219017043527,-10090,4080,16993,20179.60725584123
1735562973258,-309,0,899,950.6219017043527,-10078,4083,-15778,19162.000339213024
1735562973288,-309,0,899,950.6219017043527,-10068,4081,-12551,16599.6019831802
1735562973317,-333,-45,923,982.264221072925,-10044,4084,-9329,14303.53917742039
1735562973348,-333,-45,923,982.264221072925,-10010,4072,-6100,12409.322463374057
1735562973378,-333,-45,923,982.264221072925,-9997,4051,-2885,11165.743817587792
1735562973408,-327,-89,1026,1080.52117054688,-9990,4038,331,10780.310988093062
1735562973438,-327,-89,1026,1080.52117054688,-9975,4023,3543,11324.221960028866
1735562973467,-327,-89,1026,1080.52117054688,-9977,4005,6744,12691.023993358456
1735562973498,-352,-26,942,1005.9542733146473,-10016,3991,9924,14653.808822282348
1735562973528,-352,-26,942,1005.9542733146473,-10124,4014,13114,17046.54123275452
1735562973557,-352,-26,942,1005.9542733146473,-10178,4070,16333,19670.370433725948
1735562973588,-352,-26,942,1005.9542733146473,-10173,4134,-16404,19740.088677612366
1735562973618,-320,-24,987,1037.8559630314796,-10100,4193,-13099,17063.852144225817
1735562973647,-320,-24,987,1037.8559630314796,-10012,4217,-9778,14616.173131158512
1735562973677,-320,-24,987,1037.8559630314796,-9937,4205,-6456,12574.018053112537
1735562973707,-295,-23,927,973.0791334727099,-9900,4159,-3173,11197.107215705313
1735562973738,-295,-23,927,973.0791334727099,-9925,4106,47,10740.906386334442
1735562973767,-295,-23,927,973.0791334727099,-9980,4072,3240,11255.184760811348
1735562973798,-316,0,966,1016.3719791493663,-10033,4067,6439,12596.122379526169
1735562973828,-316,0,966,1016.3719791493663,-10055,4087,9707,14561.33383313493
1735562973858,-316,0,966,1016.3719791493663,-10054,4112,12992,16934.684053740122
1735562973888,-316,0,966,1016.3719791493663,-10034,4130,16292,19574.66015030657
1735562973918,-322,-55,973,1026.3712778522206,-10004,4122,-16467,19703.628828213346
1735562973948,-322,-55,973,1026.3712778522206,-9978,4099,-13238,17076.502247240212
1735562973978,-322,-55,973,1026.3712778522206,-9979,4071,-10027,14720.537048626997
1735562974008,-309,-60,1000,1048.370640565635,-10021,4049,-6837,12789.03479548007
1735562974038,-309,-60,1000,1048.370640565635,-10076,4049,-3662,11459.948560093977
1735562974068,-309,-60,1000,1048.370640565635,-10114,4067,-480,10911.639885919989
1735562974098,-336,0,914,973.8028547914614,-10131,4089,2713,11256.884604543124
1735562974127,-336,0,914,973.8028547914614,-10161,4117,5946,12471.989656827012
1735562974157,-336,0,914,973.8028547914614,-10159,4149,9201,14320.540597337798
1735562974188,-336,0,914,973.8028547914614,-10133,4175,12476,16605.989582075497
1735562974218,-289,-73,922,968.9860680113002,-10034,4188,15761,19147.57480726998
1735562974248,-289,-73,922,968.9860680113002,-9955,4159,-16980,20117.64663175094
1735562974278,-289,-73,922,968.9860680113002,-9925,4109,-13753,17450.91731113296
1735562974307,-242,-40,971,1001.501372939648,-9976,4039,-10606,15110.3055230528
1735562974338,-242,-40,971,1001.501372939648,-10108,3998,-7543,13230.741362448289
1735562974368,-242,-40,971,1001.501372939648,-10227,4008,-4486,11865.065907950111
1735562974397,-345,-11,945,1006.0670951780503,-10303,4066,-1403,11164.791713238541
1735562974427,-345,-11,945,1006.0670951780503,-10253,4161,1861,11220.572668094976
1735562974457,-345,-11,945,1006.0670951780503,-10144,4220,5181,12147.094179267731
1735562974488,-345,-11,945,1006.0670951780503,-10025,4228,8524,13821.547851091063
1735562974518,-291,-17,941,985.1147141323187,-9976,4195,11799,16010.46538986297
1735562974578,-291,-17,941,985.1147141323187,-9980,4154,15023,18508.015695908623
1735562974578,-291,-17,941,985.1147141323187,-10015,4122,-17777,20816.16770685709
1735562974608,-305,-24,883,934.4998662386207,-10084,4108,-14613,18223.67934858381
1735562974638,-305,-24,883,934.4998662386207,-10143,4120,-11449,15840.910643015444
1735562974667,-305,-24,883,934.4998662386207,-10174,4150,-8269,13751.695786338498
1735562974697,-305,2,931,979.6887260757878,-10169,4188,-5047,12100.41792666683
1735562974727,-305,2,931,979.6887260757878,-10149,4226,-1759,11133.52406024256
1735562974757,-305,2,931,979.6887260757878,-10104,4250,1551,11070.633089394662
1735562974788,-305,2,931,979.6887260757878,-10056,4254,4871,11956.014929733066
1735562974818,-294,-28,939,984.3480075664297,-10022,4227,8128,13578.37976343275
1735562974848,-294,-28,939,984.3480075664297,-10017,4192,11358,15713.602928672979
1735562974877,-294,-28,939,984.3480075664297,-10041,4162,14563,18172.091073951837
1735562974908,-314,-3,899,952.2636189627324,-10087,4145,17775,20853.757910745968
1735562974938,-314,-3,899,952.2636189627324,-10135,4150,-14991,18565.311901500605
1735562974968,-314,-3,899,952.2636189627324,-10163,4171,-11749,16084.862790835363
1735562974997,-289,0,948,991.0726512218971,-10164,4196,-8494,13894.651776852848
1735562975027,-289,0,948,991.0726512218971,-10166,4215,-5266,12200.185941205978
1735562975058,-289,0,948,991.0726512218971,-10153,4231,-2026,11184.339318886923
1735562975088,-289,0,948,991.0726512218971,-10132,4239,1222,11050.784089828196
1735562975118,-307,-19,891,942.598005514546,-10109,4229,4449,11826.661532317563
1735562975148,-307,-19,891,942.598005514546,-10093,4210,7673,13359.179540675394
1735562975177,-307,-19,891,942.598005514546,-10097,4190,10882,15424.766870199368
1735562975207,-279,-39,942,983.2222536130882,-10080,4175,14106,17833.010430098446
1735562975237,-279,-39,942,983.2222536130882,-10082,4157,17306,20455.4395943964
1735562975267,-279,-39,942,983.2222536130882,-10098,4144,-15503,18960.09886577599
1735562975298,-269,-13,914,952.8515099426563,-10121,4133,-12331,16479.377749174877
1735562975328,-269,-13,914,952.8515099426563,-10179,4130,-9199,14327.963637586467
1735562975358,-269,-13,914,952.8515099426563,-10221,4147,-6061,12585.792426383012
1735562975388,-257,-3,927,961.970373764182,-10222,4179,-2884,11413.622606341949
1735562975418,-257,-3,927,961.970373764182,-10184,4211,349,11025.796025684494
1735562975448,-257,-3,927,961.970373764182,-10133,4224,3597,11552.414206563059
1735562975478,-257,-3,927,961.970373764182,-10090,4217,6846,12901.895403389379
1735562975508,-297,-5,941,986.7699833294485,-10039,4191,10118,14856.645852950793
1735562975538,-297,-5,941,986.7699833294485,-10016,4151,13380,17221.366293067458
1735562975568,-297,-5,941,986.7699833294485,-10032,4111,16612,19836.831627051735
1735562975598,-264,-2,916,953.2869452583519,-10070,4083,-16178,19488.54722651229
1735562975627,-264,-2,916,953.2869452583519,-10142,4073,-13022,17000.646370064875
1735562975658,-264,-2,916,953.2869452583519,-10199,4088,-9863,14765.165559518797
1735562975688,-325,-34,925,981.0229355117035,-10224,4124,-6679,12889.786383024351
1735562975718,-325,-34,925,981.0229355117035,-10139,4163,-3379,11469.417204025669
1735562975778,-325,-34,925,981.0229355117035,-10053,4164,-67,10881.461023226615
1735562975779,-325,-34,925,981.0229355117035,-9995,4135,3232,11289.113074108169
1735562975808,-312,-59,995,1044.4376477320222,-9966,4097,6498,12582.947548170103
1735562975838,-312,-59,995,1044.4376477320222,-9973,4055,9730,14511.259559390426
1735562975868,-312,-59,995,1044.4376477320222,-10010,4023,12937,16844.898278113764
1735562975898,-303,-14,953,1000.1069942761125,-10103,4010,16123,19444.8409096089
1735562975928,-303,-14,953,1000.1069942761125,-10211,4042,-16691,19979.78393276564
1735562975958,-303,-14,953,1000.1069942761125,-10261,4104,-13471,17424.08614533342
1735562975988,-295,6,955,999.5428955277507,-10251,4173,-10209,15057.244469025532
1735562976018,-295,6,955,999.5428955277507,-10221,4231,-6917,13046.650566333108
1735562976048,-295,6,955,999.5428955277507,-10154,4268,-3591,11585.112040891103
1735562976078,-295,6,955,999.5428955277507,-10082,4273,-250,10952.979183765483
1735562976108,-281,-20,933,974.6024830668142,-10028,4251,3024,11303.820637288969
1735562976138,-281,-20,933,974.6024830668142,-10008,4212,6268,12537.497038883
1735562976168,-281,-20,933,974.6024830668142,-10025,4175,9485,14418.615571545002
1735562976206,-275,-17,921,961.3298081303835,-10073,4141,12668,16706.02986948126
1735562976228,-275,-17,921,961.3298081303835,-10140,4127,15827,19244.366916061437
1735562976258,-275,-17,921,961.3298081303835,-10195,4138,-17013,20260.879497198537
1735562976289,-269,-30,935,973.3889253530677,-10221,4168,-13837,17700.38513705281
1735562976318,-269,-30,935,973.3889253530677,-10204,4202,-10644,15332.095616712022
1735562976348,-269,-30,935,973.3889253530677,-10167,4224,-7432,13283.248435529616
1735562976378,-269,-30,935,973.3889253530677,-10126,4228,-4210,11753.125541744204
1735562976408,-252,-21,934,967.6264775211558,-10098,4212,-993,10986.200298556367
1735562976439,-252,-21,934,967.6264775211558,-10098,4192,2203,11153.280997087808
1735562976468,-252,-21,934,967.6264775211558,-10113,4175,5386,12194.768960501056
1735562976498,-313,16,974,1023.1818020273817,-10125,4162,8586,13912.485938896758
1735562976528,-313,16,974,1023.1818020273817,-10129,4155,11828,16117.141495935313
1735562976558,-313,16,974,1023.1818020273817,-10137,4151,15066,18627.236134220235
1735562976588,-259,-3,933,968.2866311170469,-10134,4151,-17691,20806.254780714382
1735562976618,-259,-3,933,968.2866311170469,-10141,4145,-14504,18176.5486822994
1735562976678,-259,-3,933,968.2866311170469,-10151,4142,-11320,15758.850370506092
1735562976679,-259,-3,933,968.2866311170469,-10159,4142,-8137,13659.14397024938
1735562976708,-229,-24,912,940.6173504672344,-10191,4137,-4994,12079.374404330714
1735562976739,-229,-24,912,940.6173504672344,-10219,4141,-1861,11182.091172942564
1735562976768,-229,-24,912,940.6173504672344,-10234,4155,1278,11118.995683064186
1735562976798,-271,5,1013,1048.6348268105537,-10231,4171,4468,11917.786119913379
1735562976828,-271,5,1013,1048.6348268105537,-10208,4188,7715,13463.425752756986
1735562976858,-271,5,1013,1048.6348268105537,-10181,4193,10968,15541.268738426732
1735562976888,-233,-44,931,960.7216037958135,-10161,4186,14209,17962.85606466856
1735562976918,-233,-44,931,960.7216037958135,-10151,4164,17371,20545.88372399688
1735562976948,-233,-44,931,960.7216037958135,-10162,4142,-15482,18976.68917382587
1735562976978,-233,-44,931,960.7216037958135,-10186,4127,-12348,16530.572555117382
1735562977008,-268,0,925,963.0415359682053,-10209,4127,-9173,14331.77375623827
1735562977039,-268,0,925,963.0415359682053,-10226,4139,-5979,12547.941584180251
1735562977068,-268,0,925,963.0415359682053,-10228,4155,-2775,11383.173283403885
1735562977098,-245,-13,980,1010.2445248552451,-10235,4171,428,11060.544742461829
1735562977128,-245,-13,980,1010.2445248552451,-10238,4190,3625,11641.020960379721
1735562977158,-245,-13,980,1010.2445248552451,-10225,4205,6835,12998.071972411908
1735562977187,-262,0,929,965.2383125425555,-10219,4215,10042,14934.388169590344
1735562977218,-262,0,929,965.2383125425555,-10228,4232,13259,17272.026198451644
1735562977248,-262,0,929,965.2383125425555,-10220,4249,16488,19858.41244913601
1735562977278,-262,0,929,965.2383125425555,-10201,4260,-16272,19671.959358437074
1735562977308,-275,-45,916,957.4476486993949,-10165,4264,-13055,17086.308729506207
1735562977338,-275,-45,916,957.4476486993949,-10126,4249,-9837,14743.013464010673
1735562977368,-275,-45,916,957.4476486993949,-10111,4224,-6635,12810.063309757685
1735562977399,-246,0,940,971.65631784083,-10126,4198,-3426,11484.622588487617
1735562977428,-246,0,940,971.65631784083,-10182,4191,-232,11013.238806091513
1735562977458,-246,0,940,971.65631784083,-10225,4204,2964,11445.939760456544
1735562977488,-286,28,988,1028.9431471174682,-10235,4237,6201,12694.872783923438
1735562977518,-286,28,988,1028.9431471174682,-10182,4283,9566,14612.514123175382
1735562977548,-286,28,988,1028.9431471174682,-10109,4301,12955,16985.9502825129
1735562977578,-286,28,988,1028.9431471174682,-10047,4290,16344,19658.907523054277
1735562977608,-260,-24,995,1028.6889714583315,-10037,4253,-16383,19678.213003217545
1735562977638,-260,-24,995,1028.6889714583315,-10054,4216,-13149,17080.801298533977
1735562977669,-260,-24,995,1028.6889714583315,-10095,4192,-9937,14772.469597193287
1735562977698,-246,12,930,962.0602891711101,-10187,4181,-6773,12927.848196819145
1735562977728,-246,12,930,962.0602891711101,-10296,4209,-3629,11700.125554881879
1735562977758,-246,12,930,962.0602891711101,-10347,4269,-451,11202.150284655174
1735562977788,-262,0,888,925.8444793808516,-10321,4333,2778,11533.222186362318
1735562977818,-262,0,888,925.8444793808516,-10205,4366,6079,12655.36336894362
1735562977848,-262,0,888,925.8444793808516,-10102,4352,9383,14457.904308716392
1735562977878,-262,0,888,925.8444793808516,-10045,4307,12662,16726.58118086299
1735562977908,-243,0,880,912.9342802195566,-9994,4235,15921,19268.97771029901
1735562977938,-243,0,880,912.9342802195566,-10021,4161,-16882,20068.29055998542
1735562977968,-243,0,880,912.9342802195566,-10094,4110,-13728,17528.232084269082
1735562977998,-259,15,882,919.3639105381503,-10162,4089,-10585,15232.478130626021
1735562978028,-259,15,882,919.3639105381503,-10216,4092,-7431,13278.963852650553
1735562978058,-259,15,882,919.3639105381503,-10251,4112,-4268,11840.919263300464
1735562978088,-229,-15,961,988.0217608939593,-10254,4145,-1081,11112.790018712672
1735562978118,-229,-15,961,988.0217608939593,-10218,4174,2105,11236.584222974525
1735562978148,-229,-15,961,988.0217608939593,-10173,4184,5305,12212.240171238036
1735562978178,-229,-15,961,988.0217608939593,-10134,4177,8505,13873.727329020128
1735562978208,-235,-27,985,1013.0049358221311,-10152,4156,11647,15999.626526891183
1735562978239,-235,-27,985,1013.0049358221311,-10177,4144,14780,18417.178529840014
1735562978268,-235,-27,985,1013.0049358221311,-10203,4141,17909,21023.352991376043
1735562978298,-209,-60,1035,1057.5944402274438,-10211,4164,-14915,18548.87171770833
1735562978328,-209,-60,1035,1057.5944402274438,-10189,4190,-11714,16080.721905436958
1735562978358,-209,-60,1035,1057.5944402274438,-10155,4203,-8500,13893.855980252567
1735562978388,-221,-9,916,942.3258459789798,-10139,4195,-5305,12187.713936583841
1735562978418,-221,-9,916,942.3258459789798,-10198,4187,-2147,11231.196819573594
1735562978448,-221,-9,916,942.3258459789798,-10244,4200,1014,11117.901420681872
1735562978478,-221,-9,916,942.3258459789798,-10265,4226,4190,11865.30239816921
1735562978508,-163,-41,845,861.5538288464627,-10243,4241,7313,13281.005195390897
1735562978538,-163,-41,845,861.5538288464627,-10224,4245,10419,15202.163069773986
1735562978568,-163,-41,845,861.5538288464627,-10209,4242,13524,17467.59345187539
1735562978598,-180,9,864,882.5967369076321,-10213,4229,16638,19975.3061052891
1735562978628,-180,9,864,882.5967369076321,-10242,4225,-16236,19655.963090115936
1735562978658,-180,9,864,882.5967369076321,-10265,4231,-13110,17179.746389280604
1735562978688,-131,-62,1000,1010.447920478834,-10251,4253,-9953,14907.488688575282
1735562978718,-131,-62,1000,1010.447920478834,-10159,4263,-6789,12940.98029517084
1735562978748,-131,-62,1000,1010.447920478834,-10089,4240,-3633,11531.010796976994
1735562978778,-180,-60,974,992.3084197969903,-10066,4196,-506,10917.271087593273
1735562978808,-180,-60,974,992.3084197969903,-10062,4149,2633,11197.800409008905
1735562978838,-180,-60,974,992.3084197969903,-10094,4110,5743,12319.212028372594
1735562978868,-180,-60,974,992.3084197969903,-10145,4088,8834,14059.59903411189
1735562978898,-168,-70,956,973.1700776328873,-10228,4094,11890,16209.408379086512
1735562978928,-168,-70,956,973.1700776328873,-10295,4132,14943,18610.580270373088
1735562978958,-168,-70,956,973.1700776328873,-10314,4185,-17972,21139.66898983993
1735562978988,-191,-22,979,997.7003558183188,-10287,4234,-14856,18559.36046850753
1735562979018,-191,-22,979,997.7003558183188,-10253,4274,-11691,16126.70350691672
1735562979048,-191,-22,979,997.7003558183188,-10198,4295,-8505,13956.405482788181
1735562979078,-159,-73,954,969.9103051313559,-10154,4296,-5318,12240.933624523906
1735562979108,-159,-73,954,969.9103051313559,-10127,4280,-2184,11209.120616712089
1735562979138,-159,-73,954,969.9103051313559,-10121,4258,935,11019.955989022823
1735562979168,-159,-73,954,969.9103051313559,-10133,4238,4039,11702.64303480201
1735562979198,-220,-87,997,1024.6843416389263,-10098,4238,7237,13126.47770729071
1735562979228,-220,-87,997,1024.6843416389263,-10058,4222,10451,15106.6888827433
1735562979258,-220,-87,997,1024.6843416389263,-10043,4196,13650,17458.257788221596
1735562979288,-197,-56,989,1009.983168176579,-10059,4169,16820,20036.877052075753
1735562979318,-197,-56,989,1009.983168176579,-10140,4159,-16065,19447.393295760747
1735562979348,-197,-56,989,1009.983168176579,-10202,4178,-12946,17003.982004224774
1735562979378,-161,-69,936,952.248917037977,-10231,4211,-9817,14791.192345446665
1735562979408,-161,-69,936,952.248917037977,-10249,4239,-6728,12972.166588507873
1735562979438,-161,-69,936,952.248917037977,-10239,4267,-3618,11667.661890884565
1735562979468,-161,-69,936,952.248917037977,-10211,4287,-491,11085.304280893692
1735562979498,-189,-26,940,959.1647408031636,-10162,4293,2705,11358.394164669582
1735562979527,-189,-26,940,959.1647408031636,-10126,4285,5911,12483.469950298275
1735562979558,-189,-26,940,959.1647408031636,-10108,4267,9106,14258.267391236566
1735562979588,-207,-64,966,990.0005050503762,-10077,4252,12320,16474.460021499945
1735562979618,-207,-64,966,990.0005050503762,-10033,4223,15544,18976.58436073257
1735562979648,-207,-64,966,990.0005050503762,-10026,4185,-17255,20390.437121356666
1735562979678,-223,-25,1005,1029.7470563201432,-10061,4149,-14088,17801.95680255404
1735562979708,-223,-25,1005,1029.7470563201432,-10152,4135,-10933,15481.983658433437
1735562979738,-223,-25,1005,1029.7470563201432,-10224,4154,-7773,13498.348824948924
1735562979768,-223,-25,1005,1029.7470563201432,-10257,4194,-4591,11994.70574878767
1735562979798,-211,-18,948,971.3645041898535,-10265,4235,-1398,11191.954878393675
1735562979828,-211,-18,948,971.3645041898535,-10242,4272,1817,11245.000533570463
1735562979858,-211,-18,948,971.3645041898535,-10199,4293,5054,12165.211301083102
1735562979888,-250,-24,964,996.178698828679,-10141,4295,8316,13800.100072100926
1735562979918,-250,-24,964,996.178698828679,-10081,4273,11599,15950.607856755805
1735562979948,-250,-24,964,996.178698828679,-10059,4236,14857,18435.227853216245
1735562979978,-254,5,993,1024.982926687074,-10072,4197,-17905,20967.80908917286
1735562980008,-254,5,993,1024.982926687074,-10127,4175,-14674,18311.554548972625
1735562980038,-254,5,993,1024.982926687074,-10180,4177,-11449,15879.525496689124
1735562980068,-254,5,993,1024.982926687074,-10214,4196,-8216,13763.53399385492
1735562980098,-205,4,949,970.8975229137213,-10247,4215,-5007,12158.83559392099
1735562980128,-205,4,949,970.8975229137213,-10265,4243,-1799,11252.0964713248
1735562980159,-205,4,949,970.8975229137213,-10256,4271,1428,11201.167840899448
1735562980188,-280,32,860,904.9994475136435,-10244,4266,4652,12032.431009567435
1735562980218,-280,32,860,904.9994475136435,-10233,4249,7900,13608.02300115634
1735562980247,-280,32,860,904.9994475136435,-10239,4232,11135,15707.806021211238
1735562980277,-230,32,957,984.77053164684,-10243,4229,14374,18149.803470010356
1735562980306,-230,32,957,984.77053164684,-10254,4241,17584,20792.490302991606
1735562980338,-230,32,957,984.77053164684,-10253,4254,-15196,18818.579675416528
1735562980368,-230,32,957,984.77053164684,-10242,4264,-11969,16319.841328885523
1735562980398,-229,19,968,994.8999949743693,-10208,4258,-8708,14077.04130845683
1735562980428,-229,19,968,994.8999949743693,-10187,4241,-5458,12310.597629684758
1735562980458,-229,19,968,994.8999949743693,-10187,4221,-2223,11248.712770801822
1735562980488,-243,14,942,972.9383330920824,-10199,4204,1011,11077.695518473145
1735562980518,-243,14,942,972.9383330920824,-10211,4193,4250,11828.282631050037
1735562980578,-243,14,942,972.9383330920824,-10228,4188,7484,13347.718306886762
1735562980579,-250,10,972,1003.6852096150466,-10247,4191,10716,15407.73007292119
1735562980608,-250,10,972,1003.6852096150466,-10258,4201,13957,17823.378299301174
1735562980638,-250,10,972,1003.6852096150466,-10257,4212,17206,20469.32898265109
1735562980668,-250,10,972,1003.6852096150466,-10247,4221,-15536,19083.635555103225
1735562980698,-230,67,867,899.4876319327576,-10308,4214,-12357,16634.54565054303
1735562980726,-230,67,867,899.4876319327576,-10372,4235,-9178,14482.72394958904
1735562980758,-230,67,867,899.4876319327576,-10398,4273,-5977,12731.907241258083
1735562980788,-236,16,937,966.3958816137412,-10326,4327,-2688,11514.102179501448
1735562980818,-236,16,937,966.3958816137412,-10186,4339,660,11091.308173520381
1735562980848,-236,16,937,966.3958816137412,-10084,4301,3994,11667.805834860297
1735562980878,-249,22,959,991.0428850458491,-10053,4232,7276,13111.5525015156
1735562980908,-249,22,959,991.0428850458491,-10092,4161,10504,15149.13862237718
1735562980938,-249,22,959,991.0428850458491,-10171,4116,13692,17545.98418442237
1735562980968,-249,22,959,991.0428850458491,-10258,4107,16865,20162.39663333702
1735562980998,-245,45,998,1028.6175188086193,-10335,4133,-15941,19442.46370705112
1735562981028,-245,45,998,1028.6175188086193,-10372,4183,-12721,16938.114239784783
1735562981058,-245,45,998,1028.6175188086193,-10358,4236,-9463,14655.382253629552
1735562981088,-234,-13,979,1006.6608167600446,-10289,4278,-6181,12742.43171455119
1735562981118,-234,-13,979,1006.6608167600446,-10187,4280,-2894,11422.285454321302
1735562981148,-234,-13,979,1006.6608167600446,-10117,4247,377,10978.744327107723
1735562981178,-251,-4,985,1016.485120402655,-10101,4198,3621,11522.371544087615
1735562981207,-251,-4,985,1016.485120402655,-10126,4159,6858,12917.63604534514
1735562981238,-251,-4,985,1016.485120402655,-10172,4136,10075,14902.406013795222
1735562981268,-251,-4,985,1016.485120402655,-10220,4134,13284,17262.76374164925
1735562981298,-244,36,937,968.9174371431242,-10282,4156,16490,19872.391904348104
1735562981328,-244,36,937,968.9174371431242,-10317,4200,-16280,19726.0966488558
1735562981358,-244,36,937,968.9174371431242,-10305,4247,-13019,17138.389510102752
1735562981388,-256,-34,922,957.4842035250504,-10231,4282,-9733,14756.021618308914
1735562981418,-256,-34,922,957.4842035250504,-10114,4273,-6433,12725.368914102255
1735562981448,-256,-34,922,957.4842035250504,-10044,4225,-3159,11345.124150929332
1735562981478,-286,29,950,992.5406792671018,-10034,4159,71,10862.01997788625
1735562981508,-286,29,950,992.5406792671018,-10105,4105,3291,11392.66127820888
1735562981538,-286,29,950,992.5406792671018,-10193,4087,6488,12755.193530480045
1735562981568,-286,29,950,992.5406792671018,-10265,4102,9687,14698.11545743195
1735562981598,-261,-15,968,1002.6814050335231,-10295,4155,12899,17018.673596964014
1735562981629,-261,-15,968,1002.6814050335231,-10272,4205,16138,19586.501806090848
1735562981658,-261,-15,968,1002.6814050335231,-10218,4236,-16593,19941.88729784621
1735562981688,-275,-17,1029,1065.248797230018,-10142,4255,-13268,17233.833380881922
1735562981718,-275,-17,1029,1065.248797230018,-10061,4248,-9909,14746.440451851424
1735562981748,-275,-17,1029,1065.248797230018,-10014,4215,-6567,12695.34993609865
1735562981778,-288,41,949,992.5855126889572,-10022,4169,-3271,11336.687611467469
1735562981808,-288,41,949,992.5855126889572,-10121,4145,-21,10936.914875777355
1735562981838,-288,41,949,992.5855126889572,-10205,4161,3229,11484.005703586185
1735562981868,-288,41,949,992.5855126889572,-10249,4202,6502,12844.251982891024
1735562981898,-261,-44,967,1002.5696983252586,-10190,4246,9767,14739.70505132311
1735562981928,-261,-44,967,1002.5696983252586,-10105,4253,13039,17035.684752894438
1735562981958,-261,-44,967,1002.5696983252586,-10044,4230,16302,19609.437523804703
1735562981989,-268,2,955,991.8936434920832,-10043,4180,-16465,19733.992854969823
1735562982018,-268,2,955,991.8936434920832,-10105,4144,-13263,17181.121325454867
1735562982047,-268,2,955,991.8936434920832,-10174,4135,-10075,14903.493751466465
1735562982077,-275,0,930,969.8066817670416,-10218,4153,-6881,13000.118999455352
1735562982108,-275,0,930,969.8066817670416,-10208,4181,-3657,11621.431667397954
1735562982138,-275,0,930,969.8066817670416,-10180,4200,-417,11020.267192768059
1735562982168,-275,0,930,969.8066817670416,-10146,4206,2831,11342.235802521476
1735562982198,-237,-38,954,983.7321789999553,-10104,4200,6078,12516.904569421307
1735562982228,-237,-38,954,983.7321789999553,-10081,4179,9299,14337.433626699027
1735562982258,-237,-38,954,983.7321789999553,-10082,4154,12503,16589.980379735232
1735562982288,-281,-25,964,1004.4311823116605,-10100,4135,15697,19118.15979638208
1735562982318,-281,-25,964,1004.4311823116605,-10114,4126,-17090,20282.62734460208
1735562982348,-281,-25,964,1004.4311823116605,-10131,4123,-13882,17673.31926945247
1735562982378,-230,20,876,905.9116954758891,-10153,4124,-10687,15306.951166055243
1735562982408,-230,20,876,905.9116954758891,-10256,4139,-7575,13405.128943803562
1735562982438,-230,20,876,905.9116954758891,-10315,4186,-4439,11984.429147856814
1735562982468,-230,20,876,905.9116954758891,-10319,4243,-1265,11228.759281416626
1735562982498,-223,-1,945,970.9557147470733,-10262,4298,1937,11293.069423323315
1735562982528,-223,-1,945,970.9557147470733,-10177,4321,5164,12202.838440297404
1735562982558,-223,-1,945,970.9557147470733,-10103,4311,8395,13825.026401421446
1735562982588,-273,-11,1022,1057.8912987637245,-10019,4281,11677,15970.587058715155
1735562982618,-273,-11,1022,1057.8912987637245,-9947,4222,14989,18478.04681236629
1735562982648,-273,-11,1022,1057.8912987637245,-9946,4151,-17748,20764.036722179048
1735562982678,-254,-33,880,916.5178667107368,-10008,4094,-14539,18119.145150917026
1735562982708,-254,-33,880,916.5178667107368,-10108,4067,-11396,15766.45074200278
1735562982738,-254,-33,880,916.5178667107368,-10194,4079,-8255,13736.84468864666
1735562982768,-254,-16,970,1002.8319899165563,-10253,4118,-5097,12168.045940084217
1735562982798,-254,-16,970,1002.8319899165563,-10290,4176,-1911,11268.318286239522
1735562982828,-254,-16,970,1002.8319899165563,-10270,4236,1317,11187.094573659419
1735562982858,-254,-16,970,1002.8319899165563,-10209,4277,4583,11979.995784640327
1735562982888,-243,-18,892,924.682107537504,-10150,4287,7823,13512.96407158696
1735562982918,-243,-18,892,924.682107537504,-10105,4274,11055,15575.337107106221
1735562982948,-243,-18,892,924.682107537504,-10085,4249,14273,17985.542944264984
1735562982978,-259,22,896,932.9421203911849,-10081,4219,17483,20617.512240811207
1735562983011,-259,22,896,932.9421203911849,-10106,4192,-15286,18798.029045620715
1735562983040,-259,22,896,932.9421203911849,-10142,4179,-12070,16309.78555959581
1735562983067,-228,-14,933,960.5566094718208,-10167,4180,-8857,14116.895480239273
1735562983098,-228,-14,933,960.5566094718208,-10163,4177,-5679,12368.70805702843
1735562983128,-228,-14,933,960.5566094718208,-10163,4172,-2504,11267.7490653635
1735562983171,-228,-14,933,960.5566094718208,-10166,4169,668,11007.921738457264
1735562983187,-265,-21,937,973.9789525446636,-10137,4157,3873,11620.651745922
1735562983217,-265,-21,937,973.9789525446636,-10118,4135,7079,13022.457141415363
1735562983248,-265,-21,937,973.9789525446636,-10121,4110,10268,14991.950006586869
1735562983277,-278,0,1014,1051.4180900098686,-10134,4095,13489,17361.45448975978
1735562983308,-278,0,1014,1051.4180900098686,-10152,4091,16734,19995.653052601207
1735562983338,-278,0,1014,1051.4180900098686,-10167,4094,-16019,19409.71627819428
1735562983367,-257,-10,998,1030.608072935585,-10185,4101,-12777,16846.48791291526
1735562983398,-257,-10,998,1030.608072935585,-10218,4115,-9565,14588.693361641404
1735562983428,-257,-10,998,1030.608072935585,-10229,4138,-6340,12726.000353606785
1735562983458,-257,-10,998,1030.608072935585,-10219,4160,-3100,11460.521846757241
1735562983488,-264,-36,1020,1054.2257822686752,-10202,4186,167,11028.657624570635
1735562983518,-264,-36,1020,1054.2257822686752,-10164,4198,3452,11525.901439800706
1735562983548,-264,-36,1020,1054.2257822686752,-10129,4195,6739,12868.907762510384
1735562983578,-233,-19,973,1000.6892624586316,-10155,4172,9944,14812.587383708493
1735562983607,-233,-19,973,1000.6892624586316,-10230,4164,13082,17121.054874043246
1735562983637,-233,-19,973,1000.6892624586316,-10286,4183,16227,19662.523083266806
1735562983668,-293,6,957,1000.8666244810045,-10306,4219,-16598,19987.676228116165
1735562983698,-293,6,957,1000.8666244810045,-10254,4264,-13304,17329.819041178704
1735562983728,-293,6,957,1000.8666244810045,-10183,4282,-9987,14891.916666433504
1735562983786,-293,6,957,1000.8666244810045,-10122,4272,-6668,12851.734980149567
1735562983789,-241,-13,950,980.1785551622725,-10088,4240,-3390,11455.891235517209
1735562983818,-241,-13,950,980.1785551622725,-10099,4203,-160,10939.86334466752
1735562983848,-241,-13,950,980.1785551622725,-10134,4176,3048,11376.609160905546
1735562983878,-225,-6,905,932.5695684505258,-10177,4169,6251,12650.17355612167
1735562983908,-225,-6,905,932.5695684505258,-10218,4180,9449,14531.466718814037
1735562983938,-225,-6,905,932.5695684505258,-10237,4202,12660,16814.534575776994
1735562983968,-286,29,956,998.2850294379857,-10230,4229,15896,19370.60032626764
1735562983998,-286,29,956,998.2850294379857,-10178,4256,-16762,20066.635592445487
1735562984028,-286,29,956,998.2850294379857,-10121,4261,-13411,17333.369060860616
1735562984058,-286,29,956,998.2850294379857,-10081,4244,-10066,14864.8058514062
1735562984088,-282,-15,1020,1058.3709179677983,-10046,4215,-6783,12833.449653152498
1735562984118,-282,-15,1020,1058.3709179677983,-10038,4174,-3529,11429.678954371378
1735562984148,-282,-15,1020,1058.3709179677983,-10063,4139,-303,10885.177949854564
1735562984178,-248,4,954,985.715983435391,-10122,4120,2890,11304.042816620964
1735562984208,-248,4,954,985.715983435391,-10200,4129,6055,12559.92300931817
1735562984238,-248,4,954,985.715983435391,-10246,4164,9237,14409.773801139281
1735562984268,-251,-46,916,950.8801186269487,-10252,4212,12444,16664.26067967013
1735562984298,-251,-46,916,950.8801186269487,-10177,4250,15685,19174.2810556224
1735562984328,-251,-46,916,950.8801186269487,-10096,4255,-17060,20275.05464850835
1735562984358,-251,-46,916,950.8801186269487,-10039,4232,-13814,17593.12197991022
1735562984388,-256,-54,940,975.7315204501697,-10013,4205,-10575,15158.259101888976
1735562984418,-256,-54,940,975.7315204501697,-10014,4173,-7356,13107.435332665196
1735562984448,-256,-54,940,975.7315204501697,-10039,4149,-4157,11630.83707219734
1735562984477,-302,-15,958,1004.5859843736623,-10086,4141,-953,10944.564221566796
1735562984508,-302,-15,958,1004.5859843736623,-10124,4159,2289,11181.778838807357
1735562984538,-302,-15,958,1004.5859843736623,-10135,4185,5549,12289.176172551193
1735562984568,-281,-45,968,1008.964816036714,-10125,4217,8822,14075.737920265496
1735562984598,-281,-45,968,1008.964816036714,-10086,4245,12082,16300.986013122028
1735562984628,-281,-45,968,1008.964816036714,-10038,4255,15355,18831.95406748859
1735562984658,-281,-45,968,1008.964816036714,-9999,4246,-17373,20489.74489836318
1735562984688,-286,-63,893,939.7946584227855,-9998,4224,-14139,17824.519656922035
1735562984718,-286,-63,893,939.7946584227855,-10010,4203,-10918,15397.013768909866
1735562984748,-286,-63,893,939.7946584227855,-10034,4191,-7709,13329.45302703753
1735562984778,-255,-32,829,867.9228076274986,-10061,4181,-4521,11795.92823816761
1735562984808,-255,-32,829,867.9228076274986,-10110,4183,-1360,11025.388383181791
1735562984838,-255,-32,829,867.9228076274986,-10142,4202,1808,11125.908142709071
1735562984868,-264,-34,914,951.9705877809461,-10141,4226,4996,12068.925925698608
1735562984898,-264,-34,914,951.9705877809461,-10100,4241,8211,13690.01833453849
1735562984928,-264,-34,914,951.9705877809461,-10061,4239,11430,15806.256419532108
1735562984958,-264,-34,914,951.9705877809461,-10036,4224,14641,18246.15995216528
1735562984988,-257,-34,939,974.1283283017694,-10007,4201,17859,20898.14180734737
1735562985018,-257,-34,939,974.1283283017694,-10008,4172,-14944,18463.17372501272
1735562985048,-257,-34,939,974.1283283017694,-10030,4150,-11766,16008.190278729198
1735562985076,-284,-30,990,1030.3669249349962,-10039,4143,-8554,13824.50310137764
1735562985108,-284,-30,990,1030.3669249349962,-10031,4141,-5306,12079.837664472152
1735562985138,-284,-30,990,1030.3669249349962,-10027,4136,-2060,11040.41779100773
1735562985168,-277,-28,973,1012.0484178140886,-10038,4128,1170,10916.53461497741
1735562985201,-277,-28,973,1012.0484178140886,-10079,4123,4368,11733.064135169465
1735562985228,-277,-28,973,1012.0484178140886,-10110,4134,7569,13288.78538467681
1735562985258,-277,-28,973,1012.0484178140886,-10124,4152,10781,15361.134105267098
1735562985288,-284,-45,964,1005.9706755169358,-10116,4173,13998,17767.706351693232
1735562985318,-284,-45,964,1005.9706755169358,-10090,4185,17230,20400.863339574626
1735562985348,-284,-45,964,1005.9706755169358,-10064,4186,-15533,18975.794607868203
1735562985378,-223,-34,920,947.2512866182869,-10088,4177,-12343,16479.220916050614
1735562985408,-223,-34,920,947.2512866182869,-10154,4186,-9209,14332.898974038713
1735562985438,-223,-34,920,947.2512866182869,-10192,4215,-6060,12584.382742113337
1735562985468,-282,9,906,948.9156969931523,-10199,4248,-2892,11420.541537072575
1735562985498,-282,9,906,948.9156969931523,-10177,4277,352,11044.816069088702
1735562985528,-282,9,906,948.9156969931523,-10139,4293,3614,11588.36338746762
1735562985558,-282,9,906,948.9156969931523,-10100,4293,6881,12953.30112365184
1735562985588,-259,-25,953,987.884102514055,-10022,4282,10178,14911.998256437666
1735562985619,-259,-25,953,987.884102514055,-9977,4245,13444,17271.412507377616
1735562985648,-259,-25,953,987.884102514055,-9977,4200,16680,19884.7411097052
1735562985678,-255,3,974,1006.8316641822505,-10028,4152,-16134,19444.943918664307
1735562985708,-255,3,974,1006.8316641822505,-10120,4130,-12984,16972.199503894597
1735562985738,-255,3,974,1006.8316641822505,-10198,4143,-9835,14761.127260477095
1735562985768,-259,-28,932,967.72361756857,-10241,4179,-6671,12916.824803333055
