Timestamp,Acc_X,Acc_Y,Acc_Z,Acc_Betrag,Ori_X,Ori_Y,Ori_Z,Ori_Betrag
1735576891225,229,-48,970,997.8201240704659,9562,-4376,-3435,11062.569547803982
1735576891225,229,-48,970,997.8201240704659,9536,-4468,-4998,11656.685806866375
1735576891232,102,-79,958,966.6483331594794,9554,-4553,-6597,12471.132025602166
1735576891261,102,-79,958,966.6483331594794,9746,-4576,-8415,13665.157042639503
1735576891292,102,-79,958,966.6483331594794,9908,-4562,-10229,14953.686802925893
1735576891321,102,-79,958,966.6483331594794,10035,-4516,-12037,16309.041970637025
1735576891352,220,-6,1104,1125.722878864954,10047,-4499,-13702,17576.348141750037
1735576891381,220,-6,1104,1125.722878864954,10008,-4496,-15321,18844.28616318485
1735576891412,220,-6,1104,1125.722878864954,9975,-4501,-16940,20167.380246328474
1735576891441,152,-215,1000,1034.0836523221901,10007,-4482,17366,20537.9241648225
1735576891472,152,-215,1000,1034.0836523221901,10157,-4414,15604,19134.598532501277
1735576891502,152,-215,1000,1034.0836523221901,10259,-4317,13855,17772.017189953425
1735576891561,203,12,919,941.2300462692423,10298,-4211,12158,16480.23934899005
1735576891562,203,12,919,941.2300462692423,10059,-4163,10603,15196.63314685197
1735576891592,203,12,919,941.2300462692423,9853,-4157,9043,14004.93152428815
1735576891622,203,12,919,941.2300462692423,9683,-4189,7479,12932.27168752652
1735576891652,217,-86,1034,1060.0193394462196,9652,-4221,5819,12034.895346449839
1735576891682,217,-86,1034,1060.0193394462196,9656,-4253,4162,11342.33613502968
1735576891712,217,-86,1034,1060.0193394462196,9667,-4285,2502,10866.099484175544
1735576891742,114,-174,1019,1040.0158652636026,9734,-4316,807,10678.476529917552
1735576891772,114,-174,1019,1040.0158652636026,9888,-4313,-964,10830.688297610637
1735576891802,114,-174,1019,1040.0158652636026,10013,-4280,-2731,11226.617032748556
1735576891833,289,-131,959,1010.1301896290398,10073,-4227,-4448,11794.810808147793
1735576891863,289,-131,959,1010.1301896290398,9899,-4228,-5876,12263.505249315956
1735576891892,289,-131,959,1010.1301896290398,9754,-4257,-7305,12908.35349686396
1735576891922,78,9,975,978.1564292075169,9666,-4301,-8771,13742.656147921332
1735576891952,78,9,975,978.1564292075169,9691,-4307,-10554,14961.70598561541
1735576891982,78,9,975,978.1564292075169,9713,-4308,-12336,16281.220132410224
1735576892012,78,9,975,978.1564292075169,9731,-4305,-14118,17678.89447901084
1735576892042,127,-167,915,938.7454394030365,9781,-4342,-15779,19065.617377887345
1735576892072,127,-167,915,938.7454394030365,9865,-4364,-17422,20491.188472121376
1735576892132,127,-167,915,938.7454394030365,9939,-4369,16934,20115.472601954945
1735576892133,0,-45,948,949.0674370138299,10017,-4338,15254,18757.479814729908
1735576892163,0,-45,948,949.0674370138299,10084,-4223,13362,17264.525159992092
1735576892193,0,-45,948,949.0674370138299,10104,-4097,11485,15836.080638844955
1735576892222,222,-118,1063,1092.326416415899,10092,-3990,9638,14514.11754120794
1735576892252,222,-118,1063,1092.326416415899,9998,-3976,8072,13450.864804911243
1735576892282,222,-118,1063,1092.326416415899,9917,-3980,6505,12510.088488895672
1735576892312,222,-118,1063,1092.326416415899,9851,-3999,4936,11721.702009520632
1735576892342,92,60,915,921.5687711722875,9733,-4008,3253,11017.139465396633
1735576892372,92,60,915,921.5687711722875,9620,-4041,1519,10544.261093125493
1735576892402,92,60,915,921.5687711722875,9537,-4095,-218,10381.277281722128
1735576892432,181,-89,982,1002.4998753117129,9519,-4149,-1983,10571.558588968799
1735576892462,181,-89,982,1002.4998753117129,9563,-4192,-3713,11081.976448269505
1735576892492,181,-89,982,1002.4998753117129,9610,-4225,-5445,11825.850920758303
1735576892521,75,14,1002,1004.9004925862063,9654,-4249,-7160,12748.306436542856
1735576892552,75,14,1002,1004.9004925862063,9683,-4256,-8959,13861.374607159278
1735576892582,75,14,1002,1004.9004925862063,9708,-4257,-10759,15103.75430149736
1735576892612,75,14,1002,1004.9004925862063,9729,-4253,-12557,16444.442799924844
1735576892642,196,85,998,1020.6101116489098,9587,-4317,-14155,17632.670898080076
1735576892672,196,85,998,1020.6101116489098,9437,-4419,-15711,18852.58738210753
1735576892702,196,85,998,1020.6101116489098,9335,-4545,-17271,20151.592765833673
1735576892735,21,-125,971,979.2379690351064,9433,-4641,17002,19989.706701199997
1735576892762,21,-125,971,979.2379690351064,9758,-4650,15086,18558.783904124753
1735576892792,21,-125,971,979.2379690351064,10021,-4592,13181,17182.714162785807
1735576892822,168,-57,993,1008.7229550277916,10217,-4489,11295,15878.137012886618
1735576892852,168,-57,993,1008.7229550277916,10192,-4417,9592,14676.28076182791
1735576892882,168,-57,993,1008.7229550277916,10153,-4349,7895,13576.753477912163
1735576892912,168,-57,993,1008.7229550277916,10104,-4289,6201,12607.09078257153
1735576892942,82,-97,940,948.542566256254,10127,-4202,4432,11826.054160200689
1735576892972,82,-97,940,948.542566256254,10148,-4100,2640,11258.84114818217
1735576893003,82,-97,940,948.542566256254,10137,-3994,856,10929.022874895998
1735576893033,142,38,948,959.3289321186973,10029,-3908,-880,10799.430772036088
1735576893062,142,38,948,959.3289321186973,9821,-3877,-2567,10866.124378084396
1735576893092,142,38,948,959.3289321186973,9643,-3888,-4258,11235.41530162548
1735576893122,99,-23,963,968.348594257254,9494,-3932,-5939,11868.79863339167
1735576893152,99,-23,963,968.348594257254,9446,-3985,-7646,12789.388452932377
1735576893182,99,-23,963,968.348594257254,9420,-4048,-9355,13879.435471228648
1735576893212,99,-23,963,968.348594257254,9413,-4113,-11069,15101.129063748842
1735576893242,100,-6,903,908.5400376428107,9434,-4196,-12808,16451.49342764966
1735576893272,100,-6,903,908.5400376428107,9468,-4272,-14552,17878.8621561888
1735576893302,100,-6,903,908.5400376428107,9517,-4340,-16302,19369.153130686947
1735576893331,141,7,1037,1046.565334797594,9649,-4383,17895,20797.714177284004
1735576893362,141,7,1037,1046.565334797594,9783,-4393,16091,19337.161606606074
1735576893392,141,7,1037,1046.565334797594,9893,-4376,14290,17922.748812612423
1735576893422,105,-45,1017,1023.3958178534833,9932,-4340,12535,16571.25369427431
1735576893452,105,-45,1017,1023.3958178534833,9941,-4297,10821,15309.53072435599
1735576893483,105,-45,1017,1023.3958178534833,9938,-4254,9110,14136.918334630076
1735576893512,105,-45,1017,1023.3958178534833,9924,-4211,7403,13077.564987412603
1735576893542,161,-1,951,964.5325292596409,9895,-4177,5673,12146.65727679842
1735576893572,161,-1,951,964.5325292596409,9842,-4158,3964,11395.930150716087
1735576893603,161,-1,951,964.5325292596409,9793,-4150,2256,10872.666876162444
1735576893633,174,61,935,953.0068205422247,9694,-4159,596,10565.326923479462
1735576893663,174,61,935,953.0068205422247,9561,-4200,-1033,10493.798644914052
1735576893692,174,61,935,953.0068205422247,9461,-4266,-2666,10715.261686025218
1735576893722,164,-141,964,987.9640681725222,9398,-4347,-4303,11213.145053908827
1735576893752,164,-141,964,987.9640681725222,9543,-4412,-5952,12081.427771583953
1735576893782,164,-141,964,987.9640681725222,9678,-4448,-7605,13087.5671153962
1735576893812,164,-141,964,987.9640681725222,9798,-4459,-9258,14198.381914852129
1735576893842,143,-65,1041,1052.7844033799133,9965,-4442,-11018,15505.770313015732
1735576893873,143,-65,1041,1052.7844033799133,10082,-4395,-12780,16860.935590885816
1735576893902,143,-65,1041,1052.7844033799133,10163,-4326,-14533,18254.011449541715
1735576893932,176,-236,1049,1089.5287972330057,10234,-4245,-16254,19670.976005272336
1735576893962,176,-236,1049,1089.5287972330057,10337,-4142,-17933,21109.292314049755
1735576893992,176,-236,1049,1089.5287972330057,10394,-4020,16397,19825.671363159432
1735576894022,178,-15,900,917.5559928418538,10390,-3877,14737,18443.492022933184
1735576894052,178,-15,900,917.5559928418538,10137,-3748,13081,16968.171203756756
1735576894082,178,-15,900,917.5559928418538,9903,-3672,11420,15555.365408758484
1735576894112,178,-15,900,917.5559928418538,9696,-3645,9753,14227.41895074437
1735576894142,186,-48,962,980.991335333804,9533,-3687,8142,13067.678523747054
1735576894173,186,-48,962,980.991335333804,9414,-3758,6531,12058.188960204596
1735576894203,186,-48,962,980.991335333804,9332,-3851,4918,11229.565842008318
1735576894233,56,-124,1011,1020.1142092922734,9385,-3937,3184,10663.772784526122
1735576894262,56,-124,1011,1020.1142092922734,9564,-3973,1316,10439.66862500913
1735576894292,56,-124,1011,1020.1142092922734,9719,-3967,-550,10511.829051121407
1735576894322,198,-97,943,968.4327545059595,9837,-3933,-2410,10864.76681756217
1735576894352,198,-97,943,968.4327545059595,9807,-3921,-4106,11331.845657261663
1735576894382,198,-97,943,968.4327545059595,9780,-3915,-5802,12026.588418998965
1735576894412,198,-97,943,968.4327545059595,9756,-3914,-7499,12912.549438433914
1735576894442,105,-31,928,934.4356585661743,9709,-3897,-9230,13951.494185211848
1735576894472,105,-31,928,934.4356585661743,9667,-3886,-10995,15147.340030513607
1735576894503,105,-31,928,934.4356585661743,9631,-3885,-12760,16451.959944030983
1735576894533,131,-83,945,957.6403291424186,9631,-3916,-14487,17831.555905192345
1735576894562,131,-83,945,957.6403291424186,9667,-3956,-16182,19260.268663754407
1735576894592,131,-83,945,957.6403291424186,9706,-3988,-17879,20730.876030693926
1735576894622,262,-41,941,977.6533127852633,9750,-4013,16406,19501.884652514997
1735576894652,262,-41,941,977.6533127852633,9681,-4066,14805,18150.54109386274
1735576894682,262,-41,941,977.6533127852633,9636,-4131,13201,16857.75957830696
1735576894712,262,-41,941,977.6533127852633,9614,-4204,11593,15636.504116969369
1735576894742,72,-117,968,977.6998516927371,9704,-4248,9902,14500.438751982645
1735576894772,72,-117,968,977.6998516927371,9849,-4253,8137,13464.827477543111
1735576894802,72,-117,968,977.6998516927371,9968,-4228,6375,12564.936649263298
1735576894832,221,-123,985,1016.9537845939706,10047,-4204,4643,11839.47946490892
1735576894862,221,-123,985,1016.9537845939706,10055,-4197,3010,11303.89021531968
1735576894896,221,-123,985,1016.9537845939706,10061,-4188,1377,10984.497894760598
1735576894922,185,-80,984,1004.4306845173538,10052,-4170,-265,10885.85453696677
1735576894952,185,-80,984,1004.4306845173538,10007,-4134,-1968,11004.682139889366
1735576894982,185,-80,984,1004.4306845173538,9962,-4107,-3671,11383.546635385652
1735576895012,185,-80,984,1004.4306845173538,9918,-4090,-5373,11998.49794765995
1735576895042,145,-100,958,974.0580064862667,9900,-4103,-7038,12821.000467982209
1735576895072,145,-100,958,974.0580064862667,9901,-4114,-8719,13819.39788847546
1735576895103,145,-100,958,974.0580064862667,9905,-4124,-10400,14942.436247145242
1735576895133,220,-130,880,916.3514609580758,9908,-4130,-12061,16145.99284652387
1735576895162,220,-130,880,916.3514609580758,9897,-4140,-13670,17376.97065083555
1735576895192,220,-130,880,916.3514609580758,9892,-4152,-15281,18670.825611097116
1735576895222,211,-158,1070,1101.9913792766258,9922,-4165,-16904,20038.42621065836
1735576895252,211,-158,1070,1101.9913792766258,10039,-4161,17438,20547.001873752775
1735576895282,211,-158,1070,1101.9913792766258,10134,-4135,15784,19207.572386951975
1735576895312,211,-158,1070,1101.9913792766258,10204,-4090,14134,17905.855801943675
1735576895342,97,-175,934,955.1910803603644,10242,-4030,12424,16598.049282972985
1735576895372,97,-175,934,955.1910803603644,10283,-3948,10678,15341.006388108963
1735576895402,97,-175,934,955.1910803603644,10294,-3859,8939,14169.12269690682
1735576895432,235,-223,924,979.1475884666213,10260,-3785,7248,13119.73052314719
1735576895462,235,-223,924,979.1475884666213,10186,-3744,5653,12236.361428137043
1735576895492,235,-223,924,979.1475884666213,10117,-3718,4057,11516.79043831223
1735576895522,244,-251,977,1037.8179031024663,10052,-3707,2476,10996.141550562179
1735576895552,244,-251,977,1037.8179031024663,10011,-3712,933,10717.721492929362
1735576895581,244,-251,977,1037.8179031024663,9977,-3725,-609,10667.100590132259
1735576895612,279,-92,857,905.9547450066145,9937,-3749,-2149,10835.920403915858
1735576895642,279,-92,857,905.9547450066145,9732,-3821,-3644,11072.063990060751
1735576895672,279,-92,857,905.9547450066145,9575,-3930,-5140,11556.172593034426
1735576895702,279,-92,857,905.9547450066145,9466,-4066,-6638,12255.633643349494
1735576895732,186,-147,1073,1098.8785192185712,9514,-4209,-8245,13274.483116114165
1735576895762,186,-147,1073,1098.8785192185712,9621,-4330,-9898,14466.614842457098
1735576895792,186,-147,1073,1098.8785192185712,9741,-4429,-11559,15751.6222339161
1735576895822,324,-129,872,939.1490829468983,9870,-4500,-13242,17117.752889909352
1735576895852,324,-129,872,939.1490829468983,9877,-4574,-14788,18361.959290881787
1735576895882,324,-129,872,939.1490829468983,9899,-4646,-16339,19660.580815428624
1735576895912,332,-324,1015,1115.9861110246848,9926,-4718,-17873,20981.63790079316
1735576895942,332,-324,1015,1115.9861110246848,10102,-4777,16641,20044.775229470648
1735576895972,332,-324,1015,1115.9861110246848,10262,-4808,15153,18921.916314158036
1735576896004,332,-324,1015,1115.9861110246848,10402,-4814,13665,17835.594327075283
1735576896031,356,-28,959,1023.3283930391065,10316,-4812,12187,16676.275633366102
1735576896062,356,-28,959,1023.3283930391065,10162,-4840,10716,15541.058522507403
1735576896092,356,-28,959,1023.3283930391065,10040,-4892,9242,14496.476399456524
1735576896122,368,-197,1052,1131.7848735515067,9990,-4954,7728,13567.026203262085
1735576896152,368,-197,1052,1131.7848735515067,10105,-5007,6208,12873.241161416965
1735576896182,368,-197,1052,1131.7848735515067,10213,-5041,4684,12314.905846168698
1735576896212,226,-94,977,1007.1946187306602,10305,-5059,3173,11910.26595001136
1735576896242,226,-94,977,1007.1946187306602,10426,-5028,1502,11672.114804096129
1735576896272,226,-94,977,1007.1946187306602,10515,-4977,-159,11634.476137755408
1735576896302,226,-94,977,1007.1946187306602,10573,-4911,-1812,11797.863959208888
1735576896332,116,-179,969,992.1985688358959,10716,-4767,-3574,12260.930674300382
1735576896362,116,-179,969,992.1985688358959,10833,-4577,-5349,12919.544070902812
1735576896392,116,-179,969,992.1985688358959,10872,-4363,-7095,13695.808774950094
1735576896422,236,-184,1040,1082.1977638121416,10806,-4179,-8737,14510.990524426648
1735576896452,236,-184,1040,1082.1977638121416,10663,-4050,-10268,15347.113507106149
1735576896482,236,-184,1040,1082.1977638121416,10518,-3945,-11800,16292.063988334934
1735576896512,288,-152,889,946.7676589322218,10336,-3865,-13314,17292.59139053485
1735576896542,288,-152,889,946.7676589322218,10034,-3842,-14736,18237.09998875918
1735576896572,288,-152,889,946.7676589322218,9781,-3871,-16163,19284.583765277384
1735576896602,288,-152,889,946.7676589322218,9576,-3944,-17591,20413.18674288755
1735576896632,155,-140,846,871.40174431774,9599,-4016,16724,19696.73153089111
1735576896662,155,-140,846,871.40174431774,9661,-4072,14986,18289.240033418555
1735576896691,155,-140,846,871.40174431774,9725,-4115,13246,16940.052125067385
1735576896721,326,-209,1021,1091.9697798016207,9714,-4169,11647,15728.794168657685
1735576896752,326,-209,1021,1091.9697798016207,9650,-4256,10217,14684.111311209814
1735576896782,326,-209,1021,1091.9697798016207,9613,-4352,8785,13730.473334885437
1735576896812,159,-155,1075,1097.693490916294,9648,-4451,7307,12895.253157654564
1735576896842,159,-155,1075,1097.693490916294,9874,-4497,5537,12181.02023641698
1735576896872,159,-155,1075,1097.693490916294,10071,-4498,3767,11655.356451005691
1735576896903,159,-155,1075,1097.693490916294,10231,-4460,2003,11339.17854167576
1735576896932,169,-210,985,1021.2179003523195,10276,-4358,263,11165.012718308923
1735576896962,169,-210,985,1021.2179003523195,10297,-4246,-1462,11233.617805497925
1735576896992,169,-210,985,1021.2179003523195,10285,-4131,-3178,11530.224195565323
1735576897021,9,-46,972,973.1294877866974,10239,-4029,-4873,12033.955750292585
1735576897052,9,-46,972,973.1294877866974,10158,-3931,-6644,12758.544627033289
1735576897082,9,-46,972,973.1294877866974,10067,-3851,-8411,13671.854702270646
1735576897112,82,-171,888,908.0247793975669,9992,-3790,-10213,14782.06795411251
1735576897142,82,-171,888,908.0247793975669,10008,-3740,-12006,16071.45606346855
1735576897172,82,-171,888,908.0247793975669,10007,-3688,-13796,17437.631977995177
1735576897202,82,-171,888,908.0247793975669,9992,-3637,-15584,18866.07773226857
1735576897233,247,-131,920,961.545630742504,9882,-3621,-17238,20196.886121380197
1735576897262,247,-131,920,961.545630742504,9750,-3645,17162,20071.939841480194
1735576897292,247,-131,920,961.545630742504,9647,-3695,15562,18678.69047872468
1735576897322,217,-146,958,993.0604211225015,9565,-3768,13965,17340.942131268417
1735576897352,217,-146,958,993.0604211225015,9524,-3852,12353,16066.769712670932
1735576897382,217,-146,958,993.0604211225015,9509,-3943,10737,14874.525168891947
1735576897412,86,-177,977,996.6212921666886,9514,-4030,9113,13776.932350853727
1735576897442,86,-177,977,996.6212921666886,9644,-4073,7329,12779.292077419625
1735576897472,86,-177,977,996.6212921666886,9761,-4088,5544,11946.7485534768
1735576897503,86,-177,977,996.6212921666886,9860,-4079,3760,11313.507015952215
1735576897532,156,-164,954,980.4835541711038,9937,-4054,2015,10919.666203689561
1735576897562,156,-164,954,980.4835541711038,9976,-4021,298,10760.010269511828
1735576897592,156,-164,954,980.4835541711038,9999,-3981,-1414,10854.849515308815
1735576897622,190,-85,927,950.081049174227,9979,-3946,-3109,11172.163532637715
1735576897652,190,-85,927,950.081049174227,9900,-3932,-4777,11674.345934569525
1735576897682,190,-85,927,950.081049174227,9832,-3934,-6447,12397.918736626725
1735576897712,130,-151,987,1006.9111182224576,9784,-3946,-8126,13316.510353692516
1735576897742,130,-151,987,1006.9111182224576,9849,-3936,-9886,14499.237669615599
1735576897772,130,-151,987,1006.9111182224576,9900,-3912,-11643,15775.715292816361
1735576897802,130,-151,987,1006.9111182224576,9934,-3879,-13398,17124.175921777958
1735576897832,-21,-181,963,980.0872410147987,10001,-3802,-15253,18631.403972862594
1735576897862,-21,-181,963,980.0872410147987,10065,-3694,-17152,20227.233251238293
1735576897892,-21,-181,963,980.0872410147987,10086,-3574,16958,20051.798822050852
1735576897922,228,-162,930,971.1477745430918,10001,-3494,15202,18529.134923141988
1735576897952,228,-162,930,971.1477745430918,9814,-3490,13635,17158.319294149995
1735576897982,228,-162,930,971.1477745430918,9660,-3523,12066,15852.933009383469
1735576898012,34,-96,972,977.3208275689207,9553,-3580,10473,14620.531385691835
1735576898042,34,-96,972,977.3208275689207,9558,-3615,8630,13375.36874258052
1735576898072,34,-96,972,977.3208275689207,9571,-3649,6786,12286.945836944184
1735576898103,34,-96,972,977.3208275689207,9591,-3679,4940,11398.505252882942
1735576898132,96,-198,1065,1087.4948275739062,9675,-3712,3140,10827.934659943234
1735576898162,96,-198,1065,1087.4948275739062,9765,-3724,1361,10539.24674727753
1735576898192,96,-198,1065,1087.4948275739062,9842,-3716,-415,10528.335338504374
1735576898222,120,-127,940,956.1009360940925,9838,-3697,-2155,10728.377230504155
1735576898252,120,-127,940,956.1009360940925,9767,-3696,-3864,11134.864211116363
1735576898282,120,-127,940,956.1009360940925,9710,-3709,-5575,11794.973760038638
1735576898312,113,-71,905,914.7868604215957,9667,-3726,-7306,12677.207933926145
1735576898342,113,-71,905,914.7868604215957,9597,-3743,-9085,13734.980269370611
1735576898372,113,-71,905,914.7868604215957,9545,-3775,-10866,14947.494974075087
1735576898402,113,-71,905,914.7868604215957,9510,-3817,-12649,16279.029147955967
1735576898431,139,-208,940,972.7204120403766,9545,-3873,-14369,17679.799631217546
1735576898462,139,-208,940,972.7204120403766,9618,-3913,-16081,19141.997126736802
1735576898492,139,-208,940,972.7204120403766,9687,-3937,-17794,20638.90437983567
1735576898522,275,-186,1007,1060.3159906367534,9737,-3967,16554,19610.74129144536
1735576898552,275,-186,1007,1060.3159906367534,9729,-4014,15011,18332.914607339444
1735576898582,275,-186,1007,1060.3159906367534,9733,-4063,13465,17103.961032462626
1735576898612,119,-172,1008,1029.470252119992,9747,-4098,11896,15915.791811908071
1735576898642,119,-172,1008,1029.470252119992,9861,-4072,10107,14695.98428142872
1735576898672,119,-172,1008,1029.470252119992,9946,-4023,8323,13578.651405791372
1735576898702,119,-172,1008,1029.470252119992,10001,-3957,6546,12590.788934772912
1735576898731,59,-185,930,950.0557878356408,10022,-3873,4757,11750.304762005111
1735576898762,59,-185,930,950.0557878356408,10031,-3780,2954,11119.149113129115
1735576898792,59,-185,930,950.0557878356408,10012,-3686,1157,10731.513826110462
1735576898822,157,-165,907,935.1593447108359,9962,-3613,-612,10614.601122981494
1735576898852,157,-165,907,935.1593447108359,9867,-3575,-2317,10747.409129646085
1735576898882,157,-165,907,935.1593447108359,9781,-3558,-4024,11158.848551709983
1735576898911,90,-98,987,995.9282102641736,9714,-3556,-5730,11825.389295917492
1735576898942,90,-98,987,995.9282102641736,9657,-3556,-7499,12733.333656195458
1735576898972,90,-98,987,995.9282102641736,9610,-3568,-9270,13820.840206007737
1735576899002,90,-98,987,995.9282102641736,9575,-3591,-11043,15050.706129613985
1735576899032,90,-269,1018,1056.7804880863387,9621,-3625,-12803,16420.142356264758
1735576899062,90,-269,1018,1056.7804880863387,9710,-3636,-14564,17877.77089013057
1735576899092,90,-269,1018,1056.7804880863387,9784,-3628,-16323,19373.419135506258
1735576899122,135,-60,940,951.5382283439799,9743,-3601,17945,20734.422466034594
1735576899152,135,-60,940,951.5382283439799,9565,-3610,16251,19199.383479684966
1735576899182,135,-60,940,951.5382283439799,9422,-3657,14553,17718.282704596404
1735576899212,90,-88,993,1000.9460524923409,9329,-3729,12845,16307.351317733976
1735576899242,90,-88,993,1000.9460524923409,9345,-3800,11069,14976.374260814931
1735576899272,90,-88,993,1000.9460524923409,9376,-3865,9290,13753.243290220675
1735576899302,90,-88,993,1000.9460524923409,9419,-3921,7508,12667.354340982178
1735576899332,136,-161,944,967.2398875149846,9469,-3997,5833,11817.861862452108
1735576899362,136,-161,944,967.2398875149846,9537,-4061,4172,11173.70457816028
1735576899392,136,-161,944,967.2398875149846,9608,-4110,2508,10746.898529343245
1735576899422,187,-117,1019,1042.6020333761103,9682,-4157,855,10571.31959596341
1735576899452,187,-117,1019,1042.6020333761103,9721,-4203,-763,10618.15515991361
1735576899482,187,-117,1019,1042.6020333761103,9764,-4242,-2385,10909.559340321679
1735576899512,133,-93,938,951.9359222132549,9808,-4266,-4017,11425.056192421987
1735576899542,133,-93,938,951.9359222132549,9865,-4259,-5728,12176.505656385989
1735576899572,133,-93,938,951.9359222132549,9909,-4242,-7438,13096.056238425368
1735576899602,166,-46,889,905.5346487020803,9931,-4215,-9149,14145.500592061067
1735576899631,166,-46,889,905.5346487020803,9862,-4196,-10827,15234.480266815799
1735576899662,166,-46,889,905.5346487020803,9802,-4191,-12505,16432.246042461753
1735576899692,166,-46,889,905.5346487020803,9752,-4198,-14185,17718.32195779273
1735576899721,70,-45,936,939.6919708074556,9752,-4208,-15919,19136.962376511063
1735576899752,70,-45,936,939.6919708074556,9775,-4209,-17690,20644.670159632
1735576899782,70,-45,936,939.6919708074556,9793,-4205,16538,19674.61099996643
1735576899812,164,-102,948,967.4729970391938,9817,-4200,14767,18223.00134445476
1735576899842,164,-102,948,967.4729970391938,9836,-4208,13099,16912.656828541163
1735576899872,164,-102,948,967.4729970391938,9852,-4213,11431,15667.770549762337
1735576899902,119,-52,1005,1013.3558111542065,9888,-4206,9733,14498.078114012216
1735576899962,119,-52,1005,1013.3558111542065,9943,-4167,7927,13381.497188282035
1735576899963,119,-52,1005,1013.3558111542065,9976,-4117,6126,12409.598744520308
1735576899992,119,-52,1005,1013.3558111542065,9989,-4062,4330,11620.192124057157
1735576900022,79,-3,985,988.1674959236415,9960,-4003,2525,11027.294953886016
1735576900052,79,-3,985,988.1674959236415,9917,-3952,709,10698.966024808191
1735576900082,79,-3,985,988.1674959236415,9868,-3910,-1104,10671.660601799516
1735576900112,70,-105,1009,1016.8608557713292,9814,-3880,-2887,10940.921579099268
1735576900142,70,-105,1009,1016.8608557713292,9801,-3852,-4660,11515.776352465344
1735576900172,70,-105,1009,1016.8608557713292,9784,-3827,-6431,12317.887237671888
1735576900202,172,-160,933,962.1190155069174,9761,-3805,-8208,13308.884626444096
1735576900232,172,-160,933,962.1190155069174,9713,-3798,-9888,14371.489727930088
1735576900262,172,-160,933,962.1190155069174,9672,-3801,-11569,15551.107548981841
1735576900292,172,-160,933,962.1190155069174,9640,-3813,-13251,16824.314844890414
1735576900321,145,-100,1108,1121.9130982388965,9652,-3843,-14972,18223.351420636107
1735576900352,145,-100,1108,1121.9130982388965,9660,-3871,-16705,19681.393903888005
1735576900382,145,-100,1108,1121.9130982388965,9673,-3897,17560,20423.200973402774
1735576900413,204,-70,992,1015.1748617849046,9594,-3930,15913,18992.45389621889
1735576900442,204,-70,992,1015.1748617849046,9463,-3995,14340,17639.274191417288
1735576900472,204,-70,992,1015.1748617849046,9369,-4084,12764,16351.663921448484
1735576900502,149,-98,899,916.5184122536764,9312,-4188,11195,15151.921099319386
1735576900532,149,-98,899,916.5184122536764,9352,-4289,9579,14057.477227440208
1735576900562,149,-98,899,916.5184122536764,9409,-4380,7958,13078.357886217978
1735576900592,149,-98,899,916.5184122536764,9478,-4459,6330,12238.630029541706
1735576900622,187,-200,1037,1072.5381112109724,9619,-4538,4717,11634.805284146358
1735576900652,187,-200,1037,1072.5381112109724,9771,-4589,3114,11235.1394294864
1735576900682,187,-200,1037,1072.5381112109724,9909,-4613,1509,11033.817607700428
1735576900712,209,-102,1016,1042.2768346269622,10070,-4592,-185,11069.12774341321
1735576900742,209,-102,1016,1042.2768346269622,10166,-4540,-1905,11295.493836039219
1735576900773,209,-102,1016,1042.2768346269622,10230,-4471,-3617,11735.647830435268
1735576900802,27,-165,1024,1037.5596368402155,10253,-4386,-5322,12356.564611573882
1735576900832,27,-165,1024,1037.5596368402155,10406,-4229,-7220,13352.815321122358
1735576900862,27,-165,1024,1037.5596368402155,10480,-4042,-9094,14452.300854881205
1735576900892,27,-165,1024,1037.5596368402155,10483,-3841,-10948,15636.664414126179
1735576900922,129,-195,1038,1064.006578927029,10389,-3676,-12683,16801.868527041865
1735576900952,129,-195,1038,1064.006578927029,10264,-3542,-14382,18020.471248000147
1735576900982,129,-195,1038,1064.006578927029,10131,-3437,-16083,19316.133645219998
1735576901013,225,-114,972,1004.1937064132597,9941,-3375,-17720,20596.419737420383
1735576901042,225,-114,972,1004.1937064132597,9691,-3381,16718,19617.292524708908
1735576901072,225,-114,972,1004.1937064132597,9487,-3437,15155,18206.871312776395
1735576901102,142,-79,993,1006.2077320315125,9348,-3529,13575,16855.84676010078
1735576901132,142,-79,993,1006.2077320315125,9304,-3629,11872,15513.814521258142
1735576901162,142,-79,993,1006.2077320315125,9293,-3736,10164,14269.70360589175
1735576901192,142,-79,993,1006.2077320315125,9309,-3842,8453,13148.06654987721
1735576901222,96,-169,1003,1021.6584556494406,9389,-3943,6730,12206.288133580987
1735576901252,96,-169,1003,1021.6584556494406,9512,-4015,4986,11465.538146986386
1735576901282,96,-169,1003,1021.6584556494406,9631,-4060,3237,10941.568900299444
1735576901312,233,-204,915,965.9865423493228,9670,-4093,1598,10621.447782670684
1735576901342,233,-204,915,965.9865423493228,9646,-4139,91,10496.90039964179
1735576901372,233,-204,915,965.9865423493228,9636,-4189,-1418,10602.40260507023
1735576901402,-36,-80,963,966.9875904064127,9686,-4234,-2976,10981.890911860306
1735576901432,-36,-80,963,966.9875904064127,9910,-4201,-4933,11840.227616055361
1735576901462,-36,-80,963,966.9875904064127,10078,-4120,-6877,12877.64004000733
1735576901492,-36,-80,963,966.9875904064127,10186,-4003,-8804,14045.961020877141
1735576901522,155,-83,968,983.8384013647769,10051,-3967,-10427,15016.058703934264
1735576901552,155,-83,968,983.8384013647769,9897,-3975,-11982,16041.183185787762
1735576901582,155,-83,968,983.8384013647769,9772,-4013,-13541,17174.24915389316
1735576901612,140,-93,1059,1072.2546339372939,9733,-4050,-15170,18473.296646781808
1735576901642,140,-93,1059,1072.2546339372939,9743,-4077,-16844,19881.355939673733
1735576901672,140,-93,1059,1072.2546339372939,9758,-4102,17480,20435.15030529504
1735576901702,85,-114,984,994.2218062384269,9772,-4124,15796,19026.638589093975
1735576901732,85,-114,984,994.2218062384269,9834,-4129,14034,17626.949622665856
1735576901762,85,-114,984,994.2218062384269,9886,-4122,12273,16289.579767446427
1735576901792,85,-114,984,994.2218062384269,9926,-4104,10514,15030.385490731765
1735576901822,88,-67,933,939.5328626503705,9914,-4071,8755,13838.73050536067
1735576901852,88,-67,933,939.5328626503705,9883,-4044,6999,12767.678958996423
1735576901882,88,-67,933,939.5328626503705,9851,-4024,5244,11863.149371056574
1735576901913,206,-29,932,954.9350763271815,9764,-4037,3572,11153.127319276868
1735576901942,206,-29,932,954.9350763271815,9619,-4098,2004,10645.880940532821
1735576901972,206,-29,932,954.9350763271815,9512,-4186,433,10401.357074920561
1735576902002,59,-78,977,981.8828850733676,9465,-4281,-1170,10453.807249036114
1735576902032,59,-78,977,981.8828850733676,9636,-4326,-3009,10982.752523843921
1735576902062,59,-78,977,981.8828850733676,9787,-4334,-4848,11750.405482365279
1735576902092,59,-78,977,981.8828850733676,9912,-4311,-6684,12708.592408288181
1735576902122,136,-176,936,962.0644469057154,10049,-4256,-8516,13842.622331046961
1735576902152,136,-176,936,962.0644469057154,10153,-4176,-10308,15059.125107389207
1735576902182,136,-176,936,962.0644469057154,10213,-4076,-12089,16342.06431268706
1735576902212,110,-43,982,989.0768423130733,10231,-3962,-13887,17698.01045315546
1735576902242,110,-43,982,989.0768423130733,10170,-3852,-15706,19103.539986086347
1735576902272,110,-43,982,989.0768423130733,10091,-3757,-17521,20565.23209205284
1735576902302,160,-110,984,1002.9735789142204,9966,-3685,16696,19790.32079073
1735576902332,160,-110,984,1002.9735789142204,9810,-3659,15026,18314.06718891246
1735576902362,160,-110,984,1002.9735789142204,9676,-3666,13354,16893.60376000337
1735576902392,160,-110,984,1002.9735789142204,9569,-3700,11679,15545.250142728486
1735576902422,92,-115,880,892.2381968958738,9551,-3742,9937,14281.741280390148
1735576902452,92,-115,880,892.2381968958738,9560,-3780,8168,13130.05041879124
1735576902482,92,-115,880,892.2381968958738,9578,-3816,6397,12133.48873984725
1735576902512,125,-120,976,991.2623265311761,9583,-3859,4656,11331.5535563311
1735576902542,125,-120,976,991.2623265311761,9582,-3911,2946,10760.555794195763
1735576902572,125,-120,976,991.2623265311761,9594,-3962,1233,10452.873719700243
1735576902602,176,-57,971,988.4664890627299,9625,-4010,-487,10438.289802453273
1735576902632,176,-57,971,988.4664890627299,9592,-4069,-2164,10641.716074017386
1735576902662,176,-57,971,988.4664890627299,9579,-4133,-3844,11118.240238455004
1735576902692,176,-57,971,988.4664890627299,9584,-4199,-5529,11834.462302952339
1735576902722,77,-123,994,1004.5367091351117,9639,-4240,-7252,12785.907281065352
1735576902752,77,-123,994,1004.5367091351117,9733,-4257,-9014,13932.176211920376
1735576902782,77,-123,994,1004.5367091351117,9814,-4254,-10775,15182.612983277944
1735576902812,223,-94,1028,1056.100847457287,9853,-4246,-12485,16461.632665079123
1735576902842,223,-94,1028,1056.100847457287,9812,-4258,-14086,17686.75504438279
1735576902873,223,-94,1028,1056.100847457287,9781,-4276,-15689,18976.21822176379
1735576902902,113,-37,978,985.2015022319039,9771,-4301,-17291,20321.16441053514
1735576902932,113,-37,978,985.2015022319039,9825,-4308,16983,20087.60259463533
1735576902962,113,-37,978,985.2015022319039,9870,-4305,15258,18675.023132515795
1735576902992,113,-37,978,985.2015022319039,9906,-4293,13534,17312.64973942464
1735576903022,28,-83,1011,1014.7876625186177,9981,-4263,11745,15991.827756701234
1735576903051,28,-83,1011,1014.7876625186177,10062,-4206,9930,14749.209470341113
1735576903082,28,-83,1011,1014.7876625186177,10111,-4133,8123,13612.389173102567
1735576903112,38,-134,1034,1043.3388711248133,10150,-4047,6306,12616.114496943977
1735576903142,38,-134,1034,1043.3388711248133,10182,-3948,4495,11809.523826132872
1735576903172,38,-134,1034,1043.3388711248133,10181,-3843,2692,11210.186171513835
1735576903202,60,-39,961,963.6607286799644,10147,-3742,905,10852.796782396692
1735576903232,60,-39,961,963.6607286799644,9997,-3671,-839,10682.704292453293
1735576903262,60,-39,961,963.6607286799644,9858,-3633,-2586,10819.715754122195
1735576903292,60,-39,961,963.6607286799644,9736,-3627,-4335,11257.755104815524
1735576903322,-29,-110,975,981.6139770806037,9686,-3626,-6142,12028.742078870924
1735576903352,-29,-110,975,981.6139770806037,9678,-3624,-7980,13056.701727465477
1735576903382,-29,-110,975,981.6139770806037,9670,-3625,-9819,14249.992491226092
1735576903413,93,-123,951,963.420468954236,9661,-3645,-11616,15541.956183183634
1735576903443,93,-123,951,963.420468954236,9642,-3676,-13372,16890.575005013892
1735576903472,93,-123,951,963.420468954236,9634,-3711,-15130,18316.723970186373
1735576903502,89,-216,965,992.8756216163231,9642,-3742,-16904,19817.061941670363
1735576903532,89,-216,965,992.8756216163231,9744,-3749,17288,20195.92733696574
1735576903562,89,-216,965,992.8756216163231,9829,-3733,15482,18714.61605270063
1735576903592,81,-141,1046,1058.5641218178519,9902,-3696,13686,17292.09692316117
1735576903623,81,-141,1046,1058.5641218178519,9912,-3647,11896,15907.95929715688
1735576903652,81,-141,1046,1058.5641218178519,9907,-3596,10108,14603.134218379286
1735576903682,81,-141,1046,1058.5641218178519,9890,-3548,8323,13404.205795197267
1735576903712,147,-49,1010,1021.8170090578841,9735,-3505,6594,12269.314813794615
1735576903742,147,-49,1010,1021.8170090578841,9566,-3508,4886,11299.885663138366
1735576903772,147,-49,1010,1021.8170090578841,9429,-3548,3174,10562.604839716385
1735576903802,189,-212,1007,1046.285811812432,9326,-3627,1476,10114.740777696677
1735576903832,189,-212,1007,1046.285811812432,9367,-3730,-148,10083.426649705942
1735576903862,189,-212,1007,1046.285811812432,9426,-3823,-1776,10325.646759404468
1735576903892,-9,-65,928,930.3171502235139,9507,-3891,-3431,10830.267355887388
1735576903922,-9,-65,928,930.3171502235139,9615,-3900,-5354,11675.767255302753
1735576903952,-9,-65,928,930.3171502235139,9705,-3883,-7274,12734.82587238632
1735576903982,-9,-65,928,930.3171502235139,9771,-3847,-9190,13954.495691353379
1735576904012,40,-57,995,997.4337070702995,9763,-3827,-11009,15203.952742625846
1735576904042,40,-57,995,997.4337070702995,9740,-3815,-12809,16537.602788796205
1735576904072,40,-57,995,997.4337070702995,9718,-3807,-14608,17953.45195220128
1735576904102,173,-117,979,1001.0289706097421,9690,-3807,-16395,19421.260875648626
1735576904132,173,-117,979,1001.0289706097421,9648,-3825,17894,20685.979913941712
1735576904162,173,-117,979,1001.0289706097421,9618,-3851,16183,19215.244312784576
1735576904192,82,-124,995,1006.0442336199736,9606,-3870,14457,17783.615633498157
1735576904222,82,-124,995,1006.0442336199736,9669,-3847,12608,16347.802115269196
1735576904252,82,-124,995,1006.0442336199736,9713,-3811,10763,14990.27214562831
1735576904282,82,-124,995,1006.0442336199736,9738,-3766,8920,13732.363234345354
1735576904313,58,-75,909,913.9310696108323,9677,-3753,7148,12602.509353299445
1735576904343,58,-75,909,913.9310696108323,9616,-3755,5367,11634.954662567448
1735576904372,58,-75,909,913.9310696108323,9567,-3770,3584,10889.69444015763
1735576904402,141,-137,987,1006.3890897659811,9549,-3800,1833,10439.506214376233
1735576904432,141,-137,987,1006.3890897659811,9550,-3837,143,10292.983921098876
1735576904462,141,-137,987,1006.3890897659811,9560,-3873,-1548,10430.246066129024
1735576904492,47,-172,1044,1059.1170851232644,9592,-3907,-3260,10858.117378256693
1735576904522,47,-172,1044,1059.1170851232644,9739,-3907,-5111,11671.978881063827
1735576904552,47,-172,1044,1059.1170851232644,9858,-3874,-6957,12672.327686735378
1735576904582,47,-172,1044,1059.1170851232644,9944,-3815,-8798,13814.56351101981
1735576904612,210,-105,1018,1044.7243655625152,9860,-3776,-10487,14881.362336829246
1735576904643,210,-105,1018,1044.7243655625152,9736,-3774,-12120,15997.723963114253
1735576904673,210,-105,1018,1044.7243655625152,9634,-3796,-13755,17216.956670677893
1735576904702,166,-123,961,982.9577813924665,9533,-3824,-15383,18496.966075548713
1735576904732,166,-123,961,982.9577813924665,9466,-3860,-17033,19865.24213293158
1735576904762,166,-123,961,982.9577813924665,9419,-3908,17314,20093.895117671935
1735576904792,227,-111,956,988.8306225031666,9422,-3970,15645,18689.59627707351
1735576904822,227,-111,956,988.8306225031666,9443,-4046,14015,17377.01326465512
1735576904853,227,-111,956,988.8306225031666,9479,-4116,12381,16127.059806424728
1735576904882,227,-111,956,988.8306225031666,9524,-4177,10743,14952.122056751678
1735576904913,143,95,974,989.0146611653439,9474,-4254,9112,13815.99565720835
1735576904942,143,95,974,989.0146611653439,9417,-4344,7442,12764.544214346237
1735576904972,143,95,974,989.0146611653439,9393,-4443,5767,11883.896120380723
1735576905002,97,-88,1055,1063.0983021339089,9464,-4534,4044,11246.261067572636
1735576905032,97,-88,1055,1063.0983021339089,9664,-4583,2268,10933.462809192702
1735576905062,97,-88,1055,1063.0983021339089,9842,-4592,491,10871.637825093329
1735576905092,114,-58,958,966.5009053280809,9972,-4568,-1265,11041.178967845779
1735576905122,114,-58,958,966.5009053280809,10003,-4536,-2964,11376.317550068652
1735576905152,114,-58,958,966.5009053280809,10021,-4498,-4658,11931.027156116945
1735576905182,114,-58,958,966.5009053280809,10025,-4457,-6349,12675.775124228105
1735576905212,83,-111,894,904.6800539417236,10050,-4384,-8075,13617.179627220903
1735576905243,83,-111,894,904.6800539417236,10071,-4300,-9804,14698.076642880864
1735576905272,83,-111,894,904.6800539417236,10065,-4213,-11526,15871.429362221917
1735576905303,145,-23,982,992.9138935476732,10063,-4145,-13253,17148.96507081404
1735576905333,145,-23,982,992.9138935476732,10003,-4100,-14948,18447.566587493322
1735576905362,145,-23,982,992.9138935476732,9943,-4068,-16642,19808.28203050431
1735576905392,186,-85,1019,1039.318045643392,9876,-4043,17650,20625.31757331266
1735576905422,186,-85,1019,1039.318045643392,9818,-4023,15960,19165.052908875572
1735576905452,186,-85,1019,1039.318045643392,9766,-4015,14270,17751.84162277255
1735576905482,186,-85,1019,1039.318045643392,9721,-4017,12580,16397.881875413055
1735576905512,193,-76,1000,1021.2859540794635,9690,-4021,10893,15123.557451869583
1735576905545,193,-76,1000,1021.2859540794635,9661,-4032,9208,13941.994441255527
1735576905572,193,-76,1000,1021.2859540794635,9641,-4048,7521,12880.241690278952
1735576905602,260,-73,1003,1038.7194038815294,9603,-4079,5894,11983.116706433264
1735576905632,260,-73,1003,1038.7194038815294,9544,-4130,4334,11266.250130367247
1735576905662,260,-73,1003,1038.7194038815294,9507,-4192,2771,10753.341527171915
1735576905692,139,-39,954,964.8616481133448,9471,-4259,1213,10455.15619204228
1735576905722,139,-39,954,964.8616481133448,9485,-4319,-473,10432.771204239074
1735576905752,139,-39,954,964.8616481133448,9512,-4375,-2165,10691.398131208098
1735576905782,139,-39,954,964.8616481133448,9548,-4425,-3861,11209.471441597949
1735576905812,119,-25,881,889.3520112981137,9598,-4449,-5594,11966.956212838752
1735576905843,119,-25,881,889.3520112981137,9646,-4462,-7337,12914.578158035205
1735576905872,119,-25,881,889.3520112981137,9689,-4466,-9079,14008.929937721867
1735576905902,8,-284,1083,1119.6468193140192,9889,-4454,-10917,15388.675251625787
1735576905932,8,-284,1083,1119.6468193140192,10256,-4352,-12853,17009.55757802066
1735576905962,8,-284,1083,1119.6468193140192,10513,-4173,-14756,18592.381073977587
1735576905992,177,-149,998,1024.467666644487,10657,-3940,-16617,20130.075459371732
1735576906022,177,-149,998,1024.467666644487,10499,-3754,17725,20940.323349938986
1735576906052,177,-149,998,1024.467666644487,10329,-3601,16066,19436.352487028013
1735576906082,177,-149,998,1024.467666644487,10156,-3483,14404,17965.26762951223
1735576906112,93,-4,871,875.9600447509007,9884,-3394,12728,16468.596661525233
1735576906143,93,-4,871,875.9600447509007,9621,-3367,11016,15008.417171707348
1735576906172,93,-4,871,875.9600447509007,9400,-3398,9300,13652.706837839887
1735576906202,166,-186,1027,1056.8259080851492,9283,-3488,7612,12501.31101124998
1735576906232,166,-186,1027,1056.8259080851492,9284,-3593,5975,11610.466398900606
1735576906262,166,-186,1027,1056.8259080851492,9309,-3695,4336,10913.817022472018
1735576906292,50,-142,967,978.648557961437,9367,-3784,2677,10451.108745008829
1735576906322,50,-142,967,978.648557961437,9496,-3832,856,10275.74698014699
1735576906353,50,-142,967,978.648557961437,9615,-3850,-965,10402.01663140374
1735576906380,50,-142,967,978.648557961437,9715,-3841,-2785,10811.601685226848
1735576906412,89,-43,1008,1012.8346360586214,9752,-3825,-4585,11434.787011571312
1735576906442,89,-43,1008,1012.8346360586214,9746,-3811,-6370,12250.92392434138
1735576906472,89,-43,1008,1012.8346360586214,9738,-3799,-8154,13257.02685371045
1735576906502,2,-72,1021,1023.5374932067706,9690,-3780,-9949,14393.300559635374
1735576906532,2,-72,1021,1023.5374932067706,9663,-3759,-11795,15704.320265455617
1735576906562,2,-72,1021,1023.5374932067706,9636,-3745,-13640,17115.113817909598
1735576906592,70,-87,1036,1042.0004798463387,9610,-3741,-15472,18593.81523517968
1735576906622,70,-87,1036,1042.0004798463387,9558,-3761,-17204,20036.918450699948
1735576906651,70,-87,1036,1042.0004798463387,9521,-3793,17062,19903.4704009125
1735576906682,70,-87,1036,1042.0004798463387,9499,-3831,15326,18433.497714758316
1735576906713,173,-102,958,978.8242947536601,9447,-3887,13648,17047.65326958523
1735576906743,173,-102,958,978.8242947536601,9402,-3958,12005,15753.83740553393
1735576906773,173,-102,958,978.8242947536601,9381,-4037,10358,14546.088615156998
1735576906802,14,-49,966,967.3432689588531,9456,-4097,8581,13410.253763445344
1735576906832,14,-49,966,967.3432689588531,9595,-4112,6650,12377.199562098043
1735576906863,14,-49,966,967.3432689588531,9711,-4095,4722,11548.585627686189
1735576906893,157,-45,977,990.5569140640027,9786,-4062,2830,10966.97497033708
1735576906922,157,-45,977,990.5569140640027,9718,-4065,1159,10597.50112054724
1735576906952,157,-45,977,990.5569140640027,9663,-4081,-512,10501.91763441325
1735576906982,157,-45,977,990.5569140640027,9623,-4107,-2185,10688.489275851849
1735576907012,244,23,996,1025.7099980013843,9535,-4154,-3806,11075.088126060216
1735576907042,244,23,996,1025.7099980013843,9437,-4226,-5397,11663.775289330637
1735576907072,244,23,996,1025.7099980013843,9372,-4315,-6991,12463.052996758057
1735576907102,79,-82,981,987.5859456270123,9423,-4398,-8667,13537.068441874702
1735576907133,79,-82,981,987.5859456270123,9625,-4432,-10484,14906.290786107724
1735576907163,79,-82,981,987.5859456270123,9798,-4424,-12299,16335.176185153316
1735576907192,201,-220,1003,1046.3316873726037,9921,-4387,-14093,17784.393692223526
1735576907222,201,-220,1003,1046.3316873726037,10009,-4354,-15707,19127.133763321675
1735576907252,201,-220,1003,1046.3316873726037,10073,-4306,-17317,20491.106705105023
1735576907282,226,-87,914,945.5374133264108,10107,-4248,17082,20297.578106759436
1735576907313,226,-87,914,945.5374133264108,9987,-4211,15521,18930.77206560789
1735576907343,226,-87,914,945.5374133264108,9880,-4196,13958,17608.139595084995
1735576907372,226,-87,914,945.5374133264108,9789,-4201,12394,16342.70962845513
1735576907402,30,-80,992,995.6726369645799,9858,-4145,10573,15038.268450855638
1735576907432,30,-80,992,995.6726369645799,9935,-4057,8688,13807.418947797594
1735576907462,30,-80,992,995.6726369645799,9971,-3955,6814,12708.007790365884
1735576907492,-1,-82,904,907.7119587181828,9951,-3854,4972,11772.701516644342
1735576907523,-1,-82,904,907.7119587181828,9896,-3770,3145,11046.93355642189
1735576907552,-1,-82,904,907.7119587181828,9828,-3700,1320,10584.043839667333
1735576907582,65,-108,963,971.2147033483379,9760,-3653,-493,10432.883494029826
1735576907612,65,-108,963,971.2147033483379,9684,-3645,-2219,10582.5253129865
1735576907643,65,-108,963,971.2147033483379,9621,-3653,-3947,11022.107738540755
1735576907672,65,-108,963,971.2147033483379,9571,-3674,-5676,11718.331493860378
1735576907702,202,-132,1026,1053.9943073850068,9509,-3706,-7345,12573.962859814721
1735576907733,202,-132,1026,1053.9943073850068,9447,-3758,-8968,13557.042339684567
1735576907763,202,-132,1026,1053.9943073850068,9407,-3821,-10594,14673.940370602573
1735576907792,283,2,946,987.42544022321,9334,-3897,-12180,15832.326582028303
1735576907822,283,2,946,987.42544022321,9186,-4006,-13701,16974.923652258352
1735576907852,283,2,946,987.42544022321,9084,-4140,-15225,18206.023206620386
1735576907882,226,-53,1029,1054.8582843206948,9035,-4290,-16757,19514.926953488706
1735576907912,226,-53,1029,1054.8582843206948,9132,-4433,17627,20340.994125165074
1735576907942,226,-53,1029,1054.8582843206948,9247,-4554,16000,19032.759258709706
1735576907972,226,-53,1029,1054.8582843206948,9372,-4652,14363,17769.953770339416
1735576908002,98,-98,945,955.108894315198,9555,-4707,12615,16510.363381827792
1735576908032,98,-98,945,955.108894315198,9765,-4712,10812,15312.00551854655
1735576908062,98,-98,945,955.108894315198,9936,-4677,9014,14207.414296767727
1735576908092,197,-105,994,1018.7590490395656,10066,-4639,7276,13258.388024190574
1735576908122,197,-105,994,1018.7590490395656,10130,-4606,5629,12470.676685729608
1735576908152,197,-105,994,1018.7590490395656,10174,-4562,3986,11841.043703998394
1735576908182,216,-87,1000,1026.7545958017427,10199,-4511,2342,11395.33615125065
1735576908213,216,-87,1000,1026.7545958017427,10179,-4464,710,11137.478933762344
1735576908243,216,-87,1000,1026.7545958017427,10151,-4421,-918,11109.939963834187
1735576908273,216,-87,1000,1026.7545958017427,10119,-4383,-2545,11317.326318525944
1735576908302,222,-127,898,933.7114115185698,10092,-4327,-4184,11750.627600260337
1735576908332,222,-127,898,933.7114115185698,10064,-4274,-5817,12385.01760192532
1735576908362,222,-127,898,933.7114115185698,10030,-4226,-7447,13187.789238534258
1735576908392,306,-215,1017,1083.5820227375498,9991,-4200,-9020,14100.371661768351
1735576908422,306,-215,1017,1083.5820227375498,9960,-4193,-10515,15078.06599003997
1735576908452,306,-215,1017,1083.5820227375498,9932,-4191,-12011,16139.182940905032
1735576908482,297,-22,898,946.0956611252374,9887,-4198,-13495,17247.927353743115
1735576908512,297,-22,898,946.0956611252374,9661,-4243,-14966,18311.72100049583
1735576908542,297,-22,898,946.0956611252374,9482,-4327,-16441,19466.32307345175
1735576908572,297,-22,898,946.0956611252374,9348,-4439,-17918,20691.65409047812
1735576908602,321,-53,906,962.645313705936,9314,-4549,16549,19527.24757870397
1735576908632,321,-53,906,962.645313705936,9311,-4664,15021,18277.802329601884
1735576908662,321,-53,906,962.645313705936,9334,-4776,13485,17081.53848457451
1735576908692,217,-132,970,1002.7028473082142,9482,-4878,11867,15953.96179636895
1735576908722,217,-132,970,1002.7028473082142,9757,-4927,10135,14906.126357977782
1735576908752,217,-132,970,1002.7028473082142,9996,-4927,8401,13956.079177190133
1735576908782,187,-85,977,998.360155454934,10174,-4893,6705,13130.451248909918
1735576908812,187,-85,977,998.360155454934,10272,-4843,5036,12422.959752007571
1735576908843,187,-85,977,998.360155454934,10339,-4776,3376,11878.656195041593
1735576908872,187,-85,977,998.360155454934,10375,-4698,1726,11519.153831770804
1735576908902,274,-84,888,933.1002089807932,10303,-4617,137,11291.02594984176
1735576908932,274,-84,888,933.1002089807932,10204,-4558,-1413,11264.70368007965
1735576908962,274,-84,888,933.1002089807932,10111,-4516,-2964,11463.501777380243
1735576908992,319,-77,989,1042.0225525390513,10035,-4500,-4502,11883.569707794035
1735576909022,319,-77,989,1042.0225525390513,9954,-4509,-6007,12469.853487511391
1735576909052,319,-77,989,1042.0225525390513,9889,-4530,-7514,13220.189749016465
1735576909082,308,-209,1028,1093.3110261951995,9841,-4561,-9036,14117.2694951963
1735576909112,308,-209,1028,1093.3110261951995,9925,-4578,-10603,15227.846794606256
1735576909143,308,-209,1028,1093.3110261951995,9998,-4581,-12169,16402.137848463535
1735576909172,308,-209,1028,1093.3110261951995,10059,-4572,-13733,17626.172414906192
1735576909202,320,-82,945,1001.0739233443253,10040,-4557,-15281,18843.481896931895
1735576909232,320,-82,945,1001.0739233443253,9986,-4553,-16823,20086.39674008258
1735576909262,320,-82,945,1001.0739233443253,9941,-4558,17632,20748.16302712122
1735576909292,302,-25,922,970.5220244796096,9886,-4571,16097,19435.545940364012
1735576909322,302,-25,922,970.5220244796096,9821,-4597,14553,18148.670998175046
1735576909352,302,-25,922,970.5220244796096,9773,-4632,13007,16915.939288138863
1735576909381,105,-189,906,931.4408193760889,9740,-4671,11444,15736.930355059718
1735576909412,105,-189,906,931.4408193760889,10014,-4638,9608,14632.323943926338
1735576909443,105,-189,906,931.4408193760889,10224,-4551,7788,13634.321435260355
1735576909472,105,-189,906,931.4408193760889,10366,-4425,5988,12762.865078030089
1735576909502,324,-77,934,991.5951794961491,10291,-4339,4382,11997.22993027974
1735576909532,324,-77,934,991.5951794961491,10135,-4297,2860,11373.743183314806
1735576909562,324,-77,934,991.5951794961491,9999,-4282,1335,10958.911898541752
1735576909592,506,-26,995,1116.5737772310436,9794,-4328,-37,10707.72566888039
1735576909622,506,-26,995,1116.5737772310436,9495,-4450,-1217,10556.448929445924
1735576909652,506,-26,995,1116.5737772310436,9255,-4611,-2389,10612.429834868168
1735576909682,194,-123,894,923.0390024262247,9079,-4782,-3594,10872.561841626839
1735576909712,194,-123,894,923.0390024262247,9352,-4882,-5311,11811.035052018091
1735576909743,194,-123,894,923.0390024262247,9606,-4931,-7038,12888.888276340982
1735576909772,194,-123,894,923.0390024262247,9828,-4934,-8766,14063.310278878156
1735576909802,309,-154,933,994.8296336559341,9988,-4960,-10412,15256.850526894468
1735576909832,309,-154,933,994.8296336559341,10102,-4969,-12008,16460.055558836975
1735576909862,309,-154,933,994.8296336559341,10198,-4960,-13601,17708.416219413863
1735576909892,109,-89,893,904.019358199812,10294,-4894,-15267,19052.531616559518
1735576909922,109,-89,893,904.019358199812,10416,-4761,-17079,20563.375647008932
1735576909952,109,-89,893,904.019358199812,10472,-4606,17132,20600.56902126735
1735576909982,97,-177,1044,1063.3315569473145,10505,-4451,15356,19130.425034483684
1735576910012,97,-177,1044,1063.3315569473145,10625,-4290,13570,17760.62006237395
1735576910043,97,-177,1044,1063.3315569473145,10676,-4105,11806,16438.05453817452
1735576910072,97,-177,1044,1063.3315569473145,10666,-3909,10059,15173.243489775019
1735576910102,65,-211,925,950.9842269985344,10548,-3702,8355,13956.04288471485
1735576910132,65,-211,925,950.9842269985344,10417,-3514,6642,12844.385894234103
1735576910162,65,-211,925,950.9842269985344,10266,-3356,4927,11871.344532107558
1735576910192,281,-18,1061,1097.7276529267176,10053,-3278,3292,11074.536423706411
1735576910222,281,-18,1061,1097.7276529267176,9715,-3312,1802,10421.02552535018
1735576910253,281,-18,1061,1097.7276529267176,9442,-3411,310,10044.022351627858
1735576910283,276,-81,925,968.6908691631196,9213,-3552,-1187,9945.10140722557
1735576910313,276,-81,925,968.6908691631196,9066,-3710,-2711,10163.954791320159
1735576910343,276,-81,925,968.6908691631196,8974,-3891,-4235,10658.695135897264
1735576910372,276,-81,925,968.6908691631196,8934,-4084,-5761,11387.911704961538
1735576910401,208,-75,1041,1064.2227210504388,9018,-4282,-7356,12400.4267668496
1735576910432,208,-75,1041,1064.2227210504388,9150,-4454,-8993,13580.672479667566
1735576910462,208,-75,1041,1064.2227210504388,9302,-4598,-10644,14864.842548779317
1735576910492,109,-150,917,935.5586566324957,9484,-4690,-12348,16260.856680999314
1735576910521,109,-150,917,935.5586566324957,9734,-4717,-14139,17802.027019415513
1735576910552,109,-150,917,935.5586566324957,9946,-4697,-15927,19355.982382715687
1735576910583,346,-90,1050,1109.1961052942802,10120,-4648,-17692,20905.146926056274
1735576910613,346,-90,1050,1109.1961052942802,10029,-4662,16867,20169.550664305836
1735576910643,346,-90,1050,1109.1961052942802,9957,-4689,15425,18948.85735341316
1735576910672,346,-90,1050,1109.1961052942802,9901,-4728,13981,17772.229629396534
1735576910702,315,-82,971,1024.1044868566878,9856,-4740,12479,16593.18465515285
1735576910732,315,-82,971,1024.1044868566878,9827,-4757,10962,15471.406594101261
1735576910762,315,-82,971,1024.1044868566878,9807,-4778,9444,14428.987109288026
1735576910792,265,-145,973,1018.812544092386,9828,-4798,7901,13492.078750140765
1735576910822,265,-145,973,1018.812544092386,9911,-4798,6313,12692.62360585864
1735576910852,265,-145,973,1018.812544092386,9978,-4785,4727,12033.338605723684
1735576910882,196,-56,964,985.3161929045924,10029,-4760,3151,11539.811176964726
1735576910912,196,-56,964,985.3161929045924,10047,-4715,1508,11200.334727140971
1735576910942,196,-56,964,985.3161929045924,10051,-4667,-129,11082.424418871531
1735576910972,196,-56,964,985.3161929045924,10042,-4619,-1763,11193.082417278987
1735576911002,296,-73,985,1031.101352923174,10034,-4605,-3359,11539.93336202597
1735576911032,296,-73,985,1031.101352923174,10003,-4602,-4914,12057.603783505245
1735576911062,296,-73,985,1031.101352923174,9977,-4604,-6469,12750.894321576036
1735576911092,88,-182,965,985.9477673791853,10042,-4574,-8122,13701.46430130736
1735576911122,88,-182,965,985.9477673791853,10239,-4470,-9938,14952.654112230377
1735576911152,88,-182,965,985.9477673791853,10367,-4328,-11733,16244.062361367614
1735576911182,133,-42,920,930.5122245301241,10410,-4167,-13488,17540.186230482275
1735576911212,133,-42,920,930.5122245301241,10231,-4045,-15147,18720.76373976233
1735576911242,133,-42,920,930.5122245301241,10059,-3958,-16806,19982.264161000374
1735576911272,142,-87,1068,1080.905638804794,9920,-3907,17520,20509.0577306711
1735576911302,142,-87,1068,1080.905638804794,9865,-3878,15834,19054.46574952969
1735576911332,142,-87,1068,1080.905638804794,9814,-3860,14149,17646.767324357173
1735576911362,142,-87,1068,1080.905638804794,9767,-3853,12462,16295.439300614145
1735576911393,18,-79,1005,1008.2608789395729,9721,-3858,10725,14980.241319818582
1735576911423,18,-79,1005,1008.2608789395729,9705,-3863,8942,13750.242106959426
1735576911452,18,-79,1005,1008.2608789395729,9693,-3872,7159,12656.931460666128
1735576911482,274,-170,945,998.4993740608954,9680,-3882,5373,11732.069425297483
1735576911512,274,-170,945,998.4993740608954,9574,-3935,3865,11049.159515546873
1735576911542,274,-170,945,998.4993740608954,9496,-4006,2354,10571.819521728508
1735576911572,209,-28,993,1015.1423545493509,9470,-4086,824,10346.751760818464
1735576911602,209,-28,993,1015.1423545493509,9439,-4160,-818,10347.436639090862
1735576911632,209,-28,993,1015.1423545493509,9432,-4239,-2466,10630.75260741214
1735576911662,209,-28,993,1015.1423545493509,9444,-4318,-4120,11171.77962546702
1735576911692,89,-103,966,975.5439508294846,9554,-4371,-5850,12025.26743985347
1735576911722,89,-103,966,975.5439508294846,9703,-4387,-7630,13100.033511407519
1735576911752,89,-103,966,975.5439508294846,9829,-4373,-9407,14290.69693891799
1735576911782,233,-150,880,922.5990461733635,9850,-4372,-11057,15440.017260353046
1735576911813,233,-150,880,922.5990461733635,9801,-4404,-12561,16529.777312474598
1735576911843,233,-150,880,922.5990461733635,9767,-4444,-14067,17692.481849644497
1735576911872,354,28,1003,1064.0061090050187,9785,-4478,-15617,18965.479113378602
1735576911902,354,28,1003,1064.0061090050187,9637,-4526,-17100,20143.64527586802
1735576911932,354,28,1003,1064.0061090050187,9522,-4598,17413,20372.104874067383
1735576911962,354,28,1003,1064.0061090050187,9442,-4687,15923,19096.105938122568
1735576911992,155,-149,946,970.1247342481275,9594,-4733,14222,17796.38752668642
1735576912022,155,-149,946,970.1247342481275,9828,-4723,12437,16540.111305550516
1735576912052,155,-149,946,970.1247342481275,10014,-4669,10661,15353.7187026466
1735576912082,179,-73,979,997.9033019285987,10141,-4585,8896,14247.8392045952
1735576912113,179,-73,979,997.9033019285987,10179,-4490,7156,13228.018634701117
1735576912143,179,-73,979,997.9033019285987,10184,-4388,5428,12346.318641603253
1735576912173,64,-120,1016,1025.0619493474528,10154,-4286,3712,11629.808940820996
1735576912203,64,-120,1016,1025.0619493474528,10205,-4156,1887,11179.227611959603
1735576912232,64,-120,1016,1025.0619493474528,10209,-4016,75,10970.759408536858
1735576912262,64,-120,1016,1025.0619493474528,10174,-3877,-1726,11023.632840402477
1735576912292,200,-198,948,988.8923096070674,10121,-3787,-3379,11322.263510447017
1735576912322,200,-198,948,988.8923096070674,10053,-3717,-4982,11819.442541846041
1735576912352,200,-198,948,988.8923096070674,9982,-3661,-6586,12506.743820835221
1735576912382,156,-29,1095,1106.4366226765997,9868,-3616,-8210,13336.303085938021
1735576912412,156,-29,1095,1106.4366226765997,9691,-3604,-9869,14293.406102115758
1735576912443,156,-29,1095,1106.4366226765997,9545,-3630,-11531,15402.853177252584
1735576912473,41,-117,992,999.7169599441634,9411,-3682,-13190,16616.261462796017
1735576912502,41,-117,992,999.7169599441634,9415,-3728,-14961,18065.761262675867
1735576912532,41,-117,992,999.7169599441634,9430,-3772,-16734,19574.97484034143
1735576912562,41,-117,992,999.7169599441634,9453,-3811,17490,20243.098330048193
1735576912592,91,-101,863,873.6423753458848,9439,-3882,15817,18823.97763492084
1735576912622,91,-101,863,873.6423753458848,9430,-3958,14157,17464.573083817424
1735576912652,91,-101,863,873.6423753458848,9441,-4034,12495,16171.909658416967
1735576912682,126,-173,1018,1040.2542958334755,9539,-4098,10778,14965.006147676653
1735576912712,126,-173,1018,1040.2542958334755,9684,-4131,9052,13884.657755954951
1735576912743,126,-173,1018,1040.2542958334755,9811,-4134,7328,12924.599065348217
1735576912772,204,-86,941,966.6917812829486,9908,-4116,5601,12102.938527481663
1735576912802,204,-86,941,966.6917812829486,9849,-4117,3951,11382.569613228816
1735576912832,204,-86,941,966.6917812829486,9802,-4130,2301,10882.587238336295
1735576912862,204,-86,941,966.6917812829486,9765,-4152,649,10630.876257392896
1735576912892,145,-150,1060,1080.3355960070926,9860,-4124,-1130,10747.272956429459
1735576912922,145,-150,1060,1080.3355960070926,9957,-4068,-2925,11146.573374808959
1735576912953,145,-150,1060,1080.3355960070926,10019,-3993,-4713,11770.164782194002
1735576912983,268,-133,1025,1067.7724476685096,9965,-3929,-6383,12469.200255028387
1735576913012,268,-133,1025,1067.7724476685096,9826,-3908,-7932,13218.901769814314
1735576913043,268,-133,1025,1067.7724476685096,9708,-3913,-9483,14123.884805534206
1735576913072,297,-109,904,957.7609305040585,9607,-3948,-11020,15143.366633612224
1735576913102,297,-109,904,957.7609305040585,9488,-4025,-12494,16196.38246646454
1735576913132,297,-109,904,957.7609305040585,9403,-4122,-13970,17336.90263570745
1735576913162,297,-109,904,957.7609305040585,9351,-4232,-15447,18546.18111633767
1735576913192,17,36,912,912.8685557077755,9425,-4301,-17201,20079.9309510765
1735576913222,17,36,912,912.8685557077755,9531,-4341,16930,19907.514711786604
1735576913253,17,36,912,912.8685557077755,9629,-4358,15061,18399.552331510677
1735576913282,75,-143,1071,1083.1043347711245,9772,-4369,13206,16999.370017738893
1735576913312,75,-143,1071,1083.1043347711245,9968,-4348,11394,15750.852802308833
1735576913342,75,-143,1071,1083.1043347711245,10120,-4287,9592,14587.639733692356
1735576913372,71,-176,934,953.0860401873484,10203,-4194,7810,13516.173459970096
1735576913402,71,-176,934,953.0860401873484,10233,-4081,6051,12569.146788863594
1735576913432,71,-176,934,953.0860401873484,10228,-3962,4302,11782.04702078548
1735576913462,71,-176,934,953.0860401873484,10192,-3846,2560,11190.271667837202
1735576913492,220,-139,910,946.4782089409138,10094,-3769,879,10810.496658340911
1735576913522,220,-139,910,946.4782089409138,9961,-3731,-750,10663.225684566562
1735576913552,220,-139,910,946.4782089409138,9844,-3719,-2382,10789.310496968748
1735576913582,61,-133,930,941.4403857918992,9775,-3701,-4084,11221.723664393096
1735576913612,61,-133,930,941.4403857918992,9768,-3662,-5905,11987.20538741203
1735576913642,61,-133,930,941.4403857918992,9752,-3626,-7724,12957.991974067587
1735576913673,63,-100,939,946.4090024931081,9723,-3597,-9531,14082.439383856761
1735576913702,63,-100,939,946.4090024931081,9655,-3589,-11313,15299.801142498553
1735576913733,63,-100,939,946.4090024931081,9598,-3596,-13096,16630.034155106237
1735576913763,63,-100,939,946.4090024931081,9553,-3616,-14881,18049.360819707716
1735576913792,195,-38,870,892.3950918735491,9396,-3681,-16515,19354.064224343165
1735576913822,195,-38,870,892.3950918735491,9241,-3789,17895,20493.50206772869
1735576913852,195,-38,870,892.3950918735491,9136,-3923,16304,19096.513844154906
1735576913882,72,-158,962,977.5438609085528,9177,-4061,14632,17742.730173228698
1735576913912,72,-158,962,977.5438609085528,9377,-4155,12844,16436.55955484602
1735576913972,72,-158,962,977.5438609085528,9566,-4204,11049,15207.313142037945
1735576913972,177,-61,987,1004.5989249446766,9734,-4219,9257,14079.870951113153
1735576914003,177,-61,987,1004.5989249446766,9726,-4248,7591,13048.519494563358
1735576914032,177,-61,987,1004.5989249446766,9725,-4277,5924,12163.968513606076
1735576914062,177,-61,987,1004.5989249446766,9732,-4306,4254,11460.801717157487
1735576914092,42,-90,1066,1070.6166447426456,9898,-4263,2356,11031.514356605805
1735576914123,42,-90,1066,1070.6166447426456,10053,-4170,420,10891.653180302796
1735576914152,42,-90,1066,1070.6166447426456,10147,-4045,-1497,11025.63571863319
1735576914182,197,-102,900,926.9374304665877,10096,-3947,-3258,11319.124922007
1735576914213,197,-102,900,926.9374304665877,9953,-3907,-4863,11746.302694890848
1735576914243,197,-102,900,926.9374304665877,9826,-3895,-6470,12392.82861174155
1735576914272,67,-51,956,959.7009951021204,9738,-3902,-8088,13246.508672099226
1735576914302,67,-51,956,959.7009951021204,9740,-3893,-9868,14401.405243933663
1735576914332,67,-51,956,959.7009951021204,9740,-3884,-11647,15671.811158892899
1735576914362,67,-51,956,959.7009951021204,9737,-3875,-13426,17031.801725008427
1735576914392,57,-94,1004,1010.0004950493836,9756,-3867,-15252,18513.69031284687
1735576914422,57,-94,1004,1010.0004950493836,9781,-3852,-17080,20055.72898201409
1735576914452,57,-94,1004,1010.0004950493836,9798,-3831,17093,20071.074061942974
1735576914482,149,-141,979,1000.261465817813,9769,-3817,15334,18577.793356585706
1735576914512,149,-141,979,1000.261465817813,9717,-3823,13658,17192.334978123246
1735576914543,149,-141,979,1000.261465817813,9676,-3839,11980,15870.831641725646
1735576914573,246,-149,955,997.3675350641809,9641,-3855,10295,14621.796435458948
1735576914602,246,-149,955,997.3675350641809,9549,-3882,8702,13489.92694568803
1735576914632,246,-149,955,997.3675350641809,9480,-3927,7107,12482.034209214458
1735576914662,246,-149,955,997.3675350641809,9433,-3983,5510,11627.80624193575
1735576914692,221,-56,956,982.8087301199557,9390,-4084,3982,10986.695590576814
1735576914722,221,-56,956,982.8087301199557,9358,-4195,2442,10541.989992406558
1735576914752,221,-56,956,982.8087301199557,9355,-4309,896,10338.584139039542
1735576914782,111,-147,1008,1024.6921488915586,9458,-4393,-762,10456.235316785866
1735576914812,111,-147,1008,1024.6921488915586,9675,-4419,-2544,10936.412665952214
1735576914842,111,-147,1008,1024.6921488915586,9859,-4401,-4323,11630.004772140035
1735576914872,158,-19,975,987.9018169838539,10005,-4359,-6089,12497.072737245311
1735576914903,158,-19,975,987.9018169838539,9984,-4338,-7786,13383.583077786008
1735576914932,158,-19,975,987.9018169838539,9962,-4322,-9482,14416.291201276423
1735576914962,-40,-76,1046,1049.5198902355305,9941,-4298,-11189,15572.090611090085
1735576914992,-40,-76,1046,1049.5198902355305,10097,-4197,-13139,17093.786561204044
1735576915022,-40,-76,1046,1049.5198902355305,10189,-4064,-15071,18640.46292343621
1735576915052,-40,-76,1046,1049.5198902355305,10222,-3913,-16985,20206.21384624047
1735576915082,255,-104,956,994.8753690789615,10043,-3840,17364,20423.41658489098
1735576915112,255,-104,956,994.8753690789615,9834,-3830,15815,19012.908273065434
1735576915143,255,-104,956,994.8753690789615,9661,-3860,14264,17654.920475606792
1735576915173,72,-56,883,887.6987101488883,9543,-3913,12697,16358.30758361023
1735576915202,72,-56,883,887.6987101488883,9569,-3942,10901,15031.19842194893
1735576915232,72,-56,883,887.6987101488883,9599,-3964,9105,13811.412744538482
1735576915262,96,-56,901,907.8287283403187,9625,-3978,7307,12722.31732036267
1735576915292,96,-56,901,907.8287283403187,9629,-3990,5537,11802.377302899615
1735576915323,96,-56,901,907.8287283403187,9634,-4000,3765,11090.04873749435
1735576915353,96,-56,901,907.8287283403187,9642,-4009,1993,10630.72405812511
1735576915382,126,-127,909,926.4372617722152,9688,-4016,217,10489.646752870185
1735576915413,126,-127,909,926.4372617722152,9739,-4011,-1546,10645.48533416866
1735576915443,126,-127,909,926.4372617722152,9778,-3995,-3308,11068.521717013524
1735576915472,156,-65,1052,1065.488151036885,9760,-3996,-4992,11668.148096420442
1735576915502,156,-65,1052,1065.488151036885,9691,-4024,-6621,12407.48556315904
1735576915532,156,-65,1052,1065.488151036885,9642,-4065,-8252,13326.21075174785
1735576915563,43,-84,963,967.6125257560487,9621,-4108,-9905,14406.5377520069
1735576915593,43,-84,963,967.6125257560487,9723,-4113,-11725,15777.487854535018
1735576915622,43,-84,963,967.6125257560487,9807,-4097,-13543,17215.56002574415
1735576915652,43,-84,963,967.6125257560487,9870,-4063,-15357,18701.93353640206
1735576915682,134,-113,1023,1037.9084738068188,9902,-4040,-17082,20153.558693193616
1735576915713,134,-113,1023,1037.9084738068188,9910,-4018,17227,20276.14245856445
1735576915742,134,-113,1023,1037.9084738068188,9912,-3994,15538,18858.134160091235
1735576915772,228,-239,981,1035.1164185732925,9919,-3980,13882,17519.614293699506
1735576915802,228,-239,981,1035.1164185732925,9949,-3972,12294,16306.496282156999
1735576915832,228,-239,981,1035.1164185732925,9971,-3958,10707,15156.729660451163
1735576915863,155,-44,939,952.7234646003005,9974,-3933,9127,14080.173791541069
1735576915892,155,-44,939,952.7234646003005,9833,-3904,7480,12956.832367519462
1735576915922,155,-44,939,952.7234646003005,9712,-3902,5831,11981.198145427694
1735576915952,155,-44,939,952.7234646003005,9613,-3925,4180,11193.203026837313
1735576915982,183,-164,1015,1044.3227470470995,9628,-3967,2474,10703.090628411963
1735576916012,183,-164,1015,1044.3227470470995,9675,-3999,777,10497.683315855933
1735576916042,183,-164,1015,1044.3227470470995,9721,-4022,-920,10560.337352565968
1735576916072,219,-132,1024,1055.4435086730127,9708,-4030,-2575,10822.051053289299
1735576916102,219,-132,1024,1055.4435086730127,9650,-4046,-4189,11271.217192477483
1735576916132,219,-132,1024,1055.4435086730127,9606,-4074,-5805,11940.298865606337
1735576916162,48,-2,868,869.3284764690502,9583,-4101,-7429,12800.083241916827
1735576916192,48,-2,868,869.3284764690502,9593,-4097,-9257,13946.43707188327
1735576916222,48,-2,868,869.3284764690502,9601,-4092,-11085,15225.008702788975
1735576916252,48,-2,868,869.3284764690502,9605,-4085,-12912,16603.1019390956
1735576916282,201,-19,963,983.9364816897481,9571,-4151,-14568,17918.188133848802
1735576916312,201,-19,963,983.9364816897481,9530,-4233,-16171,19241.63272698032
1735576916372,201,-19,963,983.9364816897481,9515,-4321,-17779,20622.781262477667
1735576916373,71,-113,1041,1049.5194138271097,9606,-4381,16503,19591.25840776952
1735576916403,71,-113,1041,1049.5194138271097,9814,-4379,14657,18174.649542700954
1735576916432,71,-113,1041,1049.5194138271097,9981,-4335,12818,16814.092601148597
1735576916462,59,-32,948,950.373084635713,10078,-4256,11012,15522.363350984926
1735576916492,59,-32,948,950.373084635713,10035,-4168,9246,14267.514324506565
1735576916522,59,-32,948,950.373084635713,9978,-4091,7485,13127.147062480864
1735576916552,59,-32,948,950.373084635713,9912,-4026,5727,12134.86501779068
1735576916582,24,-121,1049,1056.2281950412041,9991,-3995,3921,11452.263837338014
1735576916612,24,-121,1049,1056.2281950412041,10074,-3937,2108,11019.487692265915
1735576916643,24,-121,1049,1056.2281950412041,10125,-3863,302,10841.106862308849
1735576916673,20,-164,994,1007.636839342429,10114,-3765,-1493,10894.827671881736
1735576916702,20,-164,994,1007.636839342429,10082,-3663,-3286,11218.827434273157
1735576916732,20,-164,994,1007.636839342429,10030,-3570,-5074,11793.696451918711
1735576916762,263,-99,955,995.4873178499062,9969,-3494,-6855,12592.855990600385
1735576916792,263,-99,955,995.4873178499062,9733,-3502,-8373,13307.983393437189
1735576916822,263,-99,955,995.4873178499062,9539,-3555,-9894,14195.83678407159
1735576916852,263,-99,955,995.4873178499062,9390,-3644,-11416,15224.187728742707
1735576916882,-2,-115,990,996.6589185874975,9417,-3705,-13185,16620.804402916245
1735576916911,-2,-115,990,996.6589185874975,9507,-3738,-15051,18190.33518107899
1735576916942,-2,-115,990,996.6589185874975,9589,-3749,-16917,19803.75749700041
1735576916972,249,-61,989,1021.6863510882388,9580,-3788,17347,20175.32535053648
1735576917002,249,-61,989,1021.6863510882388,9452,-3884,15811,18825.87264909651
1735576917032,249,-61,989,1021.6863510882388,9365,-4002,14273,17533.903102275886
1735576917062,109,-147,977,993.9914486553695,9315,-4119,12710,16287.40267814362
1735576917091,109,-147,977,993.9914486553695,9462,-4182,10937,15054.452397878842
1735576917122,109,-147,977,993.9914486553695,9599,-4214,9160,13921.357584661058
1735576917152,109,-147,977,993.9914486553695,9719,-4217,7384,12913.771950905746
1735576917183,94,-20,982,986.6914411304073,9790,-4211,5601,12039.427810323878
1735576917213,94,-20,982,986.6914411304073,9818,-4197,3813,11337.852618551717
1735576917243,94,-20,982,986.6914411304073,9836,-4178,2028,10877.286610179948
1735576917273,165,-120,1059,1078.473921798761,9830,-4156,290,10676.391525229861
1735576917302,165,-120,1059,1078.473921798761,9827,-4139,-1382,10752.26366864206
1735576917332,165,-120,1059,1078.473921798761,9820,-4122,-3055,11079.54462060603
1735576917362,95,-104,915,925.7785912409079,9800,-4103,-4720,11625.532632959232
1735576917391,95,-104,915,925.7785912409079,9794,-4071,-6448,12412.581560658524
1735576917422,95,-104,915,925.7785912409079,9780,-4040,-8175,13371.63509074339
1735576917451,95,-104,915,925.7785912409079,9762,-4012,-9900,14470.756303662914
1735576917482,-12,-72,934,936.8479065462013,9811,-3984,-11720,15795.13776451475
1735576917513,-12,-72,934,936.8479065462013,9855,-3939,-13574,17230.502662429786
1735576917543,-12,-72,934,936.8479065462013,9877,-3884,-15423,18721.89931604163
1735576917572,67,-209,1081,1103.055302330758,9916,-3834,-17259,20270.660892038028
1735576917602,67,-209,1081,1103.055302330758,9981,-3778,16954,20033.266358734414
1735576917631,67,-209,1081,1103.055302330758,10019,-3708,15175,18558.293294373812
1735576917662,58,-48,948,950.9847527694648,10029,-3623,13397,17122.691932053207
1735576917693,58,-48,948,950.9847527694648,9888,-3538,11607,15652.873122848725
1735576917722,58,-48,948,950.9847527694648,9753,-3487,9816,14270.03973365176
1735576917752,58,-48,948,950.9847527694648,9631,-3468,8022,13005.216991653773
1735576917782,68,-101,1063,1069.950466143176,9568,-3497,6264,11958.818043602803
1735576917813,68,-101,1063,1069.950466143176,9535,-3537,4508,11124.237412065602
1735576917843,68,-101,1063,1069.950466143176,9518,-3582,2749,10534.70687774463
1735576917873,229,-155,1020,1056.8188113390108,9454,-3647,1072,10189.598078432731
1735576917902,229,-155,1020,1056.8188113390108,9365,-3743,-478,10096.621117978033
1735576917932,229,-155,1020,1056.8188113390108,9311,-3855,-2031,10280.112207558826
1735576917962,58,-119,966,975.0287175257968,9289,-3965,-3594,10720.241695036544
1735576917992,58,-119,966,975.0287175257968,9377,-4037,-5368,11534.336651927582
1735576918022,58,-119,966,975.0287175257968,9468,-4088,-7145,12546.146539874306
1735576918052,58,-119,966,975.0287175257968,9556,-4118,-8925,13708.781309802853
1735576918082,133,-118,929,945.8615120618874,9593,-4159,-10591,14882.614387264088
1735576918112,133,-118,929,945.8615120618874,9616,-4197,-12231,16114.578058391724
1735576918142,133,-118,929,945.8615120618874,9644,-4231,-13873,17417.468989494428
1735576918172,215,-134,966,998.6676123716038,9705,-4264,-15543,18813.65381843729
1735576918202,215,-134,966,998.6676123716038,9755,-4294,-17180,20217.587912508257
1735576918231,215,-134,966,998.6676123716038,9804,-4315,17181,20246.58988570668
1735576918262,122,-71,1005,1014.8645229783136,9851,-4323,15540,18900.3208967467
1735576918292,122,-71,1005,1014.8645229783136,9915,-4302,13790,17520.80274987422
1735576918322,122,-71,1005,1014.8645229783136,9960,-4268,12043,16200.347928362526
1735576918352,122,-71,1005,1014.8645229783136,9988,-4226,10300,14956.912114470688
1735576918382,67,-128,1106,1115.396342113421,10054,-4138,8474,13784.579645386362
1735576918412,67,-128,1106,1115.396342113421,10106,-4029,6639,12745.210786801448
1735576918443,67,-128,1106,1115.396342113421,10116,-3910,4815,11866.161173690503
1735576918473,190,-20,928,947.4618725837995,10007,-3824,3105,11153.65635117023
1735576918503,190,-20,928,947.4618725837995,9784,-3807,1511,10606.744363846996
1735576918532,190,-20,928,947.4618725837995,9598,-3833,-86,10335.419149700703
1735576918562,13,-146,984,994.8572761959375,9455,-3888,-1686,10361.282015272049
1735576918592,13,-146,984,994.8572761959375,9568,-3911,-3479,10906.236106008342
1735576918622,13,-146,984,994.8572761959375,9666,-3908,-5272,11683.236024321344
1735576918652,13,-146,984,994.8572761959375,9744,-3885,-7062,12645.5764993139
1735576918682,129,-126,969,985.6358353874924,9776,-3862,-8813,13716.930742698965
1735576918713,129,-126,969,985.6358353874924,9769,-3843,-10521,14862.484684601024
1735576918743,129,-126,969,985.6358353874924,9759,-3827,-12229,16106.906934604172
1735576918773,83,-45,943,947.7146194925981,9729,-3816,-13954,17433.571435595175
1735576918802,83,-45,943,947.7146194925981,9677,-3816,-15713,18844.218052230237
1735576918832,83,-45,943,947.7146194925981,9634,-3827,-17473,20316.63392395502
1735576918862,9,-129,1070,1077.7856929835357,9591,-3856,16782,19710.188761145844
1735576918892,9,-129,1070,1077.7856929835357,9656,-3888,14990,18249.793971439787
1735576918922,9,-129,1070,1077.7856929835357,9718,-3905,13197,16847.82947444566
1735576918952,130,-53,1014,1023.6723108495218,9762,-3902,11406,15511.901366370275
1735576918982,130,-53,1014,1023.6723108495218,9641,-3914,9747,14257.359012103188
1735576919012,130,-53,1014,1023.6723108495218,9545,-3949,8085,13117.5017057365
1735576919042,130,-53,1014,1023.6723108495218,9474,-4003,6421,12124.764987413158
1735576919072,68,-63,974,978.4012469329748,9495,-4061,4683,11339.19022681955
1735576919102,68,-63,974,978.4012469329748,9542,-4108,2920,10791.284816925185
1735576919132,68,-63,974,978.4012469329748,9593,-4144,1153,10513.219963455535
1735576919162,-66,-134,954,965.6231148848913,9641,-4172,-616,10523.018625850664
1735576919192,-66,-134,954,965.6231148848913,9832,-4154,-2540,10971.578737811618
1735576919222,-66,-134,954,965.6231148848913,9979,-4094,-4456,11670.356164230807
1735576919252,82,-27,1055,1058.5263341079428,10095,-4003,-6371,12590.578819101209
1735576919282,82,-27,1055,1058.5263341079428,10019,-3938,-8137,13494.40528515429
1735576919312,82,-27,1055,1058.5263341079428,9940,-3890,-9903,14560.395221284345
1735576919342,82,-27,1055,1058.5263341079428,9864,-3859,-11668,15758.572302083714
1735576919372,193,-96,958,981.9516281365392,9742,-3861,-13282,16918.197569481214
1735576919402,193,-96,958,981.9516281365392,9638,-3892,-14858,18132.81202682033
1735576919432,193,-96,958,981.9516281365392,9559,-3941,-16436,19417.72535597308
1735576919462,198,-76,935,958.7517926971506,9505,-3997,17972,20719.88943020691
1735576919492,198,-76,935,958.7517926971506,9463,-4059,16378,19345.871239104225
1735576919522,198,-76,935,958.7517926971506,9443,-4129,14780,18018.5262993398
1735576919552,31,-107,1033,1038.989412843076,9450,-4206,13167,16744.038491355663
1735576919582,31,-107,1033,1038.989412843076,9635,-4257,11333,15472.30309294644
1735576919612,31,-107,1033,1038.989412843076,9800,-4268,9497,14298.560521954649
1735576919643,31,-107,1033,1038.989412843076,9936,-4243,7665,13246.862647434675
1735576919672,148,-116,1019,1036.2050955288726,10019,-4201,5862,12344.707610956202
1735576919702,148,-116,1019,1036.2050955288726,10054,-4155,4108,11628.525486922235
1735576919732,148,-116,1019,1036.2050955288726,10069,-4102,2359,11125.46834969207
1735576919762,86,0,950,953.8846890478953,10052,-4034,588,10847.193369715504
1735576919791,86,0,950,953.8846890478953,9987,-3966,-1226,10815.37798692214
1735576919822,86,0,950,953.8846890478953,9917,-3914,-3039,11086.108695119312
1735576919852,71,-225,1008,1035.24393260719,9815,-3882,-4822,11604.129997548287
1735576919882,71,-225,1008,1035.24393260719,9859,-3853,-6566,12456.23723280831
1735576919912,71,-225,1008,1035.24393260719,9886,-3815,-8308,13465.143333808222
1735576919943,71,-225,1008,1035.24393260719,9899,-3773,-10046,14599.583761189906
1735576919973,-7,7,932,932.052573624471,9842,-3722,-11873,15864.62659503841
1735576920002,-7,7,932,932.052573624471,9740,-3694,-13727,17232.05631954585
1735576920032,-7,7,932,932.052573624471,9649,-3690,-15583,18696.23464765031
1735576920063,236,-143,1082,1116.6328850611555,9560,-3736,-17337,20147.52751580203
1735576920092,236,-143,1082,1116.6328850611555,9479,-3826,17087,19911.184947159723
1735576920122,236,-143,1082,1116.6328850611555,9432,-3930,15510,18573.304067935787
1735576920152,10,-100,894,899.6310354806575,9405,-4034,13937,17290.6665574234
1735576920182,10,-100,894,899.6310354806575,9505,-4094,12123,15939.667185986036
1735576920213,10,-100,894,899.6310354806575,9602,-4132,10306,14679.423149429273
1735576920243,10,-100,894,899.6310354806575,9692,-4148,8488,13534.655961641582
1735576920272,81,-176,1000,1018.5956017969055,9826,-4167,6724,12614.528964650246
1735576920303,81,-176,1000,1018.5956017969055,9945,-4160,4988,11878.079348110114
1735576920333,81,-176,1000,1018.5956017969055,10039,-4129,3256,11332.770976244072
1735576920362,92,-199,1027,1050.139990667911,10077,-4081,1558,10983.071246240734
1735576920392,92,-199,1027,1050.139990667911,10087,-4029,-115,10862.487514377173
1735576920422,92,-199,1027,1050.139990667911,10083,-3975,-1786,10984.412137206069
1735576920452,159,-82,1054,1069.074833676296,10106,-3916,-3504,11390.53589608496
1735576920482,159,-82,1054,1069.074833676296,10045,-3863,-5246,11972.69017389158
1735576920512,159,-82,1054,1069.074833676296,9982,-3823,-6988,12770.58326780731
1735576920543,159,-82,1054,1069.074833676296,9921,-3797,-8729,13749.14146410604
1735576920572,165,-31,942,956.8437699018581,9733,-3801,-10362,14715.63569812735
1735576920602,165,-31,942,956.8437699018581,9567,-3845,-11996,15818.202489537172
1735576920632,165,-31,942,956.8437699018581,9440,-3921,-13633,17039.557799426602
1735576920662,97,-134,993,1006.6846576758782,9442,-4014,-15337,18452.293326305
1735576920692,97,-134,993,1006.6846576758782,9568,-4081,-17116,20028.94507955923
1735576920722,97,-134,993,1006.6846576758782,9689,-4120,17100,20081.36252847401
1735576920752,44,-86,963,967.8331467768605,9806,-4129,15306,18640.813099218605
1735576920782,44,-86,963,967.8331467768605,9913,-4100,13437,17193.909910197854
1735576920812,44,-86,963,967.8331467768605,9990,-4048,11575,15816.669339655553
1735576920843,44,-86,963,967.8331467768605,10037,-3981,9719,14527.514962993499
1735576920872,29,-147,956,967.6703984312014,10076,-3928,7926,13408.073537984494
1735576920902,29,-147,956,967.6703984312014,10111,-3862,6133,12440.29959446315
1735576920932,29,-147,956,967.6703984312014,10122,-3789,4345,11648.623523833192
1735576920962,121,-110,988,1001.4414610949559,10088,-3720,2575,11056.073851055808
1735576920993,121,-110,988,1001.4414610949559,9994,-3677,861,10683.711246565961
1735576921022,121,-110,988,1001.4414610949559,9908,-3656,-853,10595.39565094197
1735576921052,-19,-133,1019,1027.8185637552963,9834,-3644,-2582,10800.60257578252
1735576921083,-19,-133,1019,1027.8185637552963,9867,-3595,-4480,11417.185029594642
1735576921113,-19,-133,1019,1027.8185637552963,9879,-3540,-6374,12278.196813864812
1735576921143,-19,-133,1019,1027.8185637552963,9873,-3484,-8265,13338.838405198558
1735576921172,126,-126,925,942.0069001870421,9743,-3454,-10029,14402.673571250582
1735576921202,126,-126,925,942.0069001870421,9606,-3466,-11746,15564.604331623725
1735576921232,126,-126,925,942.0069001870421,9497,-3508,-13465,16846.52183686591
1735576921262,-18,-129,1046,1054.078270338593,9483,-3558,-15233,18292.920543204684
1735576921292,-18,-129,1046,1054.078270338593,9553,-3584,-17103,19915.2573169417
1735576921322,-18,-129,1046,1054.078270338593,9617,-3593,17026,19881.675331822516
1735576921352,87,-132,917,930.5278072148086,9651,-3591,15161,18327.383964985293
1735576921382,87,-132,917,930.5278072148086,9588,-3616,13411,16877.79964924338
1735576921412,87,-132,917,930.5278072148086,9542,-3654,11659,15502.701732278796
1735576921443,87,-132,917,930.5278072148086,9515,-3700,9905,14224.424417177659
1735576921472,-148,-132,1061,1079.3743558191477,9637,-3712,7988,13055.98931525298
1735576921502,-148,-132,1061,1079.3743558191477,9779,-3674,5992,12042.889229748815
1735576921533,-148,-132,1061,1079.3743558191477,9879,-3603,4004,11252.033860596048
1735576921562,24,-75,971,974.1878668922129,9876,-3520,2063,10685.585851978356
1735576921593,24,-75,971,974.1878668922129,9759,-3476,231,10362.143504121143
1735576921622,24,-75,971,974.1878668922129,9654,-3460,-1602,10379.678222372791
1735576921652,20,-127,1042,1049.901423944172,9554,-3467,-3424,10724.86741176785
1735576921682,20,-127,1042,1049.901423944172,9499,-3487,-5228,11389.563380569072
1735576921713,20,-127,1042,1049.901423944172,9460,-3518,-7034,12302.238820637485
1735576921743,20,-127,1042,1049.901423944172,9437,-3557,-8842,13412.314565353738
1735576921772,127,-80,940,951.9080837980104,9376,-3634,-10554,14577.45684267321
1735576921802,127,-80,940,951.9080837980104,9315,-3732,-12232,15821.46873713057
1735576921832,127,-80,940,951.9080837980104,9287,-3839,-13914,17163.49865266403
1735576921862,148,-66,1032,1044.645394380313,9302,-3946,-15590,18578.11131412448
1735576921893,148,-66,1032,1044.645394380313,9333,-4047,-17255,20030.429925490866
1735576921922,148,-66,1032,1044.645394380313,9384,-4140,17074,19917.84456210059
1735576921952,-3,-48,937,938.233446430045,9450,-4213,15383,18538.839176172816
1735576921982,-3,-48,937,938.233446430045,9618,-4229,13488,17097.266126489347
1735576922013,-3,-48,937,938.233446430045,9758,-4208,11596,15728.73307040335
1735576922043,-3,-48,937,938.233446430045,9864,-4157,9710,14452.10175026456
1735576922072,91,-131,1025,1037.3364931400033,9917,-4132,7948,13363.79500740714
1735576922102,91,-131,1025,1037.3364931400033,9955,-4100,6224,12435.843397212751
1735576922132,91,-131,1025,1037.3364931400033,9978,-4061,4504,11676.395890856047
1735576922162,-62,-120,1075,1083.4523524364142,10017,-3988,2702,11115.09050795359
1735576922192,-62,-120,1075,1083.4523524364142,10079,-3870,783,10824.796995787034
1735576922222,-62,-120,1075,1083.4523524364142,10093,-3740,-1122,10821.974542568469
1735576922252,116,10,893,900.5581602539617,10060,-3604,-3023,11105.446636673376
1735576922282,116,10,893,900.5581602539617,9782,-3527,-4748,11431.131046401313
1735576922312,116,10,893,900.5581602539617,9539,-3513,-6480,12055.044172461585
1735576922343,116,10,893,900.5581602539617,9339,-3552,-8215,12935.217431492985
1735576922373,85,-62,1034,1039.3387320792006,9270,-3639,-9956,14081.80233492858
1735576922402,85,-62,1034,1039.3387320792006,9258,-3731,-11711,15387.60689646054
1735576922433,85,-62,1034,1039.3387320792006,9272,-3823,-13470,16793.636086327464
1735576922462,79,-2,990,993.1490321195505,9289,-3903,-15233,18263.71317667905
1735576922492,79,-2,990,993.1490321195505,9293,-3980,-17004,19782.22093193785
1735576922522,79,-2,990,993.1490321195505,9317,-4054,17220,19994.244296797016
1735576922552,14,-114,1059,1065.2103078735204,9369,-4124,15428,18515.094409697187
1735576922582,14,-114,1059,1065.2103078735204,9592,-4162,13537,17104.94305749072
1735576922613,14,-114,1059,1065.2103078735204,9783,-4150,11648,15767.228450174749
1735576922643,-37,-116,968,975.6274903875967,9923,-4091,9767,14511.943322656687
1735576922672,-37,-116,968,975.6274903875967,10033,-3979,7844,13342.483501957198
1735576922702,-37,-116,968,975.6274903875967,10086,-3845,5937,12319.066117202228
1735576922732,-37,-116,968,975.6274903875967,10090,-3702,4041,11482.272640901712
1735576922762,29,-96,1014,1018.9470054914534,10025,-3587,2203,10872.920628791511
1735576922792,29,-96,1014,1018.9470054914534,9910,-3503,412,10518.975853190272
1735576922822,29,-96,1014,1018.9470054914534,9797,-3447,-1379,10476.863032415762
1735576922852,87,-100,1015,1023.6180928451782,9704,-3414,-3196,10772.06702541346
1735576922883,87,-100,1015,1023.6180928451782,9619,-3405,-5000,11363.062351320616
1735576922912,87,-100,1015,1023.6180928451782,9547,-3416,-6805,12211.563781924082
1735576922943,-88,-166,966,984.1016207689123,9470,-3447,-8581,13236.172785212499
1735576922973,-88,-166,966,984.1016207689123,9523,-3468,-10479,14578.202701293461
1735576923002,-88,-166,966,984.1016207689123,9571,-3476,-12376,16026.60266556827
1735576923032,-88,-166,966,984.1016207689123,9613,-3472,-14273,17555.144032448152
1735576923062,172,-39,949,965.2491906238513,9494,-3504,-15995,18927.600930915676
1735576923092,172,-39,949,965.2491906238513,9330,-3587,-17629,20265.663324944486
1735576923121,172,-39,949,965.2491906238513,9213,-3701,16733,19456.876907664293
1735576923152,98,-34,985,990.4468688425442,9153,-3829,15078,18049.50786032683
1735576923182,98,-34,985,990.4468688425442,9199,-3942,13301,16645.647058615654
1735576923212,98,-34,985,990.4468688425442,9266,-4041,11518,15324.906557627031
1735576923243,50,-140,1065,1075.3255321064407,9349,-4125,9727,14107.939431398194
1735576923273,50,-140,1065,1075.3255321064407,9559,-4171,7875,13068.563310479083
1735576923302,50,-140,1065,1075.3255321064407,9743,-4170,6024,12190.304549107868
1735576923332,50,-140,1065,1075.3255321064407,9891,-4130,4179,11504.469653139166
1735576923362,-56,-98,959,965.6194902755433,10007,-4045,2253,11026.245190453548
1735576923392,-56,-98,959,965.6194902755433,10082,-3928,302,10824.375824960995
1735576923422,-56,-98,959,965.6194902755433,10107,-3797,-1634,10919.643492349007
1735576923452,93,-62,981,987.3469501649357,10025,-3690,-3434,11220.921575343087
1735576923483,93,-62,981,987.3469501649357,9851,-3642,-5094,11672.840314165185
1735576923513,93,-62,981,987.3469501649357,9699,-3631,-6757,12365.751533974795
1735576923543,184,-67,948,968.0129131370097,9585,-3652,-8449,13288.902512999333
1735576923573,184,-67,948,968.0129131370097,9471,-3711,-10100,14334.621097189838
1735576923602,184,-67,948,968.0129131370097,9390,-3791,-11754,15514.518909718085
1735576923632,184,-67,948,968.0129131370097,9342,-3886,-13411,16799.66907412167
1735576923662,31,-137,1012,1021.7015219720483,9431,-3942,-15202,18318.94999720235
1735576923692,31,-137,1012,1021.7015219720483,9564,-3961,-17051,19947.336112874822
1735576923722,31,-137,1012,1021.7015219720483,9678,-3951,17101,20042.9111159033
1735576923752,5,35,880,880.7099408999537,9708,-3921,15257,18503.933473723904
1735576923782,5,35,880,880.7099408999537,9641,-3903,13401,16963.758162624224
1735576923812,5,35,880,880.7099408999537,9583,-3901,11543,15501.372165069775
1735576923843,131,-8,979,987.7580675448821,9559,-3917,9671,14150.81661954532
1735576923872,131,-8,979,987.7580675448821,9545,-3959,7907,13011.585414544994
1735576923902,131,-8,979,987.7580675448821,9545,-4002,6140,12034.22739522567
1735576923932,131,-8,979,987.7580675448821,9556,-4044,4370,11259.12838544796
1735576923962,198,-71,1019,1040.4835414363843,9515,-4086,2657,10690.662748398716
1735576923993,198,-71,1019,1040.4835414363843,9493,-4137,967,10400.332062006482
1735576924022,198,-71,1019,1040.4835414363843,9488,-4190,-726,10397.3708215106
1735576924052,-38,-156,1020,1032.5599256217529,9594,-4223,-2483,10772.365292729355
1735576924082,-38,-156,1020,1032.5599256217529,9842,-4182,-4400,11563.480790834567
1735576924113,-38,-156,1020,1032.5599256217529,10028,-4088,-6302,12529.474530083055
1735576924142,-58,-108,1016,1023.3689461772816,10160,-3960,-8198,13642.375306375352
1735576924172,-58,-108,1016,1023.3689461772816,10222,-3812,-10120,14880.693129017882
1735576924202,-58,-108,1016,1023.3689461772816,10229,-3653,-12028,16206.468893623929
1735576924232,-58,-108,1016,1023.3689461772816,10188,-3496,-13926,17605.42064251803
1735576924262,46,-56,1002,1004.6173400852684,10019,-3381,-15728,18952.084476384123
1735576924292,46,-56,1002,1004.6173400852684,9826,-3321,-17499,20341.93496204331
1735576924322,46,-56,1002,1004.6173400852684,9656,-3306,16724,19592.349221060755
1735576924352,82,-52,907,912.1825475199578,9499,-3338,14981,18050.030637093114
1735576924382,82,-52,907,912.1825475199578,9362,-3411,13271,16595.222384770866
1735576924412,82,-52,907,912.1825475199578,9267,-3513,11559,15225.929823823568
1735576924443,85,-19,903,907.1907186474077,9201,-3626,9842,13952.463617583813
1735576924473,85,-19,903,907.1907186474077,9121,-3748,8120,12773.979215577267
1735576924502,85,-19,903,907.1907186474077,9085,-3883,6394,11768.523696708946
1735576924532,85,-19,903,907.1907186474077,9089,-4020,4660,10976.607900439916
1735576924562,91,-107,1051,1060.3447552565156,9292,-4142,2817,10556.179090940055
1735576924592,91,-107,1051,1060.3447552565156,9513,-4211,967,10448.195011579752
1735576924622,91,-107,1051,1060.3447552565156,9713,-4230,-885,10631.01566173242
1735576924651,18,-166,1012,1025.682211993559,9873,-4196,-2741,11072.290910195596
1735576924682,18,-166,1012,1025.682211993559,10033,-4108,-4629,11788.315995085983
1735576924712,18,-166,1012,1025.682211993559,10135,-3987,-6503,12684.770514282078
1735576924743,-92,-109,925,935.9326898874726,10186,-3853,-8348,13721.855158833298
1735576924772,-92,-109,925,935.9326898874726,10217,-3700,-10272,14952.962014263261
1735576924802,-92,-109,925,935.9326898874726,10197,-3544,-12183,16277.72201507324
1735576924832,-92,-109,925,935.9326898874726,10136,-3396,-14088,17684.542855273357
1735576924862,-5,-18,979,979.1782268821137,9976,-3300,-15928,19081.712711389406
1735576924892,-5,-18,979,979.1782268821137,9787,-3258,-17742,20522.633773470694
1735576924922,-5,-18,979,979.1782268821137,9625,-3262,16438,19325.866423009345
1735576924952,37,51,883,885.2451637823276,9442,-3281,14639,17726.15711314779
1735576924983,37,51,883,885.2451637823276,9235,-3342,12869,16188.432598618065
1735576925012,37,51,883,885.2451637823276,9082,-3447,11096,14747.398041688575
1735576925043,36,-57,964,966.3544898224461,8993,-3592,9312,13434.651353868474
1735576925073,36,-57,964,966.3544898224461,9065,-3749,7506,12351.893053293492
1735576925102,36,-57,964,966.3544898224461,9165,-3884,5691,11466.043868745663
1735576925132,36,-57,964,966.3544898224461,9284,-3991,3866,10819.736272201832
1735576925162,63,-156,1034,1047.5977281380483,9410,-4100,2129,10482.878469199191
1735576925192,63,-156,1034,1047.5977281380483,9561,-4176,395,10440.676319089678
1735576925222,63,-156,1034,1047.5977281380483,9705,-4220,-1342,10667.539032035458
1735576925252,77,-194,1093,1112.7506459220772,9861,-4211,-3117,11166.357105161916
1735576925282,77,-194,1093,1112.7506459220772,10006,-4158,-4896,11890.324469920912
1735576925313,77,-194,1093,1112.7506459220772,10108,-4075,-6665,12774.956516560047
1735576925343,47,-85,882,887.331955921796,10149,-3970,-8406,13763.136888078967
1735576925373,47,-85,882,887.331955921796,10049,-3862,-10138,14787.714123555405
1735576925401,47,-85,882,887.331955921796,9943,-3777,-11868,15936.699846580534
1735576925432,47,-85,882,887.331955921796,9836,-3716,-13599,17189.774664026285
1735576925462,-49,-152,1094,1105.5953147512882,9878,-3660,-15499,18740.050293422373
1735576925492,-49,-152,1094,1105.5953147512882,9929,-3583,-17427,20374.57383603397
1735576925522,-49,-152,1094,1105.5953147512882,9946,-3495,16651,19707.707679991603
1735576925552,87,-58,950,955.7368884792509,9880,-3427,14802,18123.408426672948
1735576925582,87,-58,950,955.7368884792509,9717,-3413,13054,16627.554660863396
1735576925612,87,-58,950,955.7368884792509,9581,-3436,11303,15210.505119817684
1735576925642,129,-58,969,979.2680940375827,9464,-3481,9550,13888.382087197919
1735576925672,129,-58,969,979.2680940375827,9333,-3545,7841,12694.612833796862
1735576925702,129,-58,969,979.2680940375827,9242,-3635,6129,11670.151241522108
1735576925732,129,-58,969,979.2680940375827,9188,-3741,4414,10858.076302918487
1735576925762,115,-96,946,957.787554732259,9204,-3854,2686,10333.514794105633
1735576925792,115,-96,946,957.787554732259,9258,-3956,947,10112.23560841024
1735576925822,115,-96,946,957.787554732259,9328,-4043,-797,10197.678265173892
1735576925852,72,-158,963,978.5279760947052,9412,-4127,-2519,10581.26807145533
1735576925882,72,-158,963,978.5279760947052,9544,-4191,-4256,11259.0387245093
1735576925912,72,-158,963,978.5279760947052,9669,-4225,-5996,12136.3998780528
1735576925943,130,16,964,972.857646318309,9791,-4228,-7754,13185.756747339154
1735576925973,130,16,964,972.857646318309,9729,-4226,-9480,14226.134998656522
1735576926002,130,16,964,972.857646318309,9677,-4235,-11206,15399.804868893632
1735576926032,130,16,964,972.857646318309,9638,-4255,-12935,16682.634504178288
1735576926063,185,-95,957,979.3359995425471,9622,-4300,-14572,17983.772351762018
1735576926092,185,-95,957,979.3359995425471,9635,-4344,-16191,19335.25386437944
1735576926122,185,-95,957,979.3359995425471,9656,-4386,-17812,20730.235792194937
1735576926152,75,-75,919,925.1005350771342,9726,-4405,16503,19655.739874143634
1735576926182,75,-75,919,925.1005350771342,9836,-4387,14726,18244.1152430037
1735576926212,75,-75,919,925.1005350771342,9921,-4348,12954,16886.013768796944
1735576926243,275,-17,936,975.7099978989659,9977,-4302,11198,15602.658010736504
1735576926272,275,-17,936,975.7099978989659,9819,-4321,9696,14460.159680999377
1735576926302,275,-17,936,975.7099978989659,9693,-4367,8192,13421.393444795514
1735576926332,275,-17,936,975.7099978989659,9598,-4433,6684,12507.95542844633
1735576926363,68,-135,986,997.5194233697908,9748,-4463,4941,11804.88686942827
1735576926393,68,-135,986,997.5194233697908,9956,-4436,3118,11336.752445034688
1735576926422,68,-135,986,997.5194233697908,10115,-4368,1305,11094.848985002003
1735576926452,200,-54,923,945.9624728286001,10187,-4273,-472,11056.956271958392
1735576926482,200,-54,923,945.9624728286001,10129,-4194,-2158,11173.327212607712
1735576926512,200,-54,923,945.9624728286001,10063,-4127,-3841,11534.703247158117
1735576926543,157,-113,887,907.8474541463451,9992,-4079,-5514,12119.509107220474
1735576926572,157,-113,887,907.8474541463451,9998,-4037,-7216,12974.129219334915
1735576926602,157,-113,887,907.8474541463451,9992,-3995,-8915,13974.165950066572
1735576926632,165,-166,994,1021.1841166018986,9979,-3951,-10625,15102.36627154831
1735576926662,165,-166,994,1021.1841166018986,9996,-3899,-12349,16359.095879662787
1735576926692,165,-166,994,1021.1841166018986,9996,-3844,-14069,17681.43413301082
1735576926722,165,-166,994,1021.1841166018986,9983,-3790,-15787,19059.217140271005
1735576926752,176,-75,1000,1018.1360419904602,9849,-3743,-17435,20371.354275059868
1735576926782,176,-75,1000,1018.1360419904602,9705,-3729,16917,19856.418483704456
1735576926812,176,-75,1000,1018.1360419904602,9585,-3745,15268,18412.19905388816
1735576926843,159,-189,1099,1126.411558889556,9494,-3787,13613,17023.25391927172
1735576926872,159,-189,1099,1126.411558889556,9539,-3831,11927,15745.552102101723
1735576926903,159,-189,1099,1126.411558889556,9587,-3864,10240,14549.868212461583
1735576926933,161,-44,910,925.1794420543508,9617,-3895,8576,13461.258856436867
1735576926963,161,-44,910,925.1794420543508,9502,-3956,6959,12424.396202632946
1735576926992,161,-44,910,925.1794420543508,9420,-4038,5339,11556.243550566074
1735576927022,161,-44,910,925.1794420543508,9372,-4134,3714,10895.785240174295
1735576927052,113,-95,928,939.669090690973,9434,-4224,2012,10530.464187299627
1735576927082,113,-95,928,939.669090690973,9532,-4293,285,10458.015968624259
1735576927113,113,-95,928,939.669090690973,9630,-4341,-1445,10661.576149894536
1735576927142,-15,-122,950,957.9190988804847,9822,-4351,-3288,11234.492823443345
1735576927172,-15,-122,950,957.9190988804847,10076,-4286,-5252,12144.09634349135
1735576927202,-15,-122,950,957.9190988804847,10256,-4166,-7196,13203.162802904462
1735576927232,199,-133,924,954.4977737009134,10321,-4019,-9078,14320.806052733205
1735576927262,199,-133,924,954.4977737009134,10144,-3949,-10644,15224.653460752399
1735576927293,199,-133,924,954.4977737009134,9984,-3911,-12213,16252.185883751146
1735576927323,199,-133,924,954.4977737009134,9844,-3905,-13785,17383.31343559104
1735576927352,145,-134,1002,1021.2663707378208,9790,-3901,-15423,18679.690307925342
1735576927382,145,-134,1002,1021.2663707378208,9755,-3903,-17081,20053.777574312528
1735576927413,145,-134,1002,1021.2663707378208,9727,-3912,17259,20193.844458151103
1735576927442,48,-120,971,979.5636783793078,9760,-3908,15500,18729.123417821775
1735576927473,48,-120,971,979.5636783793078,9831,-3874,13642,17255.741102601187
1735576927502,48,-120,971,979.5636783793078,9879,-3825,11789,15849.47276725633
1735576927532,99,-129,1018,1030.9054272822507,9892,-3769,9958,14533.368123047045
1735576927562,99,-129,1018,1030.9054272822507,9846,-3731,8220,13357.861992100383
1735576927592,99,-129,1018,1030.9054272822507,9800,-3704,6481,12319.211703676498
1735576927622,99,-129,1018,1030.9054272822507,9756,-3687,4743,11457.292612131367
1735576927652,145,-84,929,943.9925847166386,9670,-3694,3057,10793.506612774183
1735576927682,145,-84,929,943.9925847166386,9582,-3726,1385,10373.814390088151
1735576927713,145,-84,929,943.9925847166386,9518,-3775,-288,10243.334076364004
1735576927743,104,5,891,897.0629855255427,9445,-3835,-1966,10381.734248188017
1735576927772,104,5,891,897.0629855255427,9361,-3915,-3670,10790.016033352314
1735576927802,104,5,891,897.0629855255427,9312,-4009,-5378,11476.42405107096
1735576927832,205,-79,974,998.4698292887973,9318,-4116,-7103,12418.501882272274
1735576927862,205,-79,974,998.4698292887973,9392,-4230,-8742,13510.18608310041
1735576927892,205,-79,974,998.4698292887973,9481,-4327,-10388,14714.714880010417
1735576927922,205,-79,974,998.4698292887973,9579,-4406,-12041,16004.866697351777
1735576927952,59,-72,1041,1045.1535772315951,9747,-4410,-13892,17533.960562291682
1735576927982,59,-72,1041,1045.1535772315951,9915,-4366,-15794,19152.535524050072
1735576928012,59,-72,1041,1045.1535772315951,10036,-4287,-17684,20780.363832233543
1735576928042,19,-79,919,922.5849554377093,10084,-4194,16468,19760.357183006585
1735576928072,19,-79,919,922.5849554377093,10101,-4092,14625,18239.11428770597
1735576928102,19,-79,919,922.5849554377093,10086,-3988,12791,16770.24808999557
1735576928132,167,-141,1070,1092.0943182710914,10050,-3893,10963,15373.526531020785
1735576928162,167,-141,1070,1092.0943182710914,9964,-3841,9297,14158.700010947332
1735576928192,167,-141,1070,1092.0943182710914,9882,-3807,7630,13052.358905577183
1735576928222,167,-141,1070,1092.0943182710914,9807,-3790,5962,12086.636959882597
1735576928252,24,-97,949,954.2462994426544,9783,-3758,4194,11288.015281704751
1735576928282,24,-97,949,954.2462994426544,9770,-3723,2378,10722.337105314307
1735576928312,24,-97,949,954.2462994426544,9750,-3691,563,10440.44778733173
1735576928372,-10,-88,1025,1028.8192261034005,9732,-3672,-1234,10474.643860294249
1735576928373,-10,-88,1025,1028.8192261034005,9722,-3656,-3043,10823.283651461787
1735576928402,-10,-88,1025,1028.8192261034005,9710,-3643,-4851,11449.35587707885
1735576928432,95,-111,1033,1043.2808826006542,9707,-3638,-6672,12327.873985403972
1735576928462,95,-111,1033,1043.2808826006542,9684,-3662,-8411,13339.228650862839
1735576928492,95,-111,1033,1043.2808826006542,9671,-3690,-10151,14497.832320729882
1735576928522,95,-111,1033,1043.2808826006542,9668,-3720,-11893,15771.876013968662
1735576928552,69,-116,973,982.316649558583,9700,-3715,-13743,17226.76040351174
1735576928582,69,-116,973,982.316649558583,9730,-3702,-15601,18755.503325690835
1735576928613,69,-116,973,982.316649558583,9750,-3681,-17457,20331.234837067816
1735576928643,185,-107,1025,1047.0429790605542,9725,-3673,16772,19732.37284261576
1735576928672,185,-107,1025,1047.0429790605542,9652,-3693,15104,18301.09748075235
1735576928702,185,-107,1025,1047.0429790605542,9597,-3728,13435,16926.299595599743
1735576928732,176,-90,970,989.9373717564157,9543,-3768,11770,15614.082521877486
1735576928762,176,-90,970,989.9373717564157,9468,-3813,10106,14363.607798878385
1735576928792,176,-90,970,989.9373717564157,9418,-3873,8439,13225.565167507966
1735576928822,176,-90,970,989.9373717564157,9391,-3941,6769,12228.72532196222
1735576928853,270,-31,1014,1049.789026423881,9291,-4036,5208,11390.137883274285
1735576928883,270,-31,1014,1049.789026423881,9194,-4156,3679,10739.50711159502
1735576928913,270,-31,1014,1049.789026423881,9137,-4291,2146,10320.017732542905
1735576928943,107,-33,963,969.4880092089845,9153,-4419,530,10177.71437995781
1735576928972,107,-33,963,969.4880092089845,9277,-4519,-1231,10392.27843160488
1735576929002,107,-33,963,969.4880092089845,9406,-4591,-3003,10888.899209745676
1735576929032,70,-114,1049,1057.4956264684974,9557,-4643,-4790,11654.947361528493
1735576929062,70,-114,1049,1057.4956264684974,9841,-4653,-6646,12754.019209645248
1735576929093,70,-114,1049,1057.4956264684974,10072,-4606,-8493,13956.771438982585
1735576929122,70,-114,1049,1057.4956264684974,10243,-4514,-10324,15227.613765787468
1735576929152,278,-64,979,1019.7161369714613,10198,-4417,-12009,16362.30955580538
1735576929182,278,-64,979,1019.7161369714613,10080,-4355,-13611,17488.04580277625
1735576929213,278,-64,979,1019.7161369714613,9969,-4314,-15213,18692.964612388267
1735576929243,-102,-136,964,978.8748643212778,10020,-4249,-16977,20166.13324363399
1735576929272,-102,-136,964,978.8748643212778,10253,-4081,16982,20252.577465596816
1735576929302,-102,-136,964,978.8748643212778,10379,-3862,14975,18624.96469795312
1735576929332,191,-123,940,967.0625626090589,10376,-3641,13046,17062.1327213218
1735576929362,191,-123,940,967.0625626090589,10098,-3559,11518,15725.788024770014
1735576929392,191,-123,940,967.0625626090589,9854,-3531,9984,14465.459999599045
1735576929422,191,-123,940,967.0625626090589,9648,-3551,8445,13304.568012528629
1735576929452,159,-55,974,988.4239980898885,9497,-3592,6846,12245.945818923094
1735576929482,159,-55,974,988.4239980898885,9370,-3665,5233,11340.785422535777
1735576929513,159,-55,974,988.4239980898885,9282,-3761,3618,10648.500786495722
1735576929543,107,-161,933,952.8163516648946,9284,-3875,1965,10250.341750400325
1735576929572,107,-161,933,952.8163516648946,9396,-3971,260,10203.982408844107
1735576929602,107,-161,933,952.8163516648946,9511,-4041,-1448,10434.82180010756
1735576929632,174,-147,1003,1028.5397415754046,9631,-4082,-3182,10933.618294050693
1735576929662,174,-147,1003,1028.5397415754046,9695,-4105,-4888,11607.609314583258
1735576929692,174,-147,1003,1028.5397415754046,9752,-4115,-6593,12470.059262088533
1735576929722,174,-147,1003,1028.5397415754046,9802,-4113,-8298,13485.280011924113
1735576929752,135,-17,964,973.5553399781647,9776,-4098,-10029,14592.622142713077
1735576929782,135,-17,964,973.5553399781647,9726,-4094,-11775,15811.595017581243
1735576929812,135,-17,964,973.5553399781647,9685,-4100,-13522,17130.490623446836
1735576929843,180,-22,1016,1032.0562000201346,9643,-4115,-15232,18491.470952847423
1735576929872,180,-22,1016,1032.0562000201346,9595,-4142,-16899,19869.483888616734
1735576929901,180,-22,1016,1032.0562000201346,9562,-4178,17430,20314.832709131522
1735576929932,132,-95,1021,1033.8713653061486,9542,-4222,15764,18904.46359990148
1735576929962,132,-95,1021,1033.8713653061486,9627,-4254,14052,17556.604142031567
1735576929992,132,-95,1021,1033.8713653061486,9705,-4269,12340,16269.203606814932
1735576930022,132,-95,1021,1033.8713653061486,9772,-4269,10628,15055.587965934774
1735576930052,246,-2,907,939.770716717647,9687,-4297,9054,13938.331822711067
1735576930082,246,-2,907,939.770716717647,9575,-4354,7522,12931.296338727992
1735576930112,246,-2,907,939.770716717647,9494,-4429,5986,12065.830804383095
1735576930143,159,-65,1008,1022.5311731189421,9534,-4504,4354,11407.913393780653
1735576930172,159,-65,1008,1022.5311731189421,9683,-4543,2619,11011.74368572026
1735576930202,159,-65,1008,1022.5311731189421,9816,-4553,883,10856.489027305282
1735576930232,108,-32,875,882.2204939809549,9920,-4530,-857,10939.001279824406
1735576930262,108,-32,875,882.2204939809549,9996,-4466,-2668,11268.690962130428
1735576930292,108,-32,875,882.2204939809549,10039,-4387,-4468,11831.750250913852
1735576930322,108,-32,875,882.2204939809549,10052,-4301,-6260,12598.766011002823
1735576930353,75,-145,996,1009.2898493495316,10105,-4234,-8020,13577.8562740957
1735576930383,75,-145,996,1009.2898493495316,10164,-4148,-9784,14705.08265872722
1735576930413,75,-145,996,1009.2898493495316,10188,-4050,-11539,15916.857887158509
1735576930442,152,-108,1048,1064.4585478072877,10142,-3945,-13275,17165.337573144316
1735576930473,152,-108,1048,1064.4585478072877,10024,-3864,-14963,18420.163978640365
1735576930502,152,-108,1048,1064.4585478072877,9909,-3809,-16650,19746.3733885491
1735576930532,165,-116,992,1012.2968932087068,9805,-3783,17682,20569.449141870573
1735576930562,165,-116,992,1012.2968932087068,9719,-3787,16071,19159.263320910854
1735576930592,165,-116,992,1012.2968932087068,9650,-3807,14458,17794.648437100408
1735576930622,-11,-112,990,996.3759330694414,9615,-3841,12821,16479.67071879775
1735576930652,-11,-112,990,996.3759330694414,9730,-3841,10948,15142.155890097025
1735576930682,-11,-112,990,996.3759330694414,9823,-3816,9077,13908.454766795627
1735576930713,-11,-112,990,996.3759330694414,9891,-3770,7211,12807.939022340792
1735576930742,83,-74,889,895.9274524201164,9858,-3722,5395,11838.051908992458
1735576930772,83,-74,889,895.9274524201164,9793,-3695,3612,11072.597617542146
1735576930802,83,-74,889,895.9274524201164,9733,-3682,1830,10565.855999397303
1735576930832,104,-146,930,947.1177329139182,9676,-3682,52,10353.009417555844
1735576930862,104,-146,930,947.1177329139182,9664,-3687,-1693,10481.08362718283
1735576930893,104,-146,930,947.1177329139182,9655,-3694,-3438,10894.241827681264
1735576930922,126,-80,965,976.4737579679241,9656,-3701,-5195,11572.543454228202
1735576930952,126,-80,965,976.4737579679241,9605,-3712,-6949,12422.703811972659
1735576930982,126,-80,965,976.4737579679241,9566,-3734,-8704,13461.453413357713
1735576931013,126,-80,965,976.4737579679241,9540,-3764,-10461,14649.6353879542
1735576931043,122,-30,936,944.3939855801709,9427,-3831,-12103,15812.257871663996
1735576931072,122,-30,936,944.3939855801709,9338,-3920,-13750,17077.094132199425
1735576931102,122,-30,936,944.3939855801709,9285,-4025,-15400,18427.47541037567
1735576931132,96,-104,1054,1063.460389483313,9304,-4131,-17071,19875.829995247997
1735576931162,96,-104,1054,1063.460389483313,9400,-4218,17229,20074.609958851008
1735576931192,96,-104,1054,1063.460389483313,9500,-4283,15525,18698.120600744878
1735576931222,26,-156,1024,1036.1409170571346,9609,-4333,13810,17373.078886599233
1735576931252,26,-156,1024,1036.1409170571346,9822,-4348,11999,16104.433830470414
1735576931282,26,-156,1024,1036.1409170571346,9999,-4319,10192,14916.79007025305
1735576931312,26,-156,1024,1036.1409170571346,10134,-4255,8395,13830.365360322192
1735576931342,169,-21,981,995.672134791368,10074,-4181,6668,12783.914150212368
1735576931372,169,-21,981,995.672134791368,9946,-4143,4995,11875.9163856942
1735576931402,169,-21,981,995.672134791368,9832,-4130,3320,11169.043110311644
1735576931432,2,-52,943,944.4347515842479,9805,-4118,1562,10748.757742176535
1735576931462,2,-52,943,944.4347515842479,9874,-4073,-326,10686.041409240373
1735576931492,2,-52,943,944.4347515842479,9915,-4014,-2208,10922.210627890308
1735576931522,191,10,951,970.042267120356,9935,-3943,-4098,11447.492214454658
1735576931552,191,10,951,970.042267120356,9772,-3914,-5811,12024.104997878221
1735576931582,191,10,951,970.042267120356,9633,-3919,-7527,12837.794943057783
1735576931612,191,10,951,970.042267120356,9520,-3952,-9245,13846.25324772012
1735576931642,151,-32,924,936.8036080203791,9473,-4013,-10983,15048.859990045758
1735576931672,151,-32,924,936.8036080203791,9469,-4076,-12739,16387.73498687357
1735576931702,151,-32,924,936.8036080203791,9482,-4138,-14500,17812.393662840488
1735576931732,109,-75,995,1003.7584370753752,9568,-4188,-16304,19362.499425435755
1735576931762,109,-75,995,1003.7584370753752,9708,-4204,17846,20746.050130085005
1735576931792,109,-75,995,1003.7584370753752,9826,-4189,15999,19237.099521497516
1735576931822,28,-66,964,966.6622988407069,9909,-4149,14168,17780.177333198902
1735576931852,28,-66,964,966.6622988407069,9996,-4073,12279,16348.797692796861
1735576931882,28,-66,964,966.6622988407069,10044,-3980,10400,14996.07735376155
1735576931913,28,-66,964,966.6622988407069,10055,-3878,8530,13744.191827823126
1735576931972,163,-111,875,896.9476015910851,9946,-3815,6853,12666.520832493823
1735576931973,163,-111,875,896.9476015910851,9830,-3784,5223,11757.010036569673
1735576932002,163,-111,875,896.9476015910851,9728,-3776,3592,11036.060166563066
1735576932032,164,-137,1060,1081.3255753934611,9682,-3785,1926,10572.455958763792
1735576932062,164,-137,1060,1081.3255753934611,9674,-3797,243,10395.313078498406
1735576932092,164,-137,1060,1081.3255753934611,9670,-3810,-1440,10492.787999383196
1735576932122,147,-69,1062,1074.3435204812286,9666,-3824,-3123,10853.923760557745
1735576932152,147,-69,1062,1074.3435204812286,9612,-3845,-4823,11420.853645853273
1735576932182,147,-69,1062,1074.3435204812286,9574,-3876,-6524,12216.686457464642
1735576932213,147,-69,1062,1074.3435204812286,9551,-3915,-8228,13200.333707902993
1735576932243,130,-82,1011,1022.6167415019178,9569,-3945,-10002,14393.359232646144
1735576932272,130,-82,1011,1022.6167415019178,9598,-3969,-11784,15707.871307086776
1735576932302,130,-82,1011,1022.6167415019178,9629,-3986,-13566,17106.78792175784
1735576932332,124,-148,1019,1037.1311392490345,9686,-3990,-15361,18592.98300434871
1735576932362,124,-148,1019,1037.1311392490345,9774,-3971,-17163,20146.17795017209
1735576932392,124,-148,1019,1037.1311392490345,9839,-3934,17037,20063.440532470995
1735576932422,95,-23,978,982.8723213113695,9864,-3888,15273,18592.460003990866
1735576932452,95,-23,978,982.8723213113695,9757,-3857,13539,17128.339645161173
1735576932482,95,-23,978,982.8723213113695,9664,-3849,11803,15732.720870847483
1735576932513,95,-23,978,982.8723213113695,9586,-3862,10066,14426.738924649604
1735576932573,74,-138,945,957.8856925541794,9583,-3888,8299,13259.857993206413
1735576932573,74,-138,945,957.8856925541794,9620,-3906,6523,12261.760273304972
1735576932603,74,-138,945,957.8856925541794,9654,-3915,4746,11447.770831039552
1735576932632,42,-89,1014,1018.7644477503129,9689,-3912,2940,10854.679405675692
1735576932661,42,-89,1014,1018.7644477503129,9709,-3898,1103,10520.251612960596
1735576932692,42,-89,1014,1018.7644477503129,9721,-3880,-732,10492.285975896768
1735576932722,87,-98,995,1003.5925468037315,9724,-3867,-2546,10769.957335105835
1735576932752,87,-98,995,1003.5925468037315,9701,-3875,-4273,11286.432341532907
1735576932782,87,-98,995,1003.5925468037315,9684,-3888,-6000,12037.292054278652
1735576932812,87,-98,995,1003.5925468037315,9674,-3904,-7728,12982.660590187206
1735576932843,122,-7,950,957.8272286795777,9628,-3924,-9469,14062.649856979302
1735576932872,122,-7,950,957.8272286795777,9566,-3962,-11199,15251.99662339328
1735576932902,122,-7,950,957.8272286795777,9526,-4012,-12932,16555.284473544994
1735576932932,197,-23,1029,1047.9403608984626,9514,-4062,-14686,17963.70329302953
1735576932963,197,-23,1029,1047.9403608984626,9502,-4116,-16411,19404.90610644638
1735576932992,197,-23,1029,1047.9403608984626,9505,-4171,17859,20656.382718181805
1735576933022,96,-114,998,1009.066895701172,9504,-4218,16146,19204.44885957418
1735576933052,96,-114,998,1009.066895701172,9624,-4226,14350,17787.719134279134
1735576933083,96,-114,998,1009.066895701172,9723,-4209,12557,16429.56661023047
1735576933113,96,-114,998,1009.066895701172,9798,-4172,10769,15145.221985827742
1735576933143,34,-55,873,875.3913410583863,9845,-4122,8967,13939.94253933638
1735576933173,34,-55,873,875.3913410583863,9866,-4061,7148,12842.257628625895
1735576933203,34,-55,873,875.3913410583863,9867,-3997,5335,11907.809328335754
1735576933232,153,-23,969,981.2741716768052,9858,-3956,3543,11197.452790702
1735576933262,153,-23,969,981.2741716768052,9797,-3944,1825,10717.600944241207
1735576933292,153,-23,969,981.2741716768052,9744,-3945,106,10512.839625905077
1735576933322,78,-119,951,961.585149635746,9677,-3949,-1608,10574.714842491027
1735576933352,78,-119,951,961.585149635746,9699,-3929,-3395,11001.530211747819
1735576933382,78,-119,951,961.585149635746,9712,-3905,-5180,11679.228099493563
1735576933413,78,-119,951,961.585149635746,9716,-3879,-6964,12567.60092459973
1735576933443,214,-67,855,883.9174169570367,9680,-3868,-8699,13577.055093060497
1735576933472,214,-67,855,883.9174169570367,9609,-3880,-10386,14671.614669149405
1735576933503,214,-67,855,883.9174169570367,9555,-3906,-12075,15885.858050479992
1735576933532,179,-35,969,986.015719955823,9526,-3947,-13758,17193.19775376297
1735576933562,179,-35,969,986.015719955823,9515,-3995,-15459,18586.982837459123
1735576933592,179,-35,969,986.015719955823,9517,-4043,-17163,20037.158156784608
1735576933622,-13,-169,933,948.2715855702943,9532,-4089,17118,20015.116012654034
1735576933652,-13,-169,933,948.2715855702943,9791,-4074,15164,18504.271209642382
1735576933682,-13,-169,933,948.2715855702943,9993,-4000,13221,17048.603755146636
1735576933713,-13,-169,933,948.2715855702943,10130,-3882,11294,15660.180714155249
1735576933743,32,-88,920,924.752939979106,10167,-3778,9441,14379.626351195639
1735576933772,32,-88,920,924.752939979106,10140,-3678,7611,13201.310730378253
1735576933802,32,-88,920,924.752939979106,10092,-3587,5785,12172.972438973153
1735576933832,125,-32,1003,1011.2655437618746,9949,-3514,4037,11297.26365099089
1735576933862,125,-32,1003,1011.2655437618746,9735,-3497,2370,10612.07491492592
1735576933892,125,-32,1003,1011.2655437618746,9557,-3525,701,10210.44930451153
1735576933922,77,-115,995,1004.57901630484,9422,-3587,-983,10129.508477710062
1735576933952,77,-115,995,1004.57901630484,9427,-3651,-2746,10475.621509008428
1735576933983,77,-115,995,1004.57901630484,9448,-3711,-4511,11107.895660294978
1735576934013,77,-115,995,1004.57901630484,9481,-3765,-6279,11978.748974746904
1735576934043,99,-101,936,946.6245295786498,9450,-3834,-7938,12923.385779276265
1735576934072,99,-101,936,946.6245295786498,9433,-3910,-9592,14009.855566707318
1735576934102,99,-101,936,946.6245295786498,9437,-3987,-11249,15214.898586582824
1735576934132,202,-145,1000,1030.4508721913917,9449,-4065,-12869,16474.79854201562
1735576934162,202,-145,1000,1030.4508721913917,9454,-4147,-14415,17730.424416804017
1735576934192,202,-145,1000,1030.4508721913917,9476,-4226,-15964,19039.510182775186
1735576934222,157,-117,982,1001.330115396516,9546,-4291,-17569,20450.148116823017
1735576934252,157,-117,982,1001.330115396516,9688,-4309,16667,19753.827831587478
1735576934282,157,-117,982,1001.330115396516,9809,-4299,14906,18354.474059476615
1735576934312,48,-32,1048,1049.5865852801282,9908,-4271,13156,17014.41274331853
1735576934343,48,-32,1048,1049.5865852801282,9999,-4217,11300,15666.94258622275
1735576934373,48,-32,1048,1049.5865852801282,10057,-4145,9453,14411.227671506686
1735576934402,48,-32,1048,1049.5865852801282,10083,-4063,7615,13272.644160076017
1735576934432,162,-181,1005,1033.9390697715219,10034,-3984,5901,12303.463455466514
1735576934462,162,-181,1005,1033.9390697715219,9990,-3917,4230,11534.118475202169
1735576934492,162,-181,1005,1033.9390697715219,9939,-3860,2561,10965.493240160244
1735576934522,60,-64,944,948.0675081448578,9894,-3810,876,10638.360399986457
1735576934552,60,-64,944,948.0675081448578,9831,-3748,-950,10564.022198007726
1735576934583,60,-64,944,948.0675081448578,9763,-3703,-2775,10804.119723512878
1735576934613,145,-111,977,993.9190107850841,9683,-3685,-4564,11321.210624310459
1735576934642,145,-111,977,993.9190107850841,9577,-3721,-6190,11995.035222957871
1735576934672,145,-111,977,993.9190107850841,9499,-3776,-7818,12868.96658632697
1735576934702,145,-111,977,993.9190107850841,9447,-3846,-9448,13903.31719410875
1735576934732,67,-177,985,1003.0169490093375,9557,-3907,-11201,15233.6239614873
1735576934762,67,-177,985,1003.0169490093375,9694,-3933,-12983,16673.344415563424
1735576934792,67,-177,985,1003.0169490093375,9812,-3928,-14765,18157.91158145672
1735576934822,61,-103,979,986.29153904918,9895,-3890,-16546,19667.568253345406
1735576934852,61,-103,979,986.29153904918,9872,-3828,17662,20592.625184759712
1735576934882,61,-103,979,986.29153904918,9838,-3773,15873,19051.8739760686
1735576934913,208,-100,1052,1077.0181056973927,9795,-3735,14091,17562.702838686306
1735576934941,208,-100,1052,1077.0181056973927,9663,-3758,12477,16222.566443075522
1735576934972,208,-100,1052,1077.0181056973927,9559,-3806,10860,14959.937065375643
1735576935002,208,-100,1052,1077.0181056973927,9485,-3873,9241,13797.153148385358
1735576935032,163,-109,1075,1092.7373883966816,9468,-3935,7574,12747.26343181155
1735576935062,163,-109,1075,1092.7373883966816,9480,-3994,5887,11852.392374537725
1735576935092,163,-109,1075,1092.7373883966816,9504,-4049,4198,11150.947089821564
1735576935122,138,-176,953,978.8917202632781,9537,-4105,2536,10688.156529542408
1735576935152,138,-176,953,978.8917202632781,9613,-4149,873,10506.47890589421
1735576935182,138,-176,953,978.8917202632781,9685,-4177,-791,10576.96719291499
1735576935212,58,-118,1014,1022.4891197465134,9764,-4185,-2473,10907.137571333737
1735576935243,58,-118,1014,1022.4891197465134,9858,-4155,-4278,11521.522165061351
1735576935273,58,-118,1014,1022.4891197465134,9925,-4105,-6077,12340.444846114746
1735576935303,58,-118,1014,1022.4891197465134,9965,-4043,-7870,13326.063709888227
1735576935333,-8,-10,895,895.0916154226895,9963,-3968,-9705,14463.520249233932
1735576935363,-8,-10,895,895.0916154226895,9926,-3895,-11559,15725.997011318552
1735576935393,-8,-10,895,895.0916154226895,9877,-3832,-13410,17089.981070791157
1735576935422,163,-123,950,971.698512914371,9779,-3808,-15145,18425.545582153056
1735576935452,163,-123,950,971.698512914371,9671,-3830,-16732,19701.69954597826
1735576935482,163,-123,950,971.698512914371,9586,-3873,17678,20479.33614646725
1735576935513,161,-89,985,1002.0314366326039,9551,-3929,16070,19102.44858650325
1735576935545,161,-89,985,1002.0314366326039,9552,-3983,14424,17752.65526618483
1735576935574,161,-89,985,1002.0314366326039,9566,-4037,12776,16463.04652851349
1735576935603,161,-89,985,1002.0314366326039,9590,-4086,11125,15245.626290841581
1735576935632,58,-64,958,961.8856480892102,9627,-4097,9364,14040.976960311558
1735576935662,58,-64,958,961.8856480892102,9675,-4092,7564,12944.658550923621
1735576935692,58,-64,958,961.8856480892102,9712,-4078,5766,12008.321448062588
1735576935722,83,-171,947,965.8876746288877,9762,-4066,3982,11299.793095450907
1735576935752,83,-171,947,965.8876746288877,9844,-4042,2221,10870.829821131412
1735576935782,83,-171,947,965.8876746288877,9904,-4001,464,10691.702998119617
1735576935813,239,-166,1018,1058.7733468500235,9954,-3951,-1297,10787.711805568408
1735576935844,239,-166,1018,1058.7733468500235,9904,-3931,-2903,11043.975099573523
