Timestamp,Acc_X,Acc_Y,Acc_Z,Acc_Betrag,Ori_X,Ori_Y,Ori_Z,Ori_Betrag
1735565342125,-238,-78,953,985.361355036821,-10172,4085,-839,10993.667722830265
1735565342125,-223,-67,953,981.0336385669964,-10213,4107,2289,11243.324197051334
1735565342125,-223,-67,953,981.0336385669964,-10237,4143,5422,12302.792447245463
1735565342153,-223,-67,953,981.0336385669964,-10226,4180,8581,13988.460851716318
1735565342183,-213,-62,966,991.1452971184397,-10188,4208,11761,16119.048638179613
1735565342214,-213,-62,966,991.1452971184397,-10146,4224,14942,18548.50010108634
1735565342244,-213,-62,966,991.1452971184397,-10106,4222,-17872,20961.03298981231
1735565342274,-213,-62,966,991.1452971184397,-10081,4208,-14694,18309.764089141074
1735565342304,-212,-77,966,991.9823587141053,-10068,4190,-11523,15865.063914147966
1735565342334,-212,-77,966,991.9823587141053,-10070,4171,-8367,13740.772540144895
1735565342365,-212,-77,966,991.9823587141053,-10086,4155,-5223,12094.261035714419
1735565342394,-231,-71,956,986.0720054843865,-10100,4153,-2076,11116.077770508804
1735565342424,-231,-71,956,986.0720054843865,-10101,4158,1087,10977.282632783033
1735565342454,-231,-71,956,986.0720054843865,-10098,4163,4255,11721.996331683438
1735565342484,-210,-76,953,978.8181649315668,-10091,4169,7423,13202.64257639356
1735565342514,-210,-76,953,978.8181649315668,-10088,4177,10566,15193.927372473518
1735565342544,-210,-76,953,978.8181649315668,-10080,4182,13714,17526.24660330899
1735565342574,-210,-76,953,978.8181649315668,-10070,4183,16864,20082.25298615671
1735565342604,-200,-68,953,976.1316509569803,-10072,4190,-15996,19361.64507473474
1735565342634,-200,-68,953,976.1316509569803,-10072,4198,-12856,16862.53610818966
1735565342664,-200,-68,953,976.1316509569803,-10066,4204,-9711,14604.844846830794
1735565342695,-203,-65,959,982.4026669344908,-10053,4215,-6557,12720.97806774306
1735565342724,-203,-65,959,982.4026669344908,-10033,4224,-3393,11402.443334654201
1735565342754,-203,-65,959,982.4026669344908,-10012,4223,-226,10868.530213418924
1735565342784,-227,-76,950,979.6963815386888,-9996,4221,2938,11241.383411306635
1735565342814,-227,-76,950,979.6963815386888,-9952,4218,6132,12427.198075189757
1735565342844,-227,-76,950,979.6963815386888,-9926,4201,9317,14247.117813789566
1735565342874,-229,-66,958,987.1985615872827,-9920,4180,12486,16485.720973011765
1735565342905,-229,-66,958,987.1985615872827,-9934,4166,15642,18992.42154123586
1735565342934,-229,-66,958,987.1985615872827,-9954,4159,-17209,20310.811849849822
1735565342964,-229,-66,958,987.1985615872827,-9972,4161,-14061,17733.20123384382
1735565342994,-218,-62,955,981.5258529453007,-9994,4175,-10922,15381.831652959929
1735565343024,-218,-62,955,981.5258529453007,-10001,4195,-7775,13344.23662110351
1735565343054,-218,-62,955,981.5258529453007,-9991,4214,-4613,11783.787421707844
1735565343084,-232,-71,958,988.2454148641419,-9970,4227,-1443,10924.77359033129
1735565343114,-232,-71,958,988.2454148641419,-9929,4232,1746,10933.589575249292
1735565343144,-232,-71,958,988.2454148641419,-9898,4222,4933,11837.659270311846
1735565343174,-250,-73,961,995.6656065165654,-9883,4205,8114,13460.784152492752
1735565343204,-250,-73,961,995.6656065165654,-9865,4189,11315,15585.094513669143
1735565343234,-250,-73,961,995.6656065165654,-9866,4170,14503,18029.52758671175
1735565343264,-250,-73,961,995.6656065165654,-9880,4155,17680,20675.125755361198
1735565343294,-255,-59,948,983.4683523123659,-9916,4144,-15158,18581.301246145278
1735565343324,-255,-59,948,983.4683523123659,-9950,4149,-11995,16127.51456362697
1735565343354,-255,-59,948,983.4683523123659,-9969,4164,-8825,13949.927670063384
1735565343385,-240,-56,945,976.6068809915278,-9979,4182,-5654,12208.082609484587
1735565343415,-240,-56,945,976.6068809915278,-9981,4201,-2486,11110.758659965573
1735565343445,-240,-56,945,976.6068809915278,-9969,4217,695,10846.523636631231
1735565343475,-232,-73,963,993.2381386153071,-9949,4226,3882,11485.277576097149
1735565343504,-232,-73,963,993.2381386153071,-9924,4227,7060,12891.737858023642
1735565343534,-232,-73,963,993.2381386153071,-9906,4218,10234,14854.464514077914
1735565343565,-232,-73,963,993.2381386153071,-9901,4206,13401,17184.49993453403
1735565343595,-235,-62,960,990.2873320405548,-9918,4191,16571,19761.812821702366
1735565343624,-235,-62,960,990.2873320405548,-9942,4186,-16263,19515.407477170444
1735565343654,-235,-62,960,990.2873320405548,-9962,4190,-13097,16980.251853255886
1735565343685,-256,-58,945,980.7777526024945,-9968,4195,-9917,14673.306989223664
1735565343714,-256,-58,945,980.7777526024945,-9962,4199,-6715,12726.518376995336
1735565343744,-256,-58,945,980.7777526024945,-9954,4200,-3512,11360.293130020898
1735565343774,-260,-59,948,984.7766244179438,-9947,4195,-310,10799.858054622755
1735565343804,-260,-59,948,984.7766244179438,-9942,4180,2890,11165.476434080187
1735565343834,-260,-59,948,984.7766244179438,-9950,4167,6080,12382.761767877148
1735565343864,-260,-59,948,984.7766244179438,-9965,4159,9264,14227.445378563223
1735565343894,-250,-55,942,976.1603351908948,-9994,4145,12429,16478.504240373273
1735565343924,-250,-55,942,976.1603351908948,-10027,4144,15586,18990.441306088702
1735565343954,-250,-55,942,976.1603351908948,-10050,4155,-17252,20393.578131362825
1735565343984,-240,-40,950,980.6630410084801,-10066,4164,-14084,17805.12027479736
1735565344014,-240,-40,950,980.6630410084801,-10084,4178,-10914,15435.612589074655
1735565344044,-240,-40,950,980.6630410084801,-10085,4195,-7732,13382.416597909363
1735565344074,-251,-67,954,988.7396017152342,-10070,4208,-4537,11819.328788048837
1735565344104,-251,-67,954,988.7396017152342,-10017,4204,-1320,10943.322393130891
1735565344134,-251,-67,954,988.7396017152342,-9985,4183,1886,10988.844798248812
1735565344164,-251,-67,954,988.7396017152342,-9980,4155,5074,11941.938745446654
1735565344194,-248,-63,961,994.4817745941854,-10006,4128,8238,13602.39184849488
1735565344225,-248,-63,961,994.4817745941854,-10046,4115,11387,15732.74006649827
1735565344254,-248,-63,961,994.4817745941854,-10083,4117,14533,18161.07560140643
1735565344284,-234,-53,949,978.8595404857634,-10116,4131,17681,20785.003680538524
1735565344314,-234,-53,949,978.8595404857634,-10141,4155,-15168,18712.886736150573
1735565344344,-234,-53,949,978.8595404857634,-10140,4183,-11998,16256.35546486358
1735565344374,-230,-51,961,989.4554057662225,-10118,4206,-8813,14061.7683454109
1735565344404,-230,-51,961,989.4554057662225,-10093,4218,-5623,12299.524462352192
1735565344434,-230,-51,961,989.4554057662225,-10066,4220,-2429,11181.806517732275
1735565344464,-230,-51,961,989.4554057662225,-10047,4212,761,10920.726807314612
1735565344494,-244,-67,954,986.9858155009118,-10022,4199,3962,11565.87778769947
1735565344524,-244,-67,954,986.9858155009118,-10008,4177,7155,12992.359985776257
1735565344554,-244,-67,954,986.9858155009118,-10016,4156,10332,14978.077847307377
1735565344584,-246,-53,946,978.8978496247706,-10043,4138,13496,17324.171235588732
1735565344614,-246,-53,946,978.8978496247706,-10082,4133,16654,19901.862450534623
1735565344644,-246,-53,946,978.8978496247706,-10111,4142,-16184,19527.16930330661
1735565344674,-239,-45,935,966.1112772346672,-10124,4159,-13015,17005.378031669865
1735565344704,-239,-45,935,966.1112772346672,-10133,4175,-9844,14731.349225376473
1735565344734,-239,-45,935,966.1112772346672,-10126,4191,-6662,12825.077036805666
1735565344764,-239,-45,935,966.1112772346672,-10109,4202,-3470,11484.319091700649
1735565344794,-242,-59,959,990.8208718027694,-10080,4203,-268,10924.441999479883
1735565344824,-242,-59,959,990.8208718027694,-10056,4193,2930,11282.255315317057
1735565344854,-242,-59,959,990.8208718027694,-10048,4177,6119,12484.061598694552
1735565344884,-257,-58,940,976.2238472809399,-10052,4160,9304,14314.77278897573
1735565344914,-257,-58,940,976.2238472809399,-10062,4147,12492,16567.785518891775
1735565344944,-257,-58,940,976.2238472809399,-10079,4140,15672,19087.624917731384
1735565344974,-229,-69,956,985.463342798706,-10096,4138,-17150,20326.700666856883
1735565345004,-229,-69,956,985.463342798706,-10121,4140,-14007,17769.926561468958
1735565345034,-229,-69,956,985.463342798706,-10137,4149,-10860,15424.414737681298
1735565345064,-229,-69,956,985.463342798706,-10141,4162,-7705,13398.848831149637
1735565345094,-205,-65,961,984.7695161813245,-10147,4177,-4566,11885.171180929621
1735565345124,-205,-65,961,984.7695161813245,-10147,4192,-1426,11071.041007963073
1735565345154,-205,-65,961,984.7695161813245,-10135,4204,1722,11106.625275032917
1735565345184,-227,-58,960,988.176603649368,-10111,4215,4893,11997.499531152314
1735565345214,-227,-58,960,988.176603649368,-10077,4218,8089,13592.989884495611
1735565345244,-227,-58,960,988.176603649368,-10052,4209,11283,15686.442362753894
1735565345274,-231,-64,956,985.5927150704798,-10043,4196,14466,18103.409098841024
1735565345304,-231,-64,956,985.5927150704798,-10038,4185,17644,20726.46629312387
1735565345334,-231,-64,956,985.5927150704798,-10043,4174,-15185,18678.017828452783
1735565345364,-231,-64,956,985.5927150704798,-10055,4168,-12020,16215.907282665377
1735565345395,-217,-71,957,983.859237899406,-10068,4170,-8872,14052.256331280041
1735565345424,-217,-71,957,983.859237899406,-10078,4176,-5727,12320.859913171646
1735565345454,-217,-71,957,983.859237899406,-10080,4184,-2577,11213.97275723461
1735565345484,-214,-56,956,981.2583757604314,-10082,4195,572,10934.895198400394
1735565345514,-214,-56,956,981.2583757604314,-10084,4208,3726,11544.582972112938
1735565345544,-214,-56,956,981.2583757604314,-10075,4219,6888,12913.17660376408
1735565345574,-229,-64,965,993.8621634814357,-10058,4228,10061,14841.262378921814
1735565345604,-229,-64,965,993.8621634814357,-10016,4231,13264,17150.956620550354
1735565345634,-229,-64,965,993.8621634814357,-9985,4220,16464,19712.227702621538
1735565345664,-229,-64,965,993.8621634814357,-9973,4201,-16348,19605.26036552435
1735565345694,-247,-70,948,982.1471376530097,-9966,4184,-13168,17035.93953969079
1735565345724,-247,-70,948,982.1471376530097,-9969,4167,-9992,14716.8241818675
1735565345754,-247,-70,948,982.1471376530097,-9984,4155,-6827,12788.753262144046
1735565345785,-225,-55,945,972.972250375107,-10011,4150,-3674,11442.940924430222
1735565345815,-225,-55,945,972.972250375107,-10048,4160,-535,10888.256471997709
1735565345845,-225,-55,945,972.972250375107,-10067,4180,2615,11209.599189979988
1735565345874,-206,-61,964,987.650241735403,-10064,4203,5778,12342.389922539314
1735565345903,-206,-61,964,987.650241735403,-10056,4223,8928,14094.894430253815
1735565345934,-206,-61,964,987.650241735403,-10035,4236,12090,16273.076568368993
1735565345964,-206,-61,964,987.650241735403,-10012,4240,15257,18734.828341887736
1735565345994,-226,-60,955,983.2095402303621,-9973,4240,-17546,20622.813702305513
1735565346024,-226,-60,955,983.2095402303621,-9942,4227,-14348,17960.400802877422
1735565346055,-226,-60,955,983.2095402303621,-9932,4206,-11163,15522.487848279992
1735565346085,-228,-64,947,976.1603351908948,-9943,4188,-7999,13430.80764511204
1735565346114,-228,-64,947,976.1603351908948,-9962,4178,-4845,11839.389891375315
1735565346145,-228,-64,947,976.1603351908948,-9982,4176,-1696,10952.429684777711
1735565346174,-228,-65,938,967.4983204119789,-9997,4184,1455,10934.481697821804
1735565346204,-228,-65,938,967.4983204119789,-9999,4200,4618,11787.532608650548
1735565346234,-228,-65,938,967.4983204119789,-9988,4213,7792,13350.085280626487
1735565346265,-228,-65,938,967.4983204119789,-9971,4221,10972,15415.007817059322
1735565346295,-194,-66,958,979.6713734717372,-9970,4226,14121,17795.01663387815
1735565346325,-194,-66,958,979.6713734717372,-9973,4232,17260,20378.37464078036
1735565346355,-194,-66,958,979.6713734717372,-9971,4238,-15596,18989.910505318345
1735565346384,-217,-61,963,989.0293221133537,-9952,4248,-12427,16477.807408754357
1735565346414,-217,-61,963,989.0293221133537,-9918,4253,-9228,14198.968871013134
1735565346444,-217,-61,963,989.0293221133537,-9892,4245,-6030,12338.257129757023
1735565346474,-231,-56,962,990.9293617609683,-9883,4231,-2844,11120.404039422308
1735565346504,-231,-56,962,990.9293617609683,-9883,4220,344,10751.7638087897
1735565346535,-231,-56,962,990.9293617609683,-9892,4211,3525,11314.142035523506
1735565346565,-231,-56,962,990.9293617609683,-9904,4207,6703,12677.47112006176
1735565346595,-233,-51,954,983.364632270248,-9914,4212,9880,14616.522842317867
1735565346625,-233,-51,954,983.364632270248,-9917,4220,13064,16935.860917000944
1735565346655,-233,-51,954,983.364632270248,-9913,4227,16252,19500.323125527946
1735565346684,-226,-55,958,985.8321358121777,-9896,4232,-16561,19751.135688866096
1735565346714,-226,-55,958,985.8321358121777,-9882,4229,-13377,17160.49224235715
1735565346744,-226,-55,958,985.8321358121777,-9874,4223,-10197,14809.065264222452
1735565346774,-247,-59,960,993.0206442969854,-9871,4217,-7020,12825.7604063073
1735565346804,-247,-59,960,993.0206442969854,-9848,4210,-3822,11371.670413795855
1735565346834,-247,-59,960,993.0206442969854,-9838,4197,-631,10714.439509372387
1735565346864,-234,-57,946,976.1767258032738,-9845,4182,2549,10995.933339194085
1735565346894,-234,-57,946,976.1767258032738,-9879,4173,5705,12147.246395788636
1735565346924,-234,-57,946,976.1767258032738,-9909,4176,8859,13932.305552204918
1735565346954,-234,-57,946,976.1767258032738,-9926,4189,12020,16141.672682841763
1735565346984,-231,-47,945,973.9584180035614,-9940,4199,15184,18627.642282371646
1735565347014,-231,-47,945,973.9584180035614,-9943,4214,-17644,20686.51205495987
1735565347044,-231,-47,945,973.9584180035614,-9935,4226,-14463,18048.31487978864
1735565347074,-226,-53,965,992.5270777162707,-9909,4235,-11272,15594.277476048706
1735565347104,-226,-53,965,992.5270777162707,-9880,4232,-8084,13448.988066021919
1735565347134,-226,-53,965,992.5270777162707,-9864,4220,-4903,11796.029204779039
1735565347164,-241,-64,949,981.2125152075874,-9859,4207,-1729,10857.631924135207
1735565347194,-241,-64,949,981.2125152075874,-9842,4194,1457,10797.10373201999
1735565347224,-241,-64,949,981.2125152075874,-9840,4178,4633,11651.007381338319
1735565347254,-241,-64,949,981.2125152075874,-9850,4164,7798,13235.187947286582
1735565347284,-245,-54,956,988.3708818050034,-9879,4161,10960,15330.69346115824
1735565347314,-245,-54,956,988.3708818050034,-9902,4168,14126,17747.273142654903
1735565347344,-245,-54,956,988.3708818050034,-9912,4182,17300,20372.208225914048
1735565347374,-229,-49,958,986.2078888348034,-9916,4202,-15528,18897.15968075626
1735565347404,-229,-49,958,986.2078888348034,-9914,4223,-12360,16397.887821301865
1735565347434,-229,-49,958,986.2078888348034,-9895,4240,-9177,14145.881167322168
1735565347464,-237,-58,967,997.307374884995,-9870,4249,-5985,12300.045772272557
1735565347494,-237,-58,967,997.307374884995,-9831,4248,-2778,11063.966241814009
1735565347524,-237,-58,967,997.307374884995,-9806,4234,422,10689.362749949129
1735565347554,-237,-58,967,997.307374884995,-9800,4215,3611,11262.572796657076
1735565347584,-252,-55,960,994.0467795833353,-9809,4190,6795,12646.920811011667
1735565347614,-252,-55,960,994.0467795833353,-9831,4172,9971,14610.783209670863
1735565347644,-252,-55,960,994.0467795833353,-9860,4165,13139,16946.980439004466
1735565347674,-227,-56,957,985.1466895848557,-9903,4167,16290,19514.030798376843
1735565347704,-227,-56,957,985.1466895848557,-9948,4184,-16574,19777.9178883926
1735565347734,-227,-56,957,985.1466895848557,-9966,4213,-13421,17239.30874484241
1735565347764,-227,-58,950,978.4646135655597,-9961,4244,-10255,14913.017199748681
1735565347794,-227,-58,950,978.4646135655597,-9939,4271,-7082,12929.80610836837
1735565347824,-227,-58,950,978.4646135655597,-9904,4286,-3894,11472.67396904488
1735565347854,-227,-58,950,978.4646135655597,-9869,4286,-702,10782.38197245859
1735565347884,-233,-49,966,994.910046185081,-9831,4286,2507,11013.78254733586
1735565347914,-233,-49,966,994.910046185081,-9806,4275,5715,12128.251564013668
1735565347944,-233,-49,966,994.910046185081,-9798,4258,8912,13912.408562143364
1735565347974,-225,-53,955,982.57773229399,-9814,4244,12093,16142.081061622755
1735565348004,-225,-53,955,982.57773229399,-9840,4242,15262,18648.024238508486
1735565348034,-225,-53,955,982.57773229399,-9860,4248,-17565,20586.265542832192
1735565348124,-241,-27,939,969.8097751621191,-9870,4253,-14388,17958.82660420775
1735565348125,-241,-27,939,969.8097751621191,-9889,4255,-11190,15527.82811599871
1735565348125,-241,-27,939,969.8097751621191,-9900,4262,-7989,13416.361839187253
1735565348155,-241,-27,939,969.8097751621191,-9902,4272,-4781,11796.505796209316
1735565348185,-234,-29,938,967.1819890796147,-9864,4266,-1560,10859.597230100202
1735565348215,-234,-29,938,967.1819890796147,-9845,4248,1647,10848.139840544092
1735565348244,-234,-29,938,967.1819890796147,-9846,4228,4842,11758.599576480186
1735565348274,-255,-57,963,997.8191218853244,-9824,4215,8054,13384.472981780045
1735565348304,-255,-57,963,997.8191218853244,-9786,4190,11280,15510.006318502903
1735565348334,-255,-57,963,997.8191218853244,-9780,4157,14485,17965.08485924851
1735565348364,-266,-47,953,990.5422757257763,-9808,4126,17665,20622.147439100518
1735565348394,-266,-47,953,990.5422757257763,-9864,4109,-15165,18551.539073618664
1735565348424,-266,-47,953,990.5422757257763,-9915,4113,-11998,16098.9440026357
1735565348455,-266,-47,953,990.5422757257763,-9945,4135,-8821,13921.61237069902
1735565348485,-253,-25,928,962.1943670589638,-9988,4155,-5643,12201.131832744042
1735565348514,-253,-25,928,962.1943670589638,-10008,4188,-2450,11122.13594594132
1735565348544,-253,-25,928,962.1943670589638,-9997,4222,766,10878.972791582852
1735565348574,-248,-33,956,988.194818848996,-9952,4239,4000,11533.057920603711
1735565348604,-248,-33,956,988.194818848996,-9905,4234,7233,12975.05568388822
1735565348634,-248,-33,956,988.194818848996,-9878,4213,10455,14987.704227132319
1735565348665,-255,-48,947,981.9052907485528,-9872,4185,13665,17369.59510178634
1735565348695,-255,-48,947,981.9052907485528,-9871,4149,16870,19981.184699611782
1735565348725,-255,-48,947,981.9052907485528,-9897,4120,-15947,19215.40574643169
1735565348754,-255,-48,947,981.9052907485528,-9936,4105,-12780,16700.40481545283
1735565348784,-270,-52,948,987.0704128885639,-9977,4087,-9610,14442.859758371955
1735565348814,-270,-52,948,987.0704128885639,-10014,4086,-6440,12587.660306824298
1735565348844,-270,-52,948,987.0704128885639,-10039,4097,-3266,11324.031349303126
1735565348874,-253,-47,942,976.5152328560984,-10053,4114,-89,10862.58376262296
1735565348905,-253,-47,942,976.5152328560984,-10060,4132,3088,11305.43090731176
1735565348934,-253,-47,942,976.5152328560984,-10050,4149,6277,12554.578049460682
1735565348964,-235,-60,969,998.8923865962739,-10032,4159,9473,14410.969224864786
1735565348994,-235,-60,969,998.8923865962739,-10019,4157,12643,16658.525114787324
1735565349024,-235,-60,969,998.8923865962739,-10011,4151,15810,19167.864304611507
1735565349054,-235,-60,969,998.8923865962739,-10011,4144,-17027,20181.9618967037
1735565349084,-235,-53,954,983.9461367371691,-10028,4146,-13872,17611.99829661586
1735565349114,-235,-53,954,983.9461367371691,-10039,4154,-10713,15257.96860660029
1735565349144,-235,-53,954,983.9461367371691,-10040,4164,-7548,13233.019307777042
1735565349174,-230,-52,967,995.3356217879475,-10037,4176,-4378,11719.523411811591
1735565349204,-230,-52,967,995.3356217879475,-10029,4185,-1205,10933.759234590818
1735565349234,-230,-52,967,995.3356217879475,-10016,4191,1973,11035.282778433908
1735565349264,-226,-64,947,975.695136812724,-10003,4193,5152,12007.679292852554
1735565349324,-226,-64,947,975.695136812724,-9983,4192,8325,13657.919973407372
1735565349324,-226,-64,947,975.695136812724,-9970,4185,11494,15780.594443809778
1735565349354,-226,-64,947,975.695136812724,-9967,4175,14657,18209.869933637638
1735565349384,-228,-48,970,997.5910985970154,-9976,4172,17821,20845.004221635456
1735565349414,-228,-48,970,997.5910985970154,-9988,4174,-15013,18508.71656814702
1735565349444,-228,-48,970,997.5910985970154,-9994,4180,-11846,16052.418883146553
1735565349474,-244,-61,946,978.8631160688403,-9987,4194,-8681,13881.266728940842
1735565349535,-244,-61,946,978.8631160688403,-9958,4203,-5501,12127.98309695392
1735565349535,-244,-61,946,978.8631160688403,-9932,4201,-2319,11030.448132328986
1735565349564,-225,-62,956,984.0757084696279,-9911,4191,855,10794.601752728073
1735565349594,-225,-62,956,984.0757084696279,-9909,4176,3996,11471.49828923842
1735565349624,-225,-62,956,984.0757084696279,-9919,4164,7128,12904.799146054153
1735565349654,-225,-62,956,984.0757084696279,-9934,4157,10254,14869.751880915834
1735565349684,-215,-73,943,969.9499987112738,-9955,4160,13365,17176.462092060752
1735565349713,-215,-73,943,969.9499987112738,-9965,4169,16477,19702.114480430773
1735565349744,-215,-73,943,969.9499987112738,-9966,4180,-16402,19642.279908401673
1735565349774,-229,-63,963,991.8563404041938,-9962,4195,-13263,17109.84038499483
1735565349804,-229,-63,963,991.8563404041938,-9946,4210,-10100,14787.055690704623
1735565349834,-229,-63,963,991.8563404041938,-9924,4217,-6930,12817.712939522402
1735565349864,-217,-61,933,959.843216364006,-9905,4218,-3759,11403.097386236775
1735565349893,-217,-61,933,959.843216364006,-9901,4220,-603,10779.694337039433
1735565349924,-217,-61,933,959.843216364006,-9896,4219,2553,11056.608250272775
1735565349954,-217,-61,933,959.843216364006,-9894,4217,5708,12176.025172444413
1735565349984,-200,-73,941,964.7849501313751,-9872,4223,8854,13917.019400719393
1735565350014,-200,-73,941,964.7849501313751,-9856,4219,11994,16087.160501468245
1735565350044,-200,-73,941,964.7849501313751,-9847,4211,15129,18535.980443451055
1735565350074,-175,-82,946,965.538709736694,-9844,4211,-17754,20732.616163909464
1735565350104,-175,-82,946,965.538709736694,-9845,4214,-14657,18152.39570965772
1735565350134,-175,-82,946,965.538709736694,-9844,4217,-11558,15756.737892089213
1735565350195,-179,-87,967,987.2684538665256,-9839,4226,-8449,13640.036583528652
1735565350196,-179,-87,967,987.2684538665256,-9813,4245,-5308,11936.911577120776
1735565350225,-179,-87,967,987.2684538665256,-9781,4251,-2159,10881.187573054698
1735565350254,-179,-87,967,987.2684538665256,-9755,4245,988,10684.390202533788
1735565350285,-246,-30,941,973.0863271056685,-9753,4246,4199,11435.957589987818
1735565350315,-246,-30,941,973.0863271056685,-9747,4248,7438,12975.875962724058
1735565350344,-246,-30,941,973.0863271056685,-9742,4248,10678,15065.581701348276
1735565350374,-277,-12,960,999.236208311128,-9694,4239,13945,17504.4503484114
1735565350405,-277,-12,960,999.236208311128,-9647,4208,17231,20191.06817382379
1735565350434,-277,-12,960,999.236208311128,-9640,4168,-15510,18731.30865689848
1735565350464,-263,-69,974,1011.2398330762095,-9651,4136,-12282,16158.459734764325
1735565350494,-263,-69,974,1011.2398330762095,-9624,4101,-9100,13865.409370083524
1735565350524,-263,-69,974,1011.2398330762095,-9633,4064,-5943,12026.222765274224
1735565350554,-266,-88,949,989.4953259111435,-9678,4036,-2814,10856.867688242313
1735565350584,-266,-88,949,989.4953259111435,-9733,4027,294,10537.288740468299
1735565350614,-266,-88,949,989.4953259111435,-9777,4039,3405,11112.932781223866
1735565350644,-266,-88,949,989.4953259111435,-9798,4062,6530,12455.583005223
1735565350674,-268,-62,935,974.6245430933903,-9879,4095,9653,14406.390075240917
1735565350704,-268,-62,935,974.6245430933903,-9914,4152,12809,16721.15369823506
1735565350734,-268,-62,935,974.6245430933903,-9895,4210,16006,19282.820359065736
1735565350765,-255,-56,912,948.6332273328824,-9843,4253,-16763,19899.01572942742
1735565350795,-255,-56,912,948.6332273328824,-9796,4283,-13527,17241.967231148537
1735565350825,-255,-56,912,948.6332273328824,-9742,4290,-10278,14796.889808334723
1735565350855,-242,-62,979,1010.3707240414283,-9683,4278,-7025,12704.817905031146
1735565350884,-242,-62,979,1010.3707240414283,-9631,4243,-3790,11185.85311900706
1735565350914,-242,-62,979,1010.3707240414283,-9623,4198,-586,10515.16661779546
1735565350944,-242,-62,979,1010.3707240414283,-9652,4159,2587,10823.629428246331
1735565350974,-246,-90,953,988.3445755403325,-9711,4145,5741,12018.470243753985
1735565351004,-246,-90,953,988.3445755403325,-9755,4150,8895,13838.480769217407
1735565351034,-246,-90,953,988.3445755403325,-9781,4168,12058,16075.93073510831
1735565351064,-278,-37,955,995.3280866126505,-9812,4180,15240,18601.218884793543
1735565351094,-278,-37,955,995.3280866126505,-9844,4203,-17543,20550.58135430723
1735565351124,-278,-37,955,995.3280866126505,-9848,4232,-14308,17877.689783638154
1735565351154,-292,-23,921,966.4543444984869,-9831,4257,-11057,15395.709110008542
1735565351184,-292,-23,921,966.4543444984869,-9802,4275,-7785,13227.284452978245
1735565351214,-292,-23,921,966.4543444984869,-9769,4279,-4506,11577.877093837194
1735565351244,-292,-23,921,966.4543444984869,-9744,4271,-1228,10709.573334171628
1735565351274,-280,-33,945,986.1612444220266,-9702,4252,2046,10788.624750170895
1735565351304,-280,-33,945,986.1612444220266,-9690,4223,5299,11824.095314230175
1735565351334,-280,-33,945,986.1612444220266,-9704,4197,8530,13584.672428881015
1735565351364,-296,-47,963,1008.5603601173308,-9721,4167,11758,15814.938950245745
1735565351394,-296,-47,963,1008.5603601173308,-9740,4140,14982,18343.051109343833
1735565351454,-296,-47,963,1008.5603601173308,-9774,4124,-17808,20728.32159148444
1735565351455,-308,-46,933,983.6000203334687,-9816,4115,-14611,18076.73648643471
1735565351485,-308,-46,933,983.6000203334687,-9864,4109,-11420,15639.653992336276
1735565351523,-308,-46,933,983.6000203334687,-9901,4120,-8224,13514.376678189787
1735565351544,-308,-46,933,983.6000203334687,-9918,4142,-5017,11861.41547202525
1735565351574,-290,-38,946,990.1818014889993,-9929,4149,-1789,10908.701251753117
1735565351605,-290,-38,946,990.1818014889993,-9936,4161,1437,10867.519772238742
1735565351635,-290,-38,946,990.1818014889993,-9933,4172,4672,11742.983309193622
1735565351694,-317,-35,935,987.8962496132881,-9928,4174,7913,13364.244423086551
1735565351695,-317,-35,935,987.8962496132881,-9918,4169,11170,15508.584235835326
1735565351725,-317,-35,935,987.8962496132881,-9915,4163,14421,17988.96981486155
1735565351755,-295,-28,925,971.3053073055866,-9922,4148,17670,20685.281917344033
1735565351784,-295,-28,925,971.3053073055866,-9972,4127,-15115,18572.45643419308
1735565351814,-295,-28,925,971.3053073055866,-10021,4127,-11906,16099.8573285604
1735565351845,-295,-28,925,971.3053073055866,-10053,4144,-8691,13920.094324393065
1735565351874,-286,-30,932,975.3563451375093,-10081,4137,-5477,12195.85417262768
1735565351904,-286,-30,932,975.3563451375093,-10106,4140,-2268,11154.1319698128
1735565351934,-286,-30,932,975.3563451375093,-10121,4152,946,10980.376177526889
1735565351964,-281,-38,925,967.4864340134181,-10109,4153,4167,11696.289112363802
1735565351994,-281,-38,925,967.4864340134181,-10097,4140,7379,13173.406924558278
1735565352024,-281,-38,925,967.4864340134181,-10099,4127,10582,15198.70566857586
1735565352054,-270,-62,946,985.7281572522924,-10108,4117,13777,17576.3216288278
1735565352084,-270,-62,946,985.7281572522924,-10107,4107,16955,20161.62004899408
1735565352114,-270,-62,946,985.7281572522924,-10114,4099,-15872,19261.75435935159
1735565352144,-270,-62,946,985.7281572522924,-10125,4095,-12704,16753.395655806617
1735565352174,-271,-48,958,996.7492162023505,-10141,4106,-9531,14509.964782865602
1735565352204,-271,-48,958,996.7492162023505,-10146,4123,-6347,12657.995654921042
1735565352234,-271,-48,958,996.7492162023505,-10136,4137,-3152,11392.469837572537
1735565352265,-241,-67,950,982.3797636352248,-10131,4156,30,10950.36058767016
1735565352294,-241,-67,950,982.3797636352248,-10123,4173,3198,11406.851537562852
1735565352324,-241,-67,950,982.3797636352248,-10103,4184,6375,12657.688967580141
1735565352354,-249,-63,940,974.4588241685741,-10091,4186,9556,14514.40708399761
1735565352384,-249,-63,940,974.4588241685741,-10092,4187,12747,16788.8487395652
1735565352414,-249,-63,940,974.4588241685741,-10091,4188,15938,19323.236504271223
1735565352444,-249,-63,940,974.4588241685741,-10090,4189,-16869,20097.735743112953
1735565352474,-237,-45,946,976.2735272453104,-10095,4185,-13674,17504.32877890495
1735565352504,-237,-45,946,976.2735272453104,-10108,4185,-10485,15153.254237951662
1735565352534,-237,-45,946,976.2735272453104,-10116,4190,-7293,13155.888605487658
1735565352564,-220,-64,961,987.9357266543203,-10116,4192,-4114,11697.49186791767
1735565352594,-220,-64,961,987.9357266543203,-10114,4188,-955,10988.374083548484
1735565352625,-220,-64,961,987.9357266543203,-10115,4184,2201,11165.280202484844
1735565352655,-224,-66,951,979.2512445741389,-10121,4180,5358,12190.783608939993
1735565352684,-224,-66,951,979.2512445741389,-10129,4175,8522,13879.904538576626
1735565352714,-224,-66,951,979.2512445741389,-10138,4174,11683,16021.666860848156
1735565352744,-224,-66,951,979.2512445741389,-10145,4175,14845,18458.756052345456
1735565352774,-226,-48,950,977.6911577793879,-10158,4173,-17984,21071.85680000697
1735565352804,-226,-48,950,977.6911577793879,-10172,4177,-14811,18446.7513129006
1735565352834,-226,-48,950,977.6911577793879,-10179,4185,-11634,16014.875022927903
1735565352864,-230,-57,957,985.8995892077448,-10161,4199,-8452,13867.726057288555
1735565352894,-230,-57,957,985.8995892077448,-10127,4203,-5261,12161.392148927687
1735565352924,-230,-57,957,985.8995892077448,-10101,4195,-2072,11131.999371182159
1735565352954,-231,-66,967,996.3965074206152,-10092,4185,1107,10981.2630421095
1735565352984,-231,-66,967,996.3965074206152,-10088,4181,4280,11728.891891393661
1735565353014,-231,-66,967,996.3965074206152,-10088,4177,7451,13218.641155580252
1735565353044,-231,-66,967,996.3965074206152,-10091,4174,10618,15231.299386460763
1735565353074,-257,-43,953,987.981275126204,-10110,4174,13817,17622.254821673643
1735565353104,-257,-43,953,987.981275126204,-10121,4182,17029,20246.249183490752
1735565353135,-257,-43,953,987.981275126204,-10123,4193,-15751,19187.245216549458
1735565353164,-269,-33,941,979.2502233852183,-10113,4201,-12522,16634.952780215517
1735565353194,-269,-33,941,979.2502233852183,-10099,4205,-9282,14346.684285924744
1735565353224,-269,-33,941,979.2502233852183,-10086,4203,-6041,12485.442963707776
1735565353254,-257,-45,946,981.3205388658693,-10076,4196,-2805,11269.43729739866
1735565353284,-257,-45,946,981.3205388658693,-10067,4184,404,10909.33366434449
1735565353314,-257,-45,946,981.3205388658693,-10070,4170,3605,11479.974956418677
1735565353344,-257,-45,946,981.3205388658693,-10083,4161,6798,12852.766783848527
1735565353375,-261,-42,958,993.8053129260278,-10105,4149,9988,14801.532690907385
1735565353404,-261,-42,958,993.8053129260278,-10129,4147,13176,17128.95869572929
1735565353434,-261,-42,958,993.8053129260278,-10146,4153,16365,19697.76510165557
1735565353465,-270,-41,952,990.3963852922727,-10148,4163,-16425,19750.774617720694
1735565353495,-270,-41,952,990.3963852922727,-10137,4170,-13198,17156.190515379574
1735565353525,-270,-41,952,990.3963852922727,-10124,4172,-9969,14808.170751311587
1735565353554,-280,-42,945,986.5034211800788,-10114,4170,-6744,12851.592586134997
1735565353584,-280,-42,945,986.5034211800788,-10101,4163,-3519,11477.984622746277
1735565353614,-280,-42,945,986.5034211800788,-10098,4153,-301,10922.802479217502
1735565353644,-280,-42,945,986.5034211800788,-10103,4143,2910,11300.582197391424
1735565353674,-265,-28,946,982.81483505287,-10135,4133,6106,12533.281693156026
1735565353704,-265,-28,946,982.81483505287,-10171,4137,9295,14386.14037885075
1735565353734,-265,-28,946,982.81483505287,-10191,4153,12492,16647.94143430352
1735565353764,-286,-43,946,989.2224219052054,-10180,4168,15709,19177.52082517446
1735565353794,-286,-43,946,989.2224219052054,-10144,4170,-17051,20273.782010271294
1735565353824,-286,-43,946,989.2224219052054,-10118,4159,-13815,17621.73175371819
1735565353854,-302,-47,938,986.537885739823,-10108,4146,-10589,15214.72645169804
1735565353884,-302,-47,938,986.537885739823,-10094,4136,-7350,13153.624291426298
1735565353915,-302,-47,938,986.537885739823,-10091,4124,-4118,11653.050287371114
1735565353945,-302,-47,938,986.537885739823,-10099,4113,-894,10941.01485238001
1735565353974,-236,-52,968,997.7093765220411,-10156,4105,2251,11183.12845316551
1735565354004,-236,-52,968,997.7093765220411,-10215,4119,5375,12255.733800960268
1735565354034,-236,-52,968,997.7093765220411,-10245,4150,8516,13953.66550408888
1735565354064,-246,-44,948,980.3856384097026,-10243,4183,11692,16097.186151622898
1735565354094,-246,-44,948,980.3856384097026,-10216,4209,14899,18548.922825867812
1735565354124,-246,-44,948,980.3856384097026,-10178,4221,-17880,21002.45045226866
1735565354154,-264,-48,948,985.2431172050887,-10139,4219,-14656,18313.86409253929
1735565354184,-264,-48,948,985.2431172050887,-10089,4206,-11411,15801.559353430914
1735565354244,-264,-48,948,985.2431172050887,-10067,4179,-8182,13629.14722203851
1735565354245,-274,-47,953,992.720504472432,-10072,4150,-4973,11974.907640562411
1735565354275,-274,-47,953,992.720504472432,-10089,4129,-1767,11043.498132385408
1735565354305,-274,-47,953,992.720504472432,-10116,4117,1428,11014.641573832532
1735565354335,-274,-47,953,992.720504472432,-10142,4118,4621,11881.570981987188
1735565354364,-254,-35,935,969.518437163523,-10185,4121,7795,13471.410134057978
1735565354395,-254,-35,935,969.518437163523,-10219,4140,10969,15552.701437370937
1735565354424,-254,-35,935,969.518437163523,-10227,4167,14161,17957.988166829826
1735565354454,-246,-35,957,988.731510573017,-10211,4193,17370,20580.638231114215
1735565354484,-246,-35,957,988.731510573017,-10185,4210,-15416,18950.234325728008
1735565354514,-246,-35,957,988.731510573017,-10154,4215,-12195,16419.134142822513
1735565354544,-239,-56,958,988.9494425904693,-10129,4210,-8976,14173.542852794428
1735565354574,-239,-56,958,988.9494425904693,-10105,4195,-5773,12370.795406925134
1735565354604,-239,-56,958,988.9494425904693,-10101,4175,-2584,11231.112233434407
1735565354635,-239,-56,958,988.9494425904693,-10113,4158,592,10950.442776436028
1735565354664,-245,-44,961,992.7144604567821,-10144,4146,3768,11588.264581031968
1735565354694,-245,-44,961,992.7144604567821,-10175,4148,6944,12998.294695843759
1735565354725,-245,-44,961,992.7144604567821,-10194,4160,10126,14958.579879119541
1735565354754,-251,-37,953,986.1941999423846,-10198,4175,13317,17285.03161698005
1735565354784,-251,-37,953,986.1941999423846,-10189,4189,16521,19857.162007698884
1735565354814,-251,-37,953,986.1941999423846,-10173,4197,-16267,19639.75628667525
1735565354844,-239,-50,948,978.9407540806543,-10156,4199,-13053,17063.315797347244
1735565354874,-239,-50,948,978.9407540806543,-10141,4195,-9856,14750.54717629146
1735565354904,-239,-50,948,978.9407540806543,-10134,4187,-6664,12831.127035455615
1735565354934,-239,-50,948,978.9407540806543,-10136,4178,-3478,11501.767864115498
1735565354964,-255,-37,944,978.5346187028847,-10142,4171,-280,10969.767773294017
1735565354994,-255,-37,944,978.5346187028847,-10150,4168,2920,11354.343838373048
1735565355024,-255,-37,944,978.5346187028847,-10158,4168,6121,12570.752920966985
1735565355054,-235,-42,954,983.4149683627965,-10168,4171,9317,14408.051707292003
1735565355084,-235,-42,954,983.4149683627965,-10181,4176,12500,16653.58030574807
1735565355114,-235,-42,954,983.4149683627965,-10185,4185,15690,19168.321522762497
1735565355144,-235,-41,942,971.7355607365618,-10181,4194,-17115,20351.059481019656
1735565355174,-235,-41,942,971.7355607365618,-10169,4201,-13916,17740.124520419806
1735565355204,-235,-41,942,971.7355607365618,-10156,4203,-10714,15349.245616641881
1735565355234,-235,-41,942,971.7355607365618,-10146,4200,-7512,13304.565381852952
1735565355264,-247,-41,945,977.606771662308,-10139,4196,-4302,11786.133420252801
1735565355294,-247,-41,945,977.606771662308,-10134,4189,-1091,11019.79845550725
1735565355324,-247,-41,945,977.606771662308,-10136,4183,2114,11167.138442770378
1735565355354,-296,-32,943,988.8827028520623,-10127,4181,5347,12191.279629308812
1735565355384,-296,-32,943,988.8827028520623,-10100,4175,8621,13919.851507828667
1735565355414,-296,-32,943,988.8827028520623,-10088,4161,11888,16137.106586993841
1735565355444,-328,-28,930,986.5434607760573,-10091,4145,15140,18660.892422389665
1735565355474,-328,-28,930,986.5434607760573,-10088,4132,-17586,20690.784518717504
1735565355504,-328,-28,930,986.5434607760573,-10096,4120,-14322,18000.647210586623
1735565355534,-328,-28,930,986.5434607760573,-10110,4114,-11064,15541.8529139868
1735565355564,-311,-12,922,973.11304584822,-10139,4113,-7825,13451.643579875286
1735565355594,-311,-12,922,973.11304584822,-10167,4125,-4589,11892.957369805039
1735565355625,-311,-12,922,973.11304584822,-10176,4144,-1341,11068.965308464925
1735565355654,-290,-28,950,993.6719780692218,-10169,4157,1900,11148.955556463574
1735565355685,-290,-28,950,993.6719780692218,-10158,4160,5124,12113.873864292958
1735565355714,-290,-28,950,993.6719780692218,-10149,4159,8350,13784.846099975146
1735565355744,-214,-54,950,975.3009791854,-10141,4154,11573,15938.31628497816
1735565355775,-214,-54,950,975.3009791854,-10171,4142,14704,18352.466346515936
1735565355805,-214,-54,950,975.3009791854,-10200,4143,17831,20955.88246769866
1735565355835,-214,-54,950,975.3009791854,-10220,4153,-15036,18648.782936159667
1735565355864,-245,-57,959,991.4408706524056,-10199,4174,-11854,16185.153474712559
1735565355894,-245,-57,959,991.4408706524056,-10161,4183,-8650,13984.48819227933
1735565355924,-245,-57,959,991.4408706524056,-10129,4177,-5446,12235.313073231922
1735565355954,-285,-32,950,992.3452020340502,-10110,4168,-2227,11159.921729116204
1735565355984,-285,-32,950,992.3452020340502,-10096,4160,1020,10967.005790096036
1735565356014,-285,-32,950,992.3452020340502,-10093,4148,4260,11714.185972571888
1735565356044,-249,-31,952,984.5130776175602,-10102,4139,7487,13237.707278830425
1735565356074,-249,-31,952,984.5130776175602,-10146,4142,10658,15286.937037876489
1735565356104,-249,-31,952,984.5130776175602,-10174,4158,13836,17670.148160103243
1735565356135,-249,-31,952,984.5130776175602,-10180,4180,17028,20274.555087596866
1735565356164,-236,-39,940,969.957215551284,-10176,4196,-15776,19236.412555359693
1735565356194,-236,-39,940,969.957215551284,-10163,4208,-12576,16707.770916552574
1735565356224,-236,-39,940,969.957215551284,-10145,4212,-9371,14438.753755085652
1735565356254,-270,-42,948,986.5941414786528,-10116,4207,-6147,12562.560009806919
1735565356284,-270,-42,948,986.5941414786528,-10083,4188,-2903,11297.506007964766
1735565356314,-270,-42,948,986.5941414786528,-10076,4162,322,10906.498246458394
1735565356344,-280,-25,951,991.6783752810182,-10087,4139,3534,11461.590029310943
1735565356374,-280,-25,951,991.6783752810182,-10110,4126,6752,12838.437599645838
1735565356404,-280,-25,951,991.6783752810182,-10136,4124,9965,14800.239761571433
1735565356434,-280,-25,951,991.6783752810182,-10154,4130,13181,17143.49372210927
1735565356464,-261,-28,945,980.780301596642,-10182,4137,16367,19714.6286295228
1735565356494,-261,-28,945,980.780301596642,-10200,4152,-16444,19791.014122575933
1735565356524,-261,-28,945,980.780301596642,-10200,4170,-13245,17229.5944525691
1735565356554,-256,-26,948,982.3013794146885,-10188,4186,-10030,14896.940625510997
1735565356584,-256,-26,948,982.3013794146885,-10171,4195,-6807,12937.639467847293
1735565356614,-256,-26,948,982.3013794146885,-10153,4197,-3581,11555.162439360167
1735565356644,-276,-41,956,995.8880459168089,-10137,4194,-356,10976.116845223542
1735565356674,-276,-41,956,995.8880459168089,-10099,4183,2888,11306.097204606018
1735565356704,-276,-41,956,995.8880459168089,-10083,4161,6120,12507.406205924552
1735565356734,-276,-41,956,995.8880459168089,-10088,4138,9336,14354.500478943877
1735565356764,-273,-36,942,981.4219276131953,-10111,4122,12546,16632.05702852176
1735565356794,-273,-36,942,981.4219276131953,-10140,4117,15748,19177.298897394285
1735565356824,-273,-36,942,981.4219276131953,-10163,4123,-17048,20271.161831528058
1735565356854,-255,-49,971,1005.1203907990326,-10181,4136,-13856,17684.682439896962
1735565356884,-255,-49,971,1005.1203907990326,-10189,4151,-10673,15328.387097147566
1735565356914,-255,-49,971,1005.1203907990326,-10183,4166,-7480,13304.113837456443
1735565356944,-231,-60,979,1007.6715734801692,-10168,4175,-4279,11795.282531588635
1735565356974,-231,-60,979,1007.6715734801692,-10161,4176,-1104,11041.001449144003
1735565357004,-231,-60,979,1007.6715734801692,-10156,4175,2069,11173.885716258244
1735565357035,-231,-60,979,1007.6715734801692,-10154,4172,5242,12165.026263843412
1735565357065,-206,-47,961,983.9542672299358,-10183,4163,8392,13836.535765862784
1735565357095,-206,-47,961,983.9542672299358,-10218,4168,11532,15961.41510017204
1735565357125,-206,-47,961,983.9542672299358,-10238,4184,14681,18380.812305227428
1735565357155,-206,-50,956,979.2200978329643,-10238,4203,17844,20997.38528960213
1735565357214,-206,-50,956,979.2200978329643,-10223,4217,-14980,18619.69972905041
1735565357215,-206,-50,956,979.2200978329643,-10203,4223,-11797,16158.717368652748
1735565357245,-262,-47,948,984.6608553202468,-10180,4223,-8610,13985.643674854582
1735565357275,-262,-47,948,984.6608553202468,-10119,4214,-5352,12198.190890455846
1735565357304,-262,-47,948,984.6608553202468,-10084,4187,-2109,11120.517344080716
1735565357335,-262,-47,948,984.6608553202468,-10082,4154,1110,10960.590312569848
1735565357365,-296,-28,950,995.4396013822235,-10097,4130,4350,11744.30964339752
1735565357395,-296,-28,950,995.4396013822235,-10122,4116,7592,13305.442645774698
1735565357424,-296,-28,950,995.4396013822235,-10148,4114,10828,15399.755972092546
1735565357455,-312,-23,925,976.4722218271239,-10167,4120,14063,17835.645713009664
1735565357484,-312,-23,925,976.4722218271239,-10170,4131,17312,20498.76593846566
1735565357514,-312,-23,925,976.4722218271239,-10164,4141,-15430,18935.143965652864
1735565357544,-273,-35,945,984.2657161559575,-10150,4146,-12170,16380.498038826536
1735565357574,-273,-35,945,984.2657161559575,-10154,4143,-8957,14159.661507253624
1735565357604,-273,-35,945,984.2657161559575,-10159,4141,-5745,12383.787263999653
1735565357635,-273,-35,945,984.2657161559575,-10164,4142,-2535,11264.514414745094
1735565357665,-208,-53,957,980.7762232028263,-10201,4140,613,11026.140303841594
1735565357695,-208,-53,957,980.7762232028263,-10238,4152,3740,11663.762171786597
1735565357725,-208,-53,957,980.7762232028263,-10255,4173,6880,13035.081664492938
1735565357754,-250,-33,949,981.9317695237281,-10239,4198,10061,14956.070540085053
1735565357784,-250,-33,949,981.9317695237281,-10195,4213,13294,17274.77438347604
1735565357814,-250,-33,949,981.9317695237281,-10154,4211,16530,19851.37619914549
1735565357844,-273,-36,949,988.1427022449743,-10126,4197,-16241,19593.89614140077
1735565357874,-273,-36,949,988.1427022449743,-10092,4176,-12996,16975.967012220543
1735565357904,-273,-36,949,988.1427022449743,-10085,4148,-9770,14641.24410697397
1735565357934,-249,-46,948,981.2344266280103,-10104,4123,-6565,12735.351192644826
1735565357964,-249,-46,948,981.2344266280103,-10150,4109,-3406,11467.659613016076
1735565357994,-249,-46,948,981.2344266280103,-10191,4113,-249,10992.508858308916
1735565358024,-249,-46,948,981.2344266280103,-10216,4130,2914,11398.024039279791
1735565358054,-243,-35,939,970.5642688663127,-10227,4155,6094,12609.218453179405
1735565358084,-243,-35,939,970.5642688663127,-10222,4183,9288,14430.998475504042
1735565358114,-243,-35,939,970.5642688663127,-10198,4203,12501,16671.515048129248
1735565358144,-253,-36,946,979.908669213616,-10165,4213,15722,19190.04632615565
1735565358174,-253,-36,946,979.908669213616,-10126,4211,-17043,20266.530191426453
1735565358204,-253,-36,946,979.908669213616,-10101,4196,-13816,17621.53435430638
1735565358234,-260,-35,945,980.7395168952866,-10097,4175,-10602,15224.402714064023
1735565358264,-260,-35,945,980.7395168952866,-10107,4152,-7395,13193.808320572192
1735565358294,-260,-35,945,980.7395168952866,-10131,4138,-4200,11721.783354080555
1735565358325,-260,-35,945,980.7395168952866,-10158,4134,-1011,11013.493587413577
1735565358354,-254,-50,952,986.5698150663236,-10173,4140,2167,11194.883563485599
1735565358385,-254,-50,952,986.5698150663236,-10178,4148,5349,12223.31333968004
1735565358415,-254,-50,952,986.5698150663236,-10176,4156,8538,13918.360391942724
1735565358445,-277,-43,946,986.6579954573925,-10167,4163,11734,16074.365119655582
1735565358474,-277,-43,946,986.6579954573925,-10142,4167,14969,18555.18833103022
1735565358504,-277,-43,946,986.6579954573925,-10121,4163,-17796,20891.692750947685
1735565358534,-255,-28,937,971.4823724597375,-10112,4151,-14570,18214.506444040693
1735565358564,-255,-28,937,971.4823724597375,-10145,4140,-11382,15799.067978839765
1735565358594,-255,-28,937,971.4823724597375,-10175,4143,-8196,13706.549164541744
1735565358624,-255,-28,937,971.4823724597375,-10193,4155,-5004,12091.372544091097
1735565358654,-239,-40,946,976.5433938130963,-10197,4170,-1822,11166.350925884428
1735565358684,-239,-40,946,976.5433938130963,-10191,4182,1362,11099.57877579145
1735565358714,-239,-40,946,976.5433938130963,-10177,4190,4554,11910.765928352383
1735565358744,-240,-45,941,972.1656237493692,-10159,4192,7754,13450.00598512878
1735565358774,-240,-45,941,972.1656237493692,-10142,4187,10955,15504.939793498072
1735565358804,-240,-45,941,972.1656237493692,-10135,4178,14150,17899.62035910259
1735565358834,-242,-39,949,980.1459075056122,-10138,4168,17338,20512.374606563717
1735565358864,-242,-39,949,980.1459075056122,-10151,4163,-15474,18968.87044607559
1735565358894,-242,-39,949,980.1459075056122,-10164,4164,-12288,16481.527113711276
1735565358924,-242,-39,949,980.1459075056122,-10172,4168,-9101,14271.300186037712
1735565358954,-244,-35,936,967.9137358256675,-10172,4175,-5906,12481.22770403617
1735565358984,-244,-35,936,967.9137358256675,-10167,4181,-2706,11321.266978567372
1735565359013,-244,-35,936,967.9137358256675,-10159,4184,495,10998.00718312186
1735565359044,-256,-40,954,988.5605697174049,-10148,4183,3706,11585.069227242451
1735565359074,-256,-40,954,988.5605697174049,-10133,4177,6925,12964.591894849602
1735565359104,-256,-40,954,988.5605697174049,-10128,4168,10137,14923.383564058118
1735565359134,-260,-27,954,989.1637882575362,-10132,4159,13343,17262.397110482656
1735565359164,-260,-27,954,989.1637882575362,-10147,4156,16548,19851.202709155936
1735565359194,-260,-27,954,989.1637882575362,-10160,4160,-16245,19606.91778429236
1735565359224,-260,-27,954,989.1637882575362,-10166,4167,-13034,17046.894174599664
1735565359254,-265,-33,942,979.1210343976887,-10160,4174,-9820,14733.6443556915
1735565359284,-265,-33,942,979.1210343976887,-10147,4177,-6599,12804.520256534408
1735565359314,-265,-33,942,979.1210343976887,-10137,4176,-3379,11472.374906705238
1735565359344,-269,-33,963,1000.409416189192,-10130,4169,-158,10955.474658817846
1735565359374,-269,-33,963,1000.409416189192,-10129,4160,3060,11369.513665940158
1735565359404,-269,-33,963,1000.409416189192,-10135,4153,6273,12622.050665402987
1735565359434,-256,-40,959,993.3866316797303,-10145,4149,9480,14491.570860331187
1735565359464,-256,-40,959,993.3866316797303,-10159,4149,12667,16759.247327967925
1735565359494,-256,-40,959,993.3866316797303,-10169,4154,15856,19289.297887688914
1735565359525,-256,-40,959,993.3866316797303,-10171,4161,-16950,20200.635188033073
1735565359555,-232,-48,946,975.2148481232225,-10174,4164,-13773,17622.278541664244
1735565359584,-232,-48,946,975.2148481232225,-10177,4169,-10603,15276.63244959438
1735565359614,-232,-48,946,975.2148481232225,-10176,4173,-7429,13272.337623794838
1735565359644,-244,-34,947,978.5198005150432,-10173,4178,-4241,11786.928946931002
1735565359674,-244,-34,947,978.5198005150432,-10167,4183,-1035,11042.490796917153
1735565359704,-244,-34,947,978.5198005150432,-10158,4186,2172,11199.33676607682
1735565359734,-260,-33,945,980.6701790102521,-10151,4185,5380,12227.077573974902
1735565359764,-260,-33,945,980.6701790102521,-10135,4183,8606,13938.398401538105
1735565359795,-260,-33,945,980.6701790102521,-10126,4176,11828,16120.683484269517
1735565359824,-260,-33,945,980.6701790102521,-10126,4167,15044,18607.033643222123
1735565359854,-258,-38,937,972.6134895219169,-10130,4159,-17746,20852.690401960128
1735565359884,-258,-38,937,972.6134895219169,-10138,4153,-14543,18207.836280019656
1735565359913,-258,-38,937,972.6134895219169,-10148,4151,-11343,15775.815478129807
1735565359944,-282,-26,954,995.1462204118549,-10153,4152,-8135,13656.52730382069
1735565359974,-282,-26,954,995.1462204118549,-10150,4155,-4909,12016.022886130002
1735565360004,-282,-26,954,995.1462204118549,-10145,4157,-1681,11091.773302768137
1735565360034,-262,-45,956,992.272643984505,-10141,4157,1545,11068.313105437523
1735565360064,-262,-45,956,992.272643984505,-10140,4152,4747,11941.219075119592
1735565360094,-262,-45,956,992.272643984505,-10142,4148,7946,13535.32356465851
1735565360124,-262,-45,956,992.272643984505,-10147,4145,11142,15629.67683607054
1735565360154,-236,-36,949,978.5668091653222,-10175,4144,14309,18040.256151174795
1735565360184,-236,-36,949,978.5668091653222,-10203,4155,17471,20654.323397293847
1735565360214,-236,-36,949,978.5668091653222,-10213,4174,-15356,18908.57956061216
1735565360244,-236,-35,943,972.7127016750629,-10204,4192,-12166,16422.72924942745
1735565360274,-236,-35,943,972.7127016750629,-10184,4204,-8963,14202.916637085496
1735565360304,-236,-35,943,972.7127016750629,-10161,4207,-5756,12412.747721596535
1735565360334,-243,-31,938,969.4606748084215,-10143,4202,-2548,11270.738973110858
1735565360364,-243,-31,938,969.4606748084215,-10129,4195,668,10983.664688982453
1735565360394,-243,-31,938,969.4606748084215,-10126,4184,3878,11622.418681152387
1735565360424,-243,-31,938,969.4606748084215,-10131,4175,7081,13046.392106632393
1735565360454,-259,-39,946,981.5895272464962,-10130,4167,10289,15028.117313888657
1735565360484,-259,-39,946,981.5895272464962,-10130,4159,13497,17380.540555460295
1735565360514,-259,-39,946,981.5895272464962,-10136,4152,16700,19971.66993518569
1735565360544,-258,-45,950,985.438481083421,-10138,4150,-16095,19469.221068137267
1735565360574,-258,-45,950,985.438481083421,-10136,4148,-12891,16915.14945248785
1735565360604,-258,-45,950,985.438481083421,-10137,4145,-9690,14623.128734986914
1735565360635,-257,-52,957,992.2711323020538,-10141,4145,-6494,12735.49928349886
1735565360695,-257,-52,957,992.2711323020538,-10142,4147,-3309,11445.840030334166
1735565360696,-257,-52,957,992.2711323020538,-10141,4149,-122,10957.598550777448
1735565360725,-257,-52,957,992.2711323020538,-10138,4150,3066,11375.495593599428
1735565360754,-249,-47,958,990.9460126565928,-10145,4158,6256,12623.292953900736
1735565360784,-249,-47,958,990.9460126565928,-10147,4167,9449,14477.883098022307
1735565360814,-249,-47,958,990.9460126565928,-10141,4175,12648,16740.442347799533
1735565360844,-241,-47,941,972.5075835179898,-10140,4181,15841,19267.528175663843
1735565360875,-241,-47,941,972.5075835179898,-10141,4186,-16971,20208.347730579062
1735565360904,-241,-47,941,972.5075835179898,-10138,4191,-13780,17613.401857676443
1735565360934,-275,-18,936,975.7279333912707,-10129,4194,-10579,15234.87833886441
1735565360964,-275,-18,936,975.7279333912707,-10113,4195,-7324,13172.386647832654
1735565360994,-275,-18,936,975.7279333912707,-10100,4190,-4070,11667.519016483324
1735565361024,-275,-18,936,975.7279333912707,-10096,4183,-821,10959.048590092116
1735565361054,-287,-18,942,984.9147171202185,-10080,4178,2442,11181.477898739504
1735565361084,-287,-18,942,984.9147171202185,-10071,4168,5706,12302.670482460302
1735565361115,-287,-18,942,984.9147171202185,-10072,4157,8961,14107.634599747755
1735565361145,-295,-31,946,991.4141415170554,-10072,4152,12207,16361.391658413413
1735565361174,-295,-31,946,991.4141415170554,-10064,4146,15454,18902.36831722417
1735565361204,-295,-31,946,991.4141415170554,-10062,4139,-17303,20439.397593862694
1735565361234,-299,-24,945,991.4645732450555,-10068,4134,-14072,17789.76570953086
1735565361264,-299,-24,945,991.4645732450555,-10079,4136,-10847,15373.683553397344
1735565361295,-299,-24,945,991.4645732450555,-10085,4141,-7619,13300.536342569047
1735565361325,-299,-24,945,991.4645732450555,-10085,4148,-4388,11754.474594808566
1735565361354,-305,-36,930,979.3982846625779,-10069,4160,-1143,10954.305546222453
1735565361384,-305,-36,930,979.3982846625779,-10045,4162,2108,11075.55565197521
1735565361414,-305,-36,930,979.3982846625779,-10027,4156,5358,12104.595367049656
1735565361445,-313,-26,933,984.4460371193537,-10008,4150,8607,13837.016043930858
1735565361474,-313,-26,933,984.4460371193537,-9994,4142,11858,16051.428721456543
1735565361504,-313,-26,933,984.4460371193537,-9991,4130,15101,18571.9461015802
1735565361534,-322,-28,940,994.0160964491471,-9992,4125,-17662,20707.533242759746
1735565361564,-322,-28,940,994.0160964491471,-9977,4127,-14417,18011.733592300327
1735565361594,-322,-28,940,994.0160964491471,-9965,4123,-11172,15527.843958515297
1735565361624,-322,-28,940,994.0160964491471,-9960,4116,-7932,13381.318320703682
1735565361655,-315,-22,934,985.9335677417622,-9956,4122,-4703,11757.169259647493
1735565361684,-315,-22,934,985.9335677417622,-9952,4127,-1473,10874.01315062659
1735565361714,-315,-22,934,985.9335677417622,-9945,4128,1758,10910.269153416886
1735565361744,-297,-39,922,969.4400445618079,-9939,4139,4976,11860.675275885433
1735565361774,-297,-39,922,969.4400445618079,-9926,4149,8183,13516.699523182426
1735565361804,-297,-39,922,969.4400445618079,-9909,4153,11394,15660.744746020222
1735565361834,-291,-28,924,969.1444680748067,-9889,4156,14609,18124.225169645186
1735565361864,-291,-28,924,969.1444680748067,-9872,4163,17828,20799.628289947876
1735565361924,-291,-28,924,969.1444680748067,-9854,4163,-14949,18382.178488960442
1735565361924,-304,-69,948,997.9383748508723,-9841,4166,-11729,15867.270653770294
1735565361954,-304,-69,948,997.9383748508723,-9783,4168,-8490,13607.329385298204
1735565361984,-304,-69,948,997.9383748508723,-9743,4150,-5258,11823.498340169885
1735565362014,-304,-69,948,997.9383748508723,-9730,4122,-2044,10762.979141483087
1735565362044,-313,-42,956,1006.8113030752088,-9758,4111,1170,10653.064582550882
1735565362074,-313,-42,956,1006.8113030752088,-9788,4115,4389,11489.190136819914
1735565362104,-313,-42,956,1006.8113030752088,-9806,4128,7613,13082.65221581618
1735565362134,-286,-31,916,960.1109310907776,-9813,4148,10841,15199.610323952387
1735565362164,-286,-31,916,960.1109310907776,-9838,4178,14037,17643.109051411546
1735565362194,-286,-31,916,960.1109310907776,-9831,4211,17257,20302.342992866612
1735565362224,-263,-45,940,977.1356098311022,-9799,4239,-15504,18824.54615654784
1735565362254,-263,-45,940,977.1356098311022,-9758,4254,-12281,16252.324172253026
1735565362284,-263,-45,940,977.1356098311022,-9718,4253,-9053,13945.764303185395
1735565362314,-263,-45,940,977.1356098311022,-9693,4238,-5833,12080.512489128927
1735565362344,-271,-35,923,962.5980469541792,-9663,4228,-2593,10861.546943230509
1735565362374,-271,-35,923,962.5980469541792,-9651,4210,639,10548.659725292118
1735565362404,-271,-35,923,962.5980469541792,-9657,4192,3858,11212.255660659901
1735565362434,-274,-54,985,1023.8246920249579,-9652,4182,7075,12676.981225828175
1735565362464,-274,-54,985,1023.8246920249579,-9639,4168,10289,14701.90688312234
1735565362495,-274,-54,985,1023.8246920249579,-9641,4153,13493,17095.535645308104
1735565362524,-250,-62,985,1018.1203268769365,-9661,4140,16679,19714.55203650339
1735565362554,-250,-62,985,1018.1203268769365,-9706,4139,-16183,19319.090195969373
1735565362584,-250,-62,985,1018.1203268769365,-9738,4152,-13040,16796.111097513018
1735565362614,-250,-62,985,1018.1203268769365,-9750,4173,-9885,14497.918954112001
1735565362644,-218,-35,958,983.1139303254736,-9827,4182,-6784,12652.34006024182
1735565362674,-218,-35,958,983.1139303254736,-9886,4218,-3677,11359.790887159852
1735565362704,-218,-35,958,983.1139303254736,-9898,4267,-539,10792.044013994753
1735565362734,-210,-41,928,952.3471005888557,-9865,4311,2640,11084.788947021048
1735565362764,-210,-41,928,952.3471005888557,-9807,4335,5846,12212.501381780883
1735565362794,-210,-41,928,952.3471005888557,-9749,4335,9060,13997.10062834443
1735565362824,-228,-63,953,981.9175118104372,-9699,4314,12271,16225.246931865167
1735565362854,-228,-63,953,981.9175118104372,-9637,4266,15487,18732.79728177295
1735565362884,-228,-63,953,981.9175118104372,-9633,4207,-17336,20273.885518074723
1735565362914,-228,-63,953,981.9175118104372,-9674,4159,-14198,17676.72936377089
1735565362944,-255,-37,953,987.2198336743443,-9740,4116,-11059,15300.67112907143
1735565362974,-255,-37,953,987.2198336743443,-9815,4104,-7926,13266.443268638359
1735565363004,-255,-37,953,987.2198336743443,-9875,4120,-4790,11723.230143608032
1735565363034,-244,-47,967,998.4157450681555,-9917,4148,-1656,10876.356421155018
1735565363064,-244,-47,967,998.4157450681555,-9932,4182,1482,10877.962676898647
1735565363094,-244,-47,967,998.4157450681555,-9917,4214,4645,11733.742369764217
1735565363124,-238,-57,968,998.4573100538651,-9887,4235,7827,13302.252553609107
1735565363154,-238,-57,968,998.4573100538651,-9859,4243,11013,15378.202073064329
1735565363184,-238,-57,968,998.4573100538651,-9833,4240,14200,17784.979308393922
1735565363215,-238,-57,968,998.4573100538651,-9818,4230,17382,20406.370279890543
1735565363244,-230,-44,956,984.2621601992022,-9845,4212,-15458,18804.646580034416
1735565363274,-230,-44,956,984.2621601992022,-9881,4208,-12308,16334.879522053416
1735565363304,-230,-44,956,984.2621601992022,-9908,4217,-9156,14134.492880892472
1735565363334,-207,-44,945,968.4059066321312,-9937,4229,-6012,12360.119497804219
1735565363365,-207,-44,945,968.4059066321312,-9964,4249,-2878,11207.95168619137
1735565363395,-207,-44,945,968.4059066321312,-9966,4274,272,10847.221579741054
1735565363425,-213,-47,963,987.3940449486213,-9949,4290,3440,11367.510765334688
1735565363455,-213,-47,963,987.3940449486213,-9923,4286,6621,12675.699822889464
1735565363485,-213,-47,963,987.3940449486213,-9908,4274,9795,14573.17964618566
1735565363515,-213,-47,963,987.3940449486213,-9907,4260,12960,16859.94807228065
1735565363544,-252,-39,943,976.869489747735,-9900,4241,16166,19425.129008580614
1735565363574,-252,-39,943,976.869489747735,-9903,4222,-16625,19806.193930182548
1735565363604,-252,-39,943,976.869489747735,-9919,4208,-13429,17217.196810166282
1735565363635,-265,-32,952,988.712799553035,-9935,4203,-10231,14867.508029256282
1735565363664,-265,-32,952,988.712799553035,-9945,4204,-7020,12878.54964660229
1735565363694,-265,-32,952,988.712799553035,-9950,4209,-3808,11455.08817076499
1735565363724,-229,-48,953,981.3021960639852,-9952,4212,-598,10823.162754019733
1735565363754,-229,-48,953,981.3021960639852,-9968,4212,2557,11119.362256892255
1735565363784,-229,-48,953,981.3021960639852,-9980,4217,5716,12249.740609498635
1735565363814,-229,-48,953,981.3021960639852,-9984,4225,8880,14013.753280260074
1735565363844,-207,-44,970,992.8167001012825,-10000,4228,12042,16213.751817515895
1735565363874,-207,-44,970,992.8167001012825,-10015,4237,15199,18688.55251216637
1735565363904,-207,-44,970,992.8167001012825,-10017,4249,-17636,20722.518814082425
1735565363934,-230,-38,962,989.8424116999635,-10008,4255,-14445,18081.015292289314
1735565363964,-230,-38,962,989.8424116999635,-9991,4255,-11230,15621.71584685882
1735565363995,-230,-38,962,989.8424116999635,-9980,4249,-8017,13488.020240198337
1735565364025,-237,-33,933,963.1962416870199,-9976,4237,-4808,11857.048916151101
1735565364054,-237,-33,933,963.1962416870199,-9980,4221,-1597,10952.974481847385
1735565364084,-237,-33,933,963.1962416870199,-9996,4210,1604,10964.348225042837
1735565364114,-237,-33,933,963.1962416870199,-10015,4206,4800,11875.633077861576
1735565364144,-248,-33,953,985.2928498674898,-10022,4195,7993,13488.015346966358
1735565364174,-248,-33,953,985.2928498674898,-10033,4189,11184,15597.777598106724
1735565364204,-248,-33,953,985.2928498674898,-10045,4188,14372,18027.63858634846
1735565364234,-243,-35,949,980.2423169808576,-10053,4188,17565,20667.156988807146
1735565364264,-243,-35,949,980.2423169808576,-10058,4190,-15241,18735.195355266515
1735565364294,-243,-35,949,980.2423169808576,-10061,4194,-12047,16246.340080153437
1735565364324,-267,-36,953,990.350443025094,-10061,4198,-8849,14041.0728222597
1735565364354,-267,-36,953,990.350443025094,-10042,4201,-5619,12250.03371423932
1735565364384,-267,-36,953,990.350443025094,-10027,4197,-2391,11129.79869539427
1735565364414,-267,-36,953,990.350443025094,-10020,4188,832,10891.83033286876
1735565364444,-289,-34,935,979.2354160261974,-10008,4184,4072,11586.505253958157
1735565364474,-289,-34,935,979.2354160261974,-9999,4177,7315,13074.27072535979
1735565364504,-289,-34,935,979.2354160261974,-9999,4167,10552,15122.453306259536
1735565364534,-273,-19,936,975.185110632848,-10017,4160,13766,17525.656763727857
1735565364564,-273,-19,936,975.185110632848,-10049,4165,16962,20150.411162058208
1735565364594,-273,-19,936,975.185110632848,-10067,4179,-15834,19223.0092857492
1735565364624,-278,-25,946,986.3189139421387,-10066,4201,-12615,16676.659797453445
1735565364654,-278,-25,946,986.3189139421387,-10031,4224,-9365,14358.494419680637
1735565364684,-278,-25,946,986.3189139421387,-9989,4230,-6106,12448.142712870864
1735565364714,-278,-25,946,986.3189139421387,-9956,4221,-2849,11182.825135000547
1735565364744,-306,-26,957,1005.0676594140317,-9922,4216,418,10788.672948977552
1735565364774,-306,-26,957,1005.0676594140317,-9898,4199,3688,11366.765107100613
1735565364804,-306,-26,957,1005.0676594140317,-9895,4177,6942,12788.655832416478
1735565364834,-294,-24,930,975.6597767664709,-9913,4166,10176,14804.529745993284
1735565364864,-294,-24,930,975.6597767664709,-9938,4169,13399,17195.278596172848
1735565364894,-294,-24,930,975.6597767664709,-9953,4180,16628,19824.857956615982
1735565364924,-252,-20,964,996.5942002640794,-9957,4193,-16141,19423.052772414536
1735565364954,-252,-20,964,996.5942002640794,-9988,4210,-12963,16897.443978306306
1735565364984,-252,-20,964,996.5942002640794,-9997,4234,-9770,14605.466955903876
1735565365014,-252,-20,964,996.5942002640794,-9984,4256,-6560,12681.774008394883
1735565365044,-181,-31,950,967.5856551231008,-9994,4266,-3393,11383.814870244509
1735565365074,-181,-31,950,967.5856551231008,-10006,4279,-245,10885.306702155893
1735565365104,-181,-31,950,967.5856551231008,-10004,4294,2912,11269.347629743259
1735565365134,-186,-36,971,989.3093550553335,-9988,4289,6086,12457.73097317485
1735565365164,-186,-36,971,989.3093550553335,-9979,4271,9259,14267.12875809285
1735565365194,-186,-36,971,989.3093550553335,-9987,4254,12418,16493.73847858635
1735565365224,-179,-34,963,980.0846902181464,-10003,4237,15570,18985.180483735203
1735565365254,-179,-34,963,980.0846902181464,-10038,4216,-17294,20435.717163828627
1735565365284,-179,-34,963,980.0846902181464,-10076,4211,-14166,17886.69485958767
1735565365315,-179,-34,963,980.0846902181464,-10106,4219,-11036,15547.491534006378
1735565365345,-187,-45,938,957.5165794909245,-10114,4211,-7898,13505.69957462404
1735565365375,-187,-45,938,957.5165794909245,-10122,4205,-4760,11949.66564385799
1735565365404,-187,-45,938,957.5165794909245,-10132,4203,-1626,11089.026512728698
1735565365434,-243,-27,961,991.6143403561689,-10123,4201,1551,11069.2877367968
1735565365464,-243,-27,961,991.6143403561689,-10097,4193,4778,11931.46856007256
1735565365495,-243,-27,961,991.6143403561689,-10086,4179,7998,13533.641084349769
1735565365524,-286,-28,948,990.5977993111029,-10091,4164,11205,15643.503507846317
1735565365554,-286,-28,948,990.5977993111029,-10076,4153,14453,18101.44729020307
1735565365584,-286,-28,948,990.5977993111029,-10074,4140,17691,20774.902093632114
1735565365614,-264,-20,940,976.5736019368944,-10087,4126,-15083,18608.28670243448
1735565365644,-264,-20,940,976.5736019368944,-10136,4118,-11900,16164.97510050665
1735565365674,-264,-20,940,976.5736019368944,-10175,4128,-8715,14018.638806959825
1735565365704,-264,-20,940,976.5736019368944,-10193,4150,-5518,12311.298591131645
1735565365734,-258,-22,942,976.9401209900226,-10198,4174,-2331,11262.994317675917
1735565365764,-258,-22,942,976.9401209900226,-10184,4195,869,11048.395449113867
1735565365794,-258,-22,942,976.9401209900226,-10158,4208,4082,11728.382326646757
1735565365824,-269,-26,957,994.4274734740588,-10126,4215,7309,13180.424196512038
1735565365854,-269,-26,957,994.4274734740588,-10075,4217,10570,15199.132014690838
1735565365885,-269,-26,957,994.4274734740588,-10040,4201,13825,17594.903409794555
1735565365915,-287,-33,954,996.7818216640992,-10031,4179,17061,20227.771083339856
1735565365944,-287,-33,954,996.7818216640992,-10028,4160,-15704,19091.41168169604
1735565365974,-287,-33,954,996.7818216640992,-10040,4144,-12482,16546.137313584702
1735565366005,-287,-33,954,996.7818216640992,-10060,4136,-9269,14290.712263564752
1735565366064,-279,-17,935,975.8867762194546,-10092,4140,-6062,12479.419377519132
1735565366065,-279,-17,935,975.8867762194546,-10115,4156,-2851,11301.05136701891
1735565366094,-279,-17,935,975.8867762194546,-10118,4176,373,10952.26136466803
1735565366124,-246,-28,961,992.3814790694151,-10105,4194,3604,11519.091847884538
1735565366154,-246,-28,961,992.3814790694151,-10101,4204,6791,12877.169642433077
1735565366184,-246,-28,961,992.3814790694151,-10090,4209,9984,14805.540753380135
1735565366214,-231,-36,964,991.9440508415785,-10079,4213,13184,17121.72497150915
1735565366244,-231,-36,964,991.9440508415785,-10069,4218,16382,19686.193359814384
1735565366274,-231,-36,964,991.9440508415785,-10060,4218,-16418,19711.5663507495
1735565366304,-231,-36,964,991.9440508415785,-10053,4215,-13220,17134.685115285894
1735565366334,-208,-40,950,973.3262556820298,-10076,4203,-10053,14840.949902213133
1735565366363,-208,-40,950,973.3262556820298,-10106,4201,-6901,12938.448052220174
1735565366394,-208,-40,950,973.3262556820298,-10127,4209,-3746,11588.974329076755
1735565366424,-189,-33,948,967.2197268459737,-10144,4213,-587,10999.75790642685
1735565366454,-189,-33,948,967.2197268459737,-10168,4221,2563,11303.71770702011
1735565366484,-189,-33,948,967.2197268459737,-10177,4235,5721,12419.194619620066
1735565366514,-215,-23,963,986.9766967867073,-10173,4243,8889,14160.059992810764
1735565366544,-215,-23,963,986.9766967867073,-10156,4238,12083,16343.312669101084
1735565366574,-215,-23,963,986.9766967867073,-10149,4228,15270,18816.245241811663
1735565366604,-215,-23,963,986.9766967867073,-10152,4217,-17548,20706.96735400913
1735565366634,-307,-10,944,992.7159714641444,-10087,4208,-14259,17965.909773791027
1735565366664,-307,-10,944,992.7159714641444,-10034,4176,-10950,15427.982110438163
1735565366694,-307,-10,944,992.7159714641444,-10023,4133,-7670,13280.478831728922
1735565366724,-259,-44,955,990.4756433148672,-10065,4097,-4458,11745.782136579923
1735565366754,-259,-44,955,990.4756433148672,-10132,4082,-1310,11001.647512986407
1735565366784,-259,-44,955,990.4756433148672,-10188,4092,1838,11131.848543705579
1735565366814,-238,-17,925,955.2790168322551,-10225,4116,4998,12102.565223951491
1735565366844,-238,-17,925,955.2790168322551,-10280,4150,8150,13759.48400195298
1735565366874,-238,-17,925,955.2790168322551,-10292,4197,11331,15872.354393724958
1735565366903,-238,-17,925,955.2790168322551,-10264,4238,14543,18297.791915966252
1735565366934,-241,-19,965,994.8200842363407,-10197,4267,17789,20943.605682880872
1735565366964,-241,-19,965,994.8200842363407,-10129,4267,-14953,18557.913110045538
1735565366994,-241,-19,965,994.8200842363407,-10083,4244,-11707,16022.867221568054
1735565367024,-256,-34,962,996.0602391421917,-10056,4211,-8470,13805.671189768356
1735565367054,-256,-34,962,996.0602391421917,-10048,4170,-5245,12077.302223592817
1735565367084,-256,-34,962,996.0602391421917,-10073,4135,-2047,11079.429723591373
1735565367114,-253,-20,946,979.4513770473754,-10120,4113,1130,10982.170504959391
1735565367144,-253,-20,946,979.4513770473754,-10188,4110,4293,11794.79940482245
1735565367175,-253,-20,946,979.4513770473754,-10235,4130,7464,13323.791539948379
1735565367205,-253,-20,946,979.4513770473754,-10252,4163,10654,15360.396772219134
1735565367235,-239,-30,958,987.8183031306921,-10238,4199,13845,17723.776967678194
1735565367264,-239,-30,958,987.8183031306921,-10202,4223,17052,20314.65571945535
1735565367294,-239,-30,958,987.8183031306921,-10159,4230,-15730,19197.1633581631
1735565367324,-253,-25,945,978.6005313712026,-10123,4221,-12504,16632.55801132225
1735565367354,-253,-25,945,978.6005313712026,-10101,4203,-9276,14343.625273967527
1735565367384,-253,-25,945,978.6005313712026,-10101,4180,-6062,12500.017799987327
1735565367414,-258,-19,949,983.6289950992701,-10118,4162,-2860,11308.216835558116
1735565367444,-258,-19,949,983.6289950992701,-10146,4154,344,10968.83621903436
1735565367474,-258,-19,949,983.6289950992701,-10170,4157,3548,11545.468938072632
1735565367504,-258,-19,949,983.6289950992701,-10184,4167,6757,12912.582778050253
1735565367534,-249,-32,975,1006.8018673006125,-10181,4179,9953,14838.43020673009
1735565367564,-249,-32,975,1006.8018673006125,-10170,4186,13151,17143.52055442522
1735565367595,-249,-32,975,1006.8018673006125,-10157,4188,16353,19700.87820377559
1735565367624,-252,-31,944,977.548464271721,-10147,4186,-16437,19765.09989855857
1735565367654,-252,-31,944,977.548464271721,-10140,4181,-13226,17182.183708714092
1735565367684,-252,-31,944,977.548464271721,-10140,4175,-10018,14852.96431693014
1735565367714,-263,-30,950,986.1891299340102,-10145,4170,-6814,12912.804536583059
1735565367744,-263,-30,950,986.1891299340102,-10145,4168,-3601,11543.849011486593
1735565367774,-263,-30,950,986.1891299340102,-10147,4166,-389,10975.813682820968
1735565367804,-263,-30,950,986.1891299340102,-10149,4165,2822,11327.537684775098
1735565367834,-263,-20,959,994.6104765183202,-10155,4167,6036,12526.819628301511
1735565367864,-263,-20,959,994.6104765183202,-10159,4171,9252,14359.736278915432
1735565367894,-263,-20,959,994.6104765183202,-10159,4176,12472,16619.116733448864
1735565367924,-252,-23,943,976.3616133380091,-10158,4178,15687,19150.003054830042
1735565367954,-252,-23,943,976.3616133380091,-10160,4178,-17105,20328.85409953055
1735565367984,-252,-23,943,976.3616133380091,-10160,4179,-13897,17714.859581718396
1735565368014,-264,-33,946,982.7008700515127,-10160,4181,-10689,15328.440298999765
1735565368044,-264,-33,946,982.7008700515127,-10140,4180,-7466,13267.748716342196
1735565368074,-264,-33,946,982.7008700515127,-10127,4173,-4247,11747.64091211508
1735565368104,-264,-33,946,982.7008700515127,-10125,4162,-1034,10995.773051495742
1735565368134,-279,-28,961,1001.0724249523607,-10124,4152,2183,11157.955413067395
1735565368164,-279,-28,961,1001.0724249523607,-10129,4144,5401,12204.104965133658
1735565368194,-279,-28,961,1001.0724249523607,-10139,4138,8614,13932.815975243482
1735565368225,-263,-32,957,992.9964753210355,-10155,4142,11818,16122.81963553522
1735565368255,-263,-32,957,992.9964753210355,-10169,4152,15013,18602.092194159235
1735565368285,-263,-32,957,992.9964753210355,-10171,4165,-17782,20904.44904798976
1735565368315,-266,-12,963,999.1341251303551,-10164,4175,-14568,18247.305143499958
1735565368345,-266,-12,963,999.1341251303551,-10166,4182,-11342,15794.86131626359
1735565368375,-266,-12,963,999.1341251303551,-10161,4189,-8111,13659.500832753736
1735565368404,-266,-12,963,999.1341251303551,-10154,4193,-4876,12019.165570038545
1735565368434,-214,-30,976,999.6359337278748,-10167,4185,-1688,11123.464298499815
1735565368464,-214,-30,976,999.6359337278748,-10190,4183,1476,11113.602701194604
1735565368494,-214,-30,976,999.6359337278748,-10208,4189,4642,11970.762256431291
1735565368524,-186,-49,976,994.7728383907554,-10222,4193,7794,13520.982545658433
1735565368554,-186,-49,976,994.7728383907554,-10237,4196,10920,15545.063042651194
1735565368584,-186,-49,976,994.7728383907554,-10246,4204,14051,17890.91202258845
1735565368615,-152,-41,933,946.1891988392174,-10247,4206,17194,20452.99687087445
1735565368644,-152,-41,933,946.1891988392174,-10285,4200,-15692,19226.546465759264
1735565368674,-152,-41,933,946.1891988392174,-10315,4208,-12578,16802.15977188647
1735565368704,-152,-41,933,946.1891988392174,-10329,4224,-9454,14625.612226501837
1735565368734,-161,-41,935,949.64572341479,-10325,4234,-6310,12819.84715197494
1735565368764,-161,-41,935,949.64572341479,-10312,4241,-3158,11588.631886465288
1735565368794,-161,-41,935,949.64572341479,-10298,4242,-2,11137.476015686858
1735565368824,-162,-42,963,977.433885232142,-10285,4226,3159,11559.393669219853
1735565368854,-162,-42,963,977.433885232142,-10289,4203,6313,12782.124197487678
1735565368883,-162,-42,963,977.433885232142,-10310,4186,9453,14600.61317205548
1735565368914,-209,-20,961,983.6676267927089,-10340,4171,12588,16815.78380569874
1735565368944,-209,-20,961,983.6676267927089,-10366,4161,15774,19328.39757972709
1735565368974,-209,-20,961,983.6676267927089,-10391,4162,-17040,20387.66109684973
1735565369004,-209,-20,961,983.6676267927089,-10406,4171,-13852,17820.212709168205
1735565369034,-250,-22,949,981.6236549717005,-10387,4175,-10612,15425.139804876972
1735565369064,-250,-22,949,981.6236549717005,-10362,4171,-7358,13375.666301160478
1735565369094,-250,-22,949,981.6236549717005,-10349,4158,-4110,11886.246884530037
1735565369124,-284,-23,963,1004.2678925466054,-10333,4145,-861,11166.612512306496
1735565369154,-284,-23,963,1004.2678925466054,-10313,4126,2402,11364.481906360712
1735565369184,-284,-23,963,1004.2678925466054,-10314,4104,5650,12455.677902065387
1735565369214,-304,-34,948,996.1305135372573,-10330,4086,8880,14221.768385120045
1735565369244,-304,-34,948,996.1305135372573,-10328,4075,12117,16434.5641256469
1735565369274,-304,-34,948,996.1305135372573,-10336,4065,15346,18943.517017702918
1735565369304,-304,-34,948,996.1305135372573,-10348,4059,-17429,20671.880078986527
1735565369334,-294,-19,938,983.1790274410861,-10369,4070,-14202,18049.317577127396
1735565369364,-294,-19,938,983.1790274410861,-10380,4087,-10970,15645.730056472277
1735565369395,-294,-19,938,983.1790274410861,-10374,4105,-7724,13569.490668407565
1735565369425,-278,-33,938,978.8855908634063,-10357,4123,-4482,12014.778483184782
1735565369455,-278,-33,938,978.8855908634063,-10333,4133,-1247,11198.552897584581
1735565369484,-278,-33,938,978.8855908634063,-10310,4132,1990,11284.042892509759
1735565369514,-266,-21,955,991.5755140179693,-10294,4127,5224,12259.230848629943
1735565369544,-266,-21,955,991.5755140179693,-10299,4126,8439,13939.512114848209
1735565369574,-266,-21,955,991.5755140179693,-10303,4127,11655,16094.190349315495
1735565369604,-200,-48,951,972.987666931087,-10310,4131,14866,18556.918305580806
1735565369634,-200,-48,951,972.987666931087,-10348,4136,17994,21165.34044139144
1735565369664,-200,-48,951,972.987666931087,-10371,4152,-14868,18597.154863042895
1735565369695,-200,-48,951,972.987666931087,-10373,4173,-11719,16197.160831454381
1735565369725,-215,-29,956,980.3070947412347,-10369,4185,-8540,14069.896445958655
1735565369754,-215,-29,956,980.3070947412347,-10357,4194,-5348,12387.824223809443
1735565369784,-215,-29,956,980.3070947412347,-10342,4198,-2152,11367.113617801135
1735565369814,-201,-40,949,970.8769231988161,-10325,4192,1050,11192.899043590092
1735565369844,-201,-40,949,970.8769231988161,-10317,4173,4240,11909.324833927405
1735565369874,-201,-40,949,970.8769231988161,-10326,4154,7416,13374.567207951068
1735565369904,-204,-34,959,981.0468898070061,-10345,4135,10579,15363.348951319174
1735565369934,-204,-34,959,981.0468898070061,-10376,4111,13729,17693.138161445528
1735565369964,-204,-34,959,981.0468898070061,-10414,4102,16868,20243.69590761529
1735565369995,-204,-34,959,981.0468898070061,-10447,4108,-15991,19537.84926751151
1735565370024,-253,-29,958,991.2688838049946,-10437,4109,-12792,17013.23349631104
1735565370054,-253,-29,958,991.2688838049946,-10419,4105,-9575,14733.879699522458
1735565370084,-253,-29,958,991.2688838049946,-10410,4096,-6363,12869.851786248357
1735565370114,-271,-44,958,996.564599010019,-10391,4082,-3142,11597.748445280231
1735565370144,-271,-44,958,996.564599010019,-10371,4057,84,11136.603880896546
1735565370174,-271,-44,958,996.564599010019,-10375,4031,3292,11607.189582323535
1735565370204,-280,-41,938,979.7576230884861,-10399,4013,6483,12894.675606621517
1735565370234,-280,-41,938,979.7576230884861,-10425,4011,9676,14778.150154873918
1735565370264,-280,-41,938,979.7576230884861,-10444,4019,12871,17055.56032500838
1735565370295,-280,-41,938,979.7576230884861,-10450,4032,16073,19590.835944389917
1735565370324,-278,-45,949,989.9040357529612,-10447,4060,-16712,20122.483768163413
1735565370354,-278,-45,949,989.9040357529612,-10423,4081,-13482,17523.065199901528
1735565370384,-278,-45,949,989.9040357529612,-10391,4090,-10242,15152.542525926136
1735565370414,-260,-62,934,971.4936952960632,-10369,4094,-7014,13170.922253206114
1735565370444,-260,-62,934,971.4936952960632,-10352,4092,-3801,11762.481413375326
1735565370474,-260,-62,934,971.4936952960632,-10343,4085,-593,11136.27060554834
1735565370505,-262,-39,965,1000.6947586552055,-10345,4078,2610,11421.961696661392
1735565370535,-262,-39,965,1000.6947586552055,-10370,4083,5817,12571.606023098242
1735565370564,-262,-39,965,1000.6947586552055,-10383,4096,9031,14357.676204734526
1735565370595,-262,-39,965,1000.6947586552055,-10382,4111,12255,16579.242141907453
1735565370625,-265,-49,930,968.2592628010331,-10377,4125,15475,19083.327251818537
1735565370655,-265,-49,930,968.2592628010331,-10361,4134,-17296,20581.348182274163
1735565370684,-265,-49,930,968.2592628010331,-10343,4135,-14065,17941.57459645056
1735565370714,-268,-56,950,988.6657675878133,-10318,4130,-10832,15519.350759616202
1735565370744,-268,-56,950,988.6657675878133,-10297,4114,-7605,13445.788559991563
1735565370774,-268,-56,950,988.6657675878133,-10295,4094,-4390,11917.21280333619
1735565370804,-274,-58,941,981.794785074763,-10308,4080,-1192,11149.983318373172
1735565370834,-274,-58,941,981.794785074763,-10319,4077,2001,11274.204672614384
1735565370864,-274,-58,941,981.794785074763,-10329,4078,5195,12259.949021101189
1735565370894,-274,-58,941,981.794785074763,-10334,4083,8392,13924.371045041855
1735565370924,-291,-33,950,994.1176992690554,-10344,4097,11609,16079.571698276046
1735565370954,-291,-33,950,994.1176992690554,-10342,4114,14844,18553.33651934336
1735565370984,-291,-33,950,994.1176992690554,-10327,4127,-17909,21081.06588861199
1735565371014,-268,-27,933,971.1034960291307,-10317,4138,-14663,18400.192988118357
1735565371044,-268,-27,933,971.1034960291307,-10315,4149,-11426,15942.612772064684
1735565371074,-268,-27,933,971.1034960291307,-10305,4158,-8182,13799.5330718108
1735565371105,-291,-44,934,979.2716681289212,-10291,4163,-4938,12149.859834582456
1735565371134,-291,-44,934,979.2716681289212,-10246,4161,-1677,11185.113589052191
1735565371164,-291,-44,934,979.2716681289212,-10218,4144,1575,11138.262207364307
1735565371195,-291,-44,934,979.2716681289212,-10212,4121,4813,12018.009568976055
1735565371224,-292,-28,944,988.5261756777106,-10226,4110,8044,13644.380235100456
1735565371254,-292,-28,944,988.5261756777106,-10246,4107,11270,15775.324560845016
1735565371284,-292,-28,944,988.5261756777106,-10262,4112,14498,18232.092364838438
1735565371314,-283,-38,950,991.9843748769433,-10273,4122,17722,20894.848575665725
1735565371344,-283,-38,950,991.9843748769433,-10274,4133,-15055,18689.29613441876
1735565371374,-283,-38,950,991.9843748769433,-10267,4143,-11826,16199.691787191508
1735565371404,-263,-55,932,969.9577310378014,-10253,4149,-8593,14006.350666751136
1735565371434,-263,-55,932,969.9577310378014,-10239,4147,-5385,12289.546574223152
1735565371464,-263,-55,932,969.9577310378014,-10231,4141,-2180,11250.495189101677
1735565371525,-263,-55,932,969.9577310378014,-10230,4133,1019,11080.295573674919
1735565371525,-290,-55,913,959.5280089710774,-10205,4135,4244,11800.49939621201
1735565371555,-290,-55,913,959.5280089710774,-10181,4127,7476,13288.170152432576
1735565371584,-290,-55,913,959.5280089710774,-10170,4112,10700,15324.08052706589
1735565371614,-319,-27,925,978.8334894148238,-10164,4111,13930,17727.15761198055
1735565371644,-319,-27,925,978.8334894148238,-10153,4116,17187,20381.80153960881
1735565371675,-319,-27,925,978.8334894148238,-10141,4115,-15554,19018.41270979258
1735565371704,-242,-57,956,987.8000809880509,-10141,4116,-12308,16470.221643924528
1735565371734,-242,-57,956,987.8000809880509,-10186,4126,-9168,14311.907489919015
1735565371764,-242,-57,956,987.8000809880509,-10209,4148,-6017,12555.23293292482
1735565371795,-242,-57,956,987.8000809880509,-10208,4174,-2849,11390.449552146745
1735565371824,-248,-21,942,974.3248944782229,-10224,4192,348,11055.50288317994
1735565371854,-248,-21,942,974.3248944782229,-10226,4216,3563,11620.70139879689
1735565371884,-248,-21,942,974.3248944782229,-10209,4236,6795,12974.567507242775
1735565371914,-298,-28,962,1007.4879651886666,-10142,4247,10061,14903.72081058955
1735565371944,-298,-28,962,1007.4879651886666,-10052,4226,13363,17247.363537654095
1735565371974,-298,-28,962,1007.4879651886666,-10009,4179,16637,19860.359790295843
1735565372004,-281,-59,985,1025.9956140257132,-10013,4127,-16124,19423.58550834526
1735565372034,-281,-59,985,1025.9956140257132,-10037,4081,-12937,16874.889599638867
1735565372064,-281,-59,985,1025.9956140257132,-10088,4052,-9775,14619.749416457178
1735565372094,-281,-59,985,1025.9956140257132,-10143,4046,-6624,12772.154908236902
1735565372124,-224,-32,940,966.8505572217456,-10257,4055,-3518,11576.933877326932
1735565372154,-224,-32,940,966.8505572217456,-10347,4105,-412,11139.173129097151
1735565372184,-224,-32,940,966.8505572217456,-10371,4176,2736,11510.096133395238
1735565372214,-232,-50,940,969.4967766836567,-10315,4250,5936,12637.160321844462
1735565372244,-232,-50,940,969.4967766836567,-10202,4290,9184,14381.611870718803
1735565372274,-232,-50,940,969.4967766836567,-10095,4283,12442,16584.82674012605
1735565372304,-242,-40,946,977.2819449882413,-10028,4242,15685,19093.835994896363
1735565372334,-242,-40,946,977.2819449882413,-10014,4187,-17085,20241.254654788572
1735565372364,-242,-40,946,977.2819449882413,-10047,4138,-13894,17638.267743744
1735565372394,-242,-40,946,977.2819449882413,-10105,4111,-10728,15300.370256957836
1735565372425,-266,-34,937,974.6183868571329,-10165,4105,-7557,13314.897633853592
1735565372454,-266,-34,937,974.6183868571329,-10206,4121,-4371,11842.749596271973
1735565372484,-266,-34,937,974.6183868571329,-10221,4148,-1170,11092.504000450033
1735565372523,-267,-59,949,987.6087281914837,-10199,4176,2041,11208.222785080603
1735565372544,-267,-59,949,987.6087281914837,-10149,4187,5264,12175.502700094152
1735565372574,-267,-59,949,987.6087281914837,-10107,4178,8487,13843.276418536185
1735565372605,-292,-52,954,999.0415406778638,-10085,4156,11702,15997.386192750364
1735565372635,-292,-52,954,999.0415406778638,-10076,4128,14937,18484.59166441066
1735565372664,-292,-52,954,999.0415406778638,-10090,4103,-17846,20907.47294629363
1735565372694,-292,-52,954,999.0415406778638,-10119,4088,-14643,18262.621772352402
1735565372724,-268,-48,953,991.1291540460305,-10169,4085,-11479,15870.199337122393
1735565372754,-268,-48,953,991.1291540460305,-10211,4101,-8319,13794.50916125688
1735565372784,-268,-48,953,991.1291540460305,-10227,4129,-5143,12169.248908622092
1735565372814,-256,-36,952,986.4765582617764,-10223,4158,-1951,11207.36784441378
1735565372844,-256,-36,952,986.4765582617764,-10208,4182,1250,11102.021797852858
1735565372874,-256,-36,952,986.4765582617764,-10179,4198,4465,11881.560082750077
1735565372904,-265,-20,958,994.177549535293,-10147,4200,7690,13406.629293002772
1735565372934,-265,-20,958,994.177549535293,-10128,4193,10930,15479.745895847258
1735565372964,-265,-20,958,994.177549535293,-10121,4181,14163,17902.68055348137
1735565372994,-265,-20,958,994.177549535293,-10125,4169,17388,20548.448359912727
1735565373024,-265,-34,941,978.1932324443877,-10126,4162,-15393,18889.218326865725
1735565373054,-265,-34,941,978.1932324443877,-10130,4155,-12179,16377.086615146174
1735565373084,-265,-34,941,978.1932324443877,-10138,4151,-8970,14158.769190858364
1735565373114,-262,-35,947,983.1978437730628,-10150,4150,-5766,12389.178988133152
1735565373144,-262,-35,947,983.1978437730628,-10162,4154,-2564,11273.688659884128
1735565373174,-262,-35,947,983.1978437730628,-10167,4161,640,11004.154215567864
1735565373204,-251,-39,974,1006.5773691078098,-10166,4168,3852,11642.924203137285
1735565373234,-251,-39,974,1006.5773691078098,-10165,4173,7058,13059.728863954258
1735565373264,-251,-39,974,1006.5773691078098,-10161,4176,10267,15036.495136832918
1735565373294,-212,-61,951,976.2509923170373,-10162,4175,13470,17382.11060257068
1735565373324,-212,-61,951,976.2509923170373,-10190,4167,16609,19926.33609071171
1735565373354,-212,-61,951,976.2509923170373,-10215,4170,-16251,19642.559049166684
1735565373385,-212,-61,951,976.2509923170373,-10230,4180,-13108,17144.823242016817
1735565373415,-187,-49,960,979.2701363770877,-10257,4171,-9968,14898.466833872537
1735565373445,-187,-49,960,979.2701363770877,-10289,4175,-6840,13041.462571352953
1735565373475,-187,-49,960,979.2701363770877,-10309,4188,-3704,11727.507876782689
1735565373504,-184,-62,964,983.3595476731793,-10311,4202,-556,11148.213354614272
1735565373534,-184,-62,964,983.3595476731793,-10299,4205,2598,11423.70474058219
1735565373564,-184,-62,964,983.3595476731793,-10288,4203,5752,12513.738729892038
1735565373594,-210,-59,963,987.3955640977936,-10280,4192,8909,14234.51948609436
1735565373624,-210,-59,963,987.3955640977936,-10267,4169,12096,16404.422147701516
1735565373654,-210,-59,963,987.3955640977936,-10275,4147,15266,18863.297431785355
1735565373684,-210,-59,963,987.3955640977936,-10298,4131,-17576,20785.325135777886
1735565373714,-265,-25,966,1002.000998003495,-10320,4118,-14377,18170.262876469344
1735565373744,-265,-25,966,1002.000998003495,-10340,4117,-11162,15762.472299737754
1735565373774,-265,-25,966,1002.000998003495,-10353,4123,-7944,13685.425605365732
1735565373804,-282,-34,930,972.4093788112083,-10345,4128,-4716,12095.456378326533
1735565373834,-282,-34,930,972.4093788112083,-10324,4124,-1478,11215.027240270083
1735565373864,-282,-34,930,972.4093788112083,-10312,4113,1755,11239.845995386237
1735565373894,-354,-23,936,1000.9700295213638,-10306,4105,4983,12161.206765777812
1735565373924,-354,-23,936,1000.9700295213638,-10245,4102,8299,13807.962557886663
1735565373954,-354,-23,936,1000.9700295213638,-10208,4079,11604,15984.189719845044
1735565373984,-354,-23,936,1000.9700295213638,-10201,4048,14888,18495.925199892
1735565374014,-360,-33,933,1000.5888266415931,-10201,4042,-17836,20940.89446513687
1735565374044,-360,-33,933,1000.5888266415931,-10201,4037,-14561,18231.305246745225
1735565374074,-360,-33,933,1000.5888266415931,-10205,4032,-11291,15744.387253875586
1735565374104,-377,-22,932,1005.6028042920326,-10215,4049,-8018,13602.534690270046
1735565374134,-377,-22,932,1005.6028042920326,-10203,4076,-4719,11957.589472799273
1735565374164,-377,-22,932,1005.6028042920326,-10174,4094,-1403,11056.198306832235
1735565374194,-203,-65,938,961.9137175443544,-10157,4103,1900,11117.970048529543
1735565374224,-203,-65,938,961.9137175443544,-10257,4117,4974,12120.083085523795
1735565374254,-203,-65,938,961.9137175443544,-10316,4161,8069,13741.99905399502
1735565374315,-203,-65,938,961.9137175443544,-10323,4216,11199,15803.688999724083
1735565374315,-213,-31,936,960.4301119810852,-10318,4261,14387,18209.970181194698
1735565374345,-213,-31,936,960.4301119810852,-10284,4299,17611,20842.009931865978
1735565374375,-213,-31,936,960.4301119810852,-10230,4318,-15144,18778.67833474976
1735565374404,-287,-24,961,1003.2277906836513,-10135,4308,-11853,16179.32934333188
1735565374434,-287,-24,961,1003.2277906836513,-10038,4258,-8523,13839.564191115267
1735565374464,-287,-24,961,1003.2277906836513,-10014,4185,-5241,12052.489452391153
1735565374494,-276,-45,958,997.9804607305696,-10046,4114,-2012,11040.618460937774
1735565374524,-276,-45,958,997.9804607305696,-10100,4051,1156,10943.351269149684
1735565374554,-276,-45,958,997.9804607305696,-10183,4018,4295,11759.457385440877
1735565374584,-276,-45,958,997.9804607305696,-10263,4019,7426,13290.109329873852
1735565374614,-269,-42,949,987.2821278641683,-10325,4046,10565,15316.49326706345
1735565374644,-269,-42,949,987.2821278641683,-10349,4090,13726,17670.115364648867
1735565374674,-269,-42,949,987.2821278641683,-10332,4133,16918,20249.707084301244
1735565374704,-252,-49,979,1012.0997974508246,-10286,4174,-15874,19370.285181173767
1735565374765,-252,-49,979,1012.0997974508246,-10224,4197,-12659,16804.620376551207
1735565374765,-252,-49,979,1012.0997974508246,-10165,4195,-9438,14491.414492726375
1735565374795,-234,-60,955,985.0791846344131,-10136,4176,-6228,12608.150379813846
1735565374824,-234,-60,955,985.0791846344131,-10146,4162,-3052,11383.244880085818
1735565374854,-234,-60,955,985.0791846344131,-10164,4154,117,10980.724065379296
1735565374884,-234,-60,955,985.0791846344131,-10183,4153,3283,11476.889256240125
1735565374914,-213,-35,963,986.8956378462719,-10228,4146,6431,12773.373125372953
1735565374944,-213,-35,963,986.8956378462719,-10274,4159,9574,14646.290759096653
1735565374974,-213,-35,963,986.8956378462719,-10295,4185,12732,16899.85425972662
1735565375004,-222,-67,952,979.8351902233354,-10264,4217,15916,19402.366891696485
1735565375034,-222,-67,952,979.8351902233354,-10194,4226,-16874,20162.058129070057
1735565375065,-222,-67,952,979.8351902233354,-10139,4211,-13669,17532.06784723354
1735565375096,-235,-76,942,973.840335989427,-10115,4180,-10481,15153.777944789874
1735565375124,-235,-76,942,973.840335989427,-10105,4147,-7297,13136.013207971435
1735565375154,-235,-76,942,973.840335989427,-10123,4116,-4135,11683.955237846472
1735565375184,-235,-76,942,973.840335989427,-10159,4098,-990,10999.044731248256
1735565375214,-273,-34,956,994.7969642092802,-10213,4099,2175,11217.744648546783
1735565375244,-273,-34,956,994.7969642092802,-10249,4121,5364,12279.948615527672
1735565375274,-273,-34,956,994.7969642092802,-10256,4151,8573,13996.880581043763
1735565375304,-278,-33,942,982.7191867466514,-10228,4183,11809,16172.877109531253
1735565375334,-278,-33,942,982.7191867466514,-10177,4199,15067,18660.584637143606
1735565375364,-278,-33,942,982.7191867466514,-10130,4195,-17670,20795.28372011308
1735565375395,-322,-43,946,1000.2244748055308,-10100,4178,-14418,18092.661716839786
1735565375424,-322,-43,946,1000.2244748055308,-10045,4153,-11129,15556.480161013287
1735565375454,-322,-43,946,1000.2244748055308,-10029,4114,-7865,13392.686885013029
1735565375484,-322,-43,946,1000.2244748055308,-10048,4077,-4627,11789.544605284804
1735565375514,-302,-29,937,984.8928875771212,-10117,4056,-1428,10992.90721328985
1735565375544,-302,-29,937,984.8928875771212,-10186,4065,1759,11107.335504071172
1735565375575,-302,-29,937,984.8928875771212,-10227,4095,4963,12082.71174033379
1735565375604,-274,-31,943,982.4896946024421,-10239,4132,8169,13734.740842112747
1735565375634,-274,-31,943,982.4896946024421,-10232,4167,11372,15854.970734756971
1735565375665,-274,-31,943,982.4896946024421,-10201,4192,14596,18294.165217358237
1735565375695,-253,-55,958,992.3698907161584,-10157,4206,17833,20949.24757598707
1735565375724,-253,-55,958,992.3698907161584,-10104,4205,-14949,18526.884303627525
1735565375754,-253,-55,958,992.3698907161584,-10070,4186,-11741,16024.312060116652
1735565375784,-253,-55,958,992.3698907161584,-10062,4159,-8550,13843.540912642256
1735565375814,-243,-60,964,995.9643567919486,-10088,4134,-5385,12159.602172768648
1735565375844,-243,-60,964,995.9643567919486,-10125,4123,-2236,11158.604303406408
1735565375874,-243,-60,964,995.9643567919486,-10159,4126,912,11002.767879038438
1735565375904,-250,-35,947,980.0683649623633,-10179,4144,4082,11723.800620959059
1735565375934,-250,-35,947,980.0683649623633,-10185,4169,7280,13195.195565053215
1735565375964,-250,-35,947,980.0683649623633,-10169,4192,10496,15203.533832632465
1735565375994,-231,-45,958,986.4836541980815,-10140,4207,13716,17568.35521612652
1735565376024,-231,-45,958,986.4836541980815,-10110,4211,16907,20144.26146573758
1735565376054,-231,-45,958,986.4836541980815,-10087,4204,-15903,19295.766219562258
1735565376084,-231,-45,958,986.4836541980815,-10077,4191,-12722,16761.8523439386
1735565376114,-241,-59,948,979.931630268153,-10065,4184,-9535,14481.93032713526
1735565376144,-241,-59,948,979.931630268153,-10058,4174,-6350,12605.877200734585
1735565376174,-241,-59,948,979.931630268153,-10061,4162,-3173,11340.806585071452
1735565376204,-241,-59,950,981.8665897157312,-10076,4155,0,10899.073400982306
1735565376234,-241,-59,950,981.8665897157312,-10093,4155,3172,11366.365206168593
1735565376264,-241,-59,950,981.8665897157312,-10104,4161,6346,12636.314850461744
1735565376294,-231,-43,946,974.7440689740051,-10105,4169,9523,14497.555483597916
1735565376324,-231,-43,946,974.7440689740051,-10114,4181,12689,16756.62489882733
1735565376354,-231,-43,946,974.7440689740051,-10111,4192,15864,19273.600623650993
1735565376384,-231,-43,946,974.7440689740051,-10101,4201,-16954,20177.133542701253
1735565376414,-224,-53,966,993.046323189407,-10079,4211,-13773,17578.802319839655
1735565376444,-224,-53,966,993.046323189407,-10057,4210,-10594,15201.9796408231
1735565376474,-224,-53,966,993.046323189407,-10043,4203,-7417,13173.418197263762
1735565376504,-255,-60,948,983.528850619035,-10027,4200,-4225,11663.248003879537
1735565376534,-255,-60,948,983.528850619035,-9999,4193,-1006,10889.136145718814
1735565376564,-255,-60,948,983.528850619035,-9985,4178,2203,11045.773761941713
1735565376594,-258,-48,942,977.8711571572197,-9989,4163,5401,12094.688544977089
1735565376624,-258,-48,942,977.8711571572197,-10010,4158,8592,13831.541056585127
1735565376654,-258,-48,942,977.8711571572197,-10028,4162,11783,16022.550265173144
1735565376684,-258,-48,942,977.8711571572197,-10037,4171,14979,18507.000054033608
1735565376714,-262,-37,946,982.3079965061875,-10041,4181,-17819,20876.283265945593
1735565376744,-262,-37,946,982.3079965061875,-10037,4191,-14609,18213.421726847486
1735565376774,-262,-37,946,982.3079965061875,-10027,4198,-11393,15746.884834785576
1735565376804,-262,-39,941,977.5714807624043,-10012,4199,-8173,13589.322058145506
1735565376834,-262,-39,941,977.5714807624043,-9999,4195,-4953,11920.999748343258
1735565376864,-262,-39,941,977.5714807624043,-9995,4187,-1738,10975.046150244654
1735565376895,-279,-35,948,988.8225321057364,-9998,4179,1472,10935.759187180376
1735565376924,-279,-35,948,988.8225321057364,-9999,4174,4705,11812.675480178063
1735565376954,-279,-35,948,988.8225321057364,-10002,4171,7935,13431.361435089148
1735565376984,-279,-35,948,988.8225321057364,-10007,4168,11163,15560.36124259331
1735565377014,-289,-22,946,989.4043662729612,-10016,4165,14397,18026.122433845834
1735565377044,-289,-22,946,989.4043662729612,-10024,4168,17635,20708.59785209998
1735565377074,-289,-22,946,989.4043662729612,-10027,4172,-15123,18618.577872651822
1735565377104,-283,-25,941,982.9521860192386,-10029,4172,-11888,16103.13537793184
1735565377135,-283,-25,941,982.9521860192386,-10034,4170,-8662,13896.05339655832
1735565377164,-283,-25,941,982.9521860192386,-10039,4171,-5436,12154.376084357436
1735565377194,-263,-43,942,978.9698667476952,-10043,4170,-2211,11096.813506588276
1735565377225,-263,-43,942,978.9698667476952,-10050,4165,984,10923.277026606987
1735565377285,-263,-43,942,978.9698667476952,-10059,4164,4178,11660.963124888098
1735565377285,-270,-43,948,986.6372180289977,-10062,4164,7376,13152.494668312927
1735565377315,-270,-43,948,986.6372180289977,-10051,4160,10592,15182.841137283891
1735565377345,-270,-43,948,986.6372180289977,-10047,4153,13804,17570.99980080815
1735565377374,-270,-43,948,986.6372180289977,-10049,4146,17010,20186.92192980396
1735565377405,-251,-62,959,993.2401522290569,-10061,4147,-15807,19190.689904221785
1735565377434,-251,-62,959,993.2401522290569,-10069,4151,-12630,16677.303798875884
1735565377464,-251,-62,959,993.2401522290569,-10071,4156,-9450,14422.200837597567
1735565377494,-252,-39,941,974.9389724490452,-10070,4162,-6265,12568.904844894005
1735565377524,-252,-39,941,974.9389724490452,-10084,4171,-3073,11337.002513892285
1735565377554,-252,-39,941,974.9389724490452,-10086,4184,127,10920.13649182097
1735565377584,-237,-25,949,978.4656355743925,-10079,4196,3333,11414.970258393143
1735565377614,-237,-25,949,978.4656355743925,-10086,4210,6524,12728.474849721784
1735565377644,-237,-25,949,978.4656355743925,-10080,4223,9725,14629.277289052936
1735565377674,-237,-25,949,978.4656355743925,-10066,4232,12934,16926.976575868473
1735565377704,-239,-69,947,979.1276729824359,-10028,4237,16135,19464.099722309275
1735565377734,-239,-69,947,979.1276729824359,-9989,4224,-16666,19884.110565977047
1735565377764,-239,-69,947,979.1276729824359,-9973,4201,-13482,17287.95690647105
1735565377794,-264,-41,957,993.5924717911263,-9978,4178,-10290,14929.84487528253
1735565377824,-264,-41,957,993.5924717911263,-9998,4165,-7082,12940.70913821959
1735565377854,-264,-41,957,993.5924717911263,-10021,4161,-3880,11523.400626551174
1735565377884,-266,-18,953,989.590319273587,-10041,4166,-677,10891.995501284418
1735565377915,-266,-18,953,989.590319273587,-10066,4183,2534,11191.201946171823
1735565377944,-266,-18,953,989.590319273587,-10070,4205,5760,12339.551247918216
1735565377974,-266,-18,953,989.590319273587,-10055,4224,9002,14141.471104520915
1735565378005,-253,-26,954,987.3201101972957,-10028,4232,12232,16373.528391889147
1735565378035,-253,-26,954,987.3201101972957,-10005,4229,15458,18892.7030887589
1735565378064,-253,-26,954,987.3201101972957,-9993,4219,-17320,20436.30127983046
1735565378094,-274,-44,946,985.8640879959063,-9980,4201,-14096,17774.87037927422
1735565378124,-274,-44,946,985.8640879959063,-9967,4176,-10869,15326.944444343759
1735565378154,-274,-44,946,985.8640879959063,-9978,4151,-7660,13246.3913953952
1735565378185,-280,-33,937,978.4978283062258,-10001,4132,-4464,11705.585034503829
1735565378215,-280,-33,937,978.4978283062258,-10034,4121,-1269,10921.27089674091
1735565378244,-280,-33,937,978.4978283062258,-10064,4123,1923,11044.507865903306
1735565378274,-280,-33,937,978.4978283062258,-10083,4134,5121,12040.825802244628
1735565378305,-254,-20,945,978.7446040719714,-10100,4149,8304,13717.894043912134
1735565378334,-254,-20,945,978.7446040719714,-10109,4170,11489,15861.20745718938
1735565378364,-254,-20,945,978.7446040719714,-10099,4189,14689,18311.314616924694
1735565378395,-233,-45,959,987.9245922640048,-10081,4205,17884,20955.811652140797
1735565378425,-233,-45,959,987.9245922640048,-10056,4211,-14934,18489.99764737681
1735565378455,-233,-45,959,987.9245922640048,-10035,4208,-11752,16016.179101146441
1735565378485,-232,-39,948,976.7543191611696,-10024,4196,-8571,13840.124024010767
1735565378515,-232,-39,948,976.7543191611696,-10034,4181,-5390,12133.178355237345
1735565378545,-232,-39,948,976.7543191611696,-10051,4172,-2218,11106.201375808021
1735565378575,-232,-39,948,976.7543191611696,-10070,4171,951,10941.048487233753
1735565378604,-223,-35,958,984.2347281009748,-10089,4177,4113,11668.41973019483
1735565378634,-223,-35,958,984.2347281009748,-10100,4189,7278,13134.953559110896
1735565378664,-223,-35,958,984.2347281009748,-10098,4203,10452,15128.75133644545
1735565378695,-208,-45,951,974.5203948609798,-10083,4212,13624,17464.85639792094
1735565378724,-208,-45,951,974.5203948609798,-10065,4213,16787,20021.412612500648
1735565378754,-208,-45,951,974.5203948609798,-10053,4207,-16053,19402.58918289
1735565378784,-199,-48,969,990.3867931268065,-10047,4200,-12894,16877.127865842576
1735565378814,-199,-48,969,990.3867931268065,-10050,4194,-9741,14610.927999275063
1735565378844,-199,-48,969,990.3867931268065,-10057,4190,-6592,12733.962973088936
1735565378874,-199,-48,969,990.3867931268065,-10064,4189,-3445,11432.40315944115
1735565378905,-233,-45,940,969.4916193552165,-10049,4195,-269,10892.78600726187
1735565378935,-233,-45,940,969.4916193552165,-10027,4192,2920,11253.443606292254
1735565378964,-233,-45,940,969.4916193552165,-10015,4183,6105,12452.659916660376
1735565378995,-267,-45,940,978.2198116987818,-10006,4172,9301,14284.054781468742
1735565379024,-267,-45,940,978.2198116987818,-9993,4159,12517,16547.88865686496
1735565379054,-267,-45,940,978.2198116987818,-9994,4143,15722,19084.699866647104
1735565379084,-297,-17,946,991.6723249138296,-10008,4127,-17085,20225.95901310986
1735565379114,-297,-17,946,991.6723249138296,-10033,4114,-13874,17608.917087657606
1735565379144,-297,-17,946,991.6723249138296,-10059,4113,-10668,15228.475760889532
1735565379174,-297,-17,946,991.6723249138296,-10077,4122,-7458,13196.915435055269
1735565379205,-333,-37,948,1005.4660610880907,-10059,4131,-4217,11663.264165747083
1735565379235,-333,-37,948,1005.4660610880907,-10028,4129,-960,10887.195460723575
1735565379264,-333,-37,948,1005.4660610880907,-10009,4116,2290,11061.90024362903
1735565379294,-371,-32,930,1001.7809141723553,-10010,4098,5539,12152.128414397208
1735565379324,-371,-32,930,1001.7809141723553,-10014,4082,8804,13944.652595170666
1735565379354,-371,-32,930,1001.7809141723553,-10028,4071,12060,16204.240957230919
1735565379385,-381,-14,924,999.5664059981208,-10049,4064,15319,18766.19988170221
1735565379414,-381,-14,924,999.5664059981208,-10082,4066,-17397,20514.255750575012
1735565379444,-381,-14,924,999.5664059981208,-10102,4078,-14108,17824.594020622182
1735565379474,-381,-14,924,999.5664059981208,-10107,4095,-10808,15353.609933823382
1735565379504,-320,-17,929,982.715625193779,-10139,4097,-7571,13300.555289159924
1735565379534,-320,-17,929,982.715625193779,-10174,4111,-4353,11805.05002107149
1735565379564,-320,-17,929,982.715625193779,-10186,4134,-1120,11049.839455847312
1735565379594,-203,-50,945,967.8501950198698,-10191,4146,2081,11197.158478828456
1735565379624,-203,-50,945,967.8501950198698,-10226,4152,5197,12199.138863050948
1735565379654,-203,-50,945,967.8501950198698,-10246,4168,8321,13841.668288179717
1735565379684,-226,-74,969,997.7539776918958,-10241,4191,11463,15932.448995681738
1735565379714,-226,-74,969,997.7539776918958,-10176,4205,14654,18329.558559878085
1735565379744,-226,-74,969,997.7539776918958,-10121,4195,17845,20939.835028003443
1735565379774,-226,-74,969,997.7539776918958,-10092,4168,-14979,18536.211290336545
1735565379804,-301,-32,958,1004.6835322627718,-10078,4145,-11743,16020.148501184376
1735565379834,-301,-32,958,1004.6835322627718,-10078,4123,-8493,13809.281733674638
1735565379864,-301,-32,958,1004.6835322627718,-10095,4105,-5258,12099.860081835657
1735565379895,-285,-45,941,984.2413321944979,-10125,4106,-2051,11116.719929907382
1735565379924,-285,-45,941,984.2413321944979,-10147,4120,1141,11010.807872268048
1735565379954,-285,-45,941,984.2413321944979,-10151,4139,4346,11792.448346293488
1735565379984,-259,-50,935,971.4967833194303,-10143,4159,7563,13318.28438651165
1735565380014,-259,-50,935,971.4967833194303,-10141,4182,10763,15367.861725041646
1735565380044,-259,-50,935,971.4967833194303,-10123,4200,13977,17761.52183795071
1735565380074,-259,-50,935,971.4967833194303,-10097,4208,17200,20383.735501619914
1735565380104,-277,-22,911,952.4358246097214,-10084,4198,-15545,18998.87588779926
1735565380134,-277,-22,911,952.4358246097214,-10085,4189,-12291,16441.521432032987
1735565380164,-277,-22,911,952.4358246097214,-10092,4182,-9043,14181.446928998465
1735565380195,-313,-19,920,971.9722218252948,-10077,4180,-5784,12347.995181404956
1735565380224,-313,-19,920,971.9722218252948,-10045,4171,-2502,11160.612438392438
1735565380254,-313,-19,920,971.9722218252948,-10032,4153,769,10884.842396654165
1735565380284,-325,-50,940,995.8539049479095,-10032,4137,4028,11574.99792656569
1735565380314,-325,-50,940,995.8539049479095,-10003,4121,7293,13047.241049355991
1735565380344,-325,-50,940,995.8539049479095,-9996,4099,10544,15096.282754373675
1735565380374,-325,-50,940,995.8539049479095,-10008,4078,13779,17511.45308076974
1735565380404,-333,-13,947,1003.9257940704582,-10066,4067,17022,20189.436074343434
1735565380434,-333,-13,947,1003.9257940704582,-10117,4082,-15728,19141.222453124567
1735565380464,-333,-13,947,1003.9257940704582,-10140,4112,-12463,16584.76749912401
1735565380495,-324,-29,940,994.6944254392904,-10125,4152,-9195,14293.451437633948
1735565380524,-324,-29,940,994.6944254392904,-10078,4178,-5920,12412.419909107168
1735565380554,-324,-29,940,994.6944254392904,-10025,4183,-2635,11177.716179971649
1735565380584,-287,-57,946,990.2191676593621,-9987,4179,640,10844.990087593442
1735565380614,-287,-57,946,990.2191676593621,-9965,4176,3861,11473.775403065898
1735565380644,-287,-57,946,990.2191676593621,-9953,4166,7077,12903.553541563657
1735565380674,-287,-57,946,990.2191676593621,-9952,4154,10285,14902.32347655895
1735565380704,-261,-41,952,987.9807690436085,-10017,4149,13468,17289.925216726646
1735565380735,-261,-41,952,987.9807690436085,-10074,4169,16648,19900.300022863976
1735565380764,-261,-41,952,987.9807690436085,-10096,4205,-16150,19504.710738690796
1735565380794,-263,-21,938,974.3993021343971,-10086,4246,-12917,16929.406398335414
1735565380824,-263,-21,938,974.3993021343971,-10054,4281,-9653,14580.476192497967
1735565380854,-263,-21,938,974.3993021343971,-10004,4298,-6370,12614.662896803862
1735565380884,-270,-33,950,988.174579717572,-9948,4298,-3083,11266.782903739648
1735565380914,-270,-33,950,988.174579717572,-9876,4278,204,10764.677236220323
1735565380944,-270,-33,950,988.174579717572,-9845,4238,3468,11265.50899870929
1735565380975,-281,-39,962,1002.9586232741608,-9853,4196,6704,12634.541582503103
1735565381005,-281,-39,962,1002.9586232741608,-9876,4160,9933,14611.826203455885
1735565381034,-281,-39,962,1002.9586232741608,-9919,4139,13143,16978.113293296166
1735565381064,-281,-39,962,1002.9586232741608,-9962,4137,16347,19585.2143720716
1735565381094,-281,-5,928,969.6236383257166,-10018,4146,-16448,19699.90720790329
1735565381124,-281,-5,928,969.6236383257166,-10055,4176,-13229,17133.255440808673
1735565381154,-281,-5,928,969.6236383257166,-10057,4213,-9985,14784.885626882611
1735565381184,-276,-12,938,977.836387132326,-10026,4245,-6721,12795.020203188426
1735565381214,-276,-12,938,977.836387132326,-9972,4263,-3453,11381.439364157768
1735565381244,-276,-12,938,977.836387132326,-9922,4258,-181,10798.583657128374
1735565381274,-277,-43,931,972.2854519121429,-9885,4241,3085,11190.019258249737
1735565381305,-277,-43,931,972.2854519121429,-9835,4214,6352,12443.187895390794
1735565381334,-277,-43,931,972.2854519121429,-9822,4175,9593,14350.190172955898
1735565381365,-277,-43,931,972.2854519121429,-9844,4140,12807,16675.226685115857
1735565381395,-288,-26,953,995.906120073574,-9896,4118,16011,19267.611709809808
1735565381424,-288,-26,953,995.906120073574,-9948,4120,-16785,19941.74839375926
1735565381454,-288,-26,953,995.906120073574,-9981,4139,-13573,17348.71784887863
1735565381484,-272,-22,944,982.6515150347044,-9989,4167,-10349,14974.83926457977
1735565381515,-272,-22,944,982.6515150347044,-9980,4195,-7116,12955.148821993516
1735565381544,-272,-22,944,982.6515150347044,-9953,4213,-3867,11478.905304949598
1735565381574,-246,-39,949,981.1411723090617,-9919,4218,-620,10796.410746169302
1735565381604,-246,-39,949,981.1411723090617,-9901,4206,2571,11060.301894613907
1735565381634,-246,-39,949,981.1411723090617,-9898,4191,5753,12191.468082228654
1735565381664,-246,-39,949,981.1411723090617,-9908,4177,8924,13973.316320759364
1735565381695,-197,-38,978,998.3671669280797,-9968,4169,12054,16187.665087961266
1735565381724,-197,-38,978,998.3671669280797,-10026,4185,15169,18658.33492035128
1735565381755,-197,-38,978,998.3671669280797,-10053,4217,-17697,20785.32431789314
1735565381784,-217,-29,963,987.5722758360524,-10054,4248,-14530,18172.763136078123
1735565381814,-217,-29,963,987.5722758360524,-10031,4272,-11327,15721.700734971391
1735565381844,-217,-29,963,987.5722758360524,-9997,4283,-8112,13567.926960298688
1735565381874,-225,-31,954,980.6640607262,-9963,4277,-4893,11895.190078346794
1735565381904,-225,-31,954,980.6640607262,-9937,4251,-1675,10937.12005054347
1735565381935,-225,-31,954,980.6640607262,-9939,4222,1521,10905.156853525767
1735565381995,-225,-31,954,980.6640607262,-9964,4199,4700,11789.948982077913
1735565381996,-236,-28,932,961.8232685894016,-9996,4170,7862,13383.57052508784
1735565382024,-236,-28,932,961.8232685894016,-10039,4156,11016,15472.753891922408
1735565382054,-236,-28,932,961.8232685894016,-10077,4160,14166,17875.32055656625
1735565382084,-271,-27,945,983.4607262112708,-10083,4173,17356,20501.501262102734
1735565382114,-271,-27,945,983.4607262112708,-10056,4182,-15409,18869.275052317193
1735565382144,-271,-27,945,983.4607262112708,-10031,4180,-12174,16318.6898064765
1735565382174,-297,-32,943,989.1824907467783,-10017,4172,-8946,14063.313585353915
1735565382205,-297,-32,943,989.1824907467783,-9992,4163,-5700,12233.586268956458
1735565382234,-297,-32,943,989.1824907467783,-9982,4146,-2463,11085.847238709363
1735565382264,-297,-32,943,989.1824907467783,-9988,4130,760,10834.880894592243
1735565382294,-292,-24,920,965.5257635091878,-10012,4124,3977,11535.339136757098
1735565382324,-292,-24,920,965.5257635091878,-10035,4129,7192,13018.246041614055
1735565382354,-292,-24,920,965.5257635091878,-10047,4141,10414,15051.29516021794
1735565382384,-295,-21,947,992.1063451062089,-10047,4157,13635,17439.497785200125
1735565382415,-295,-21,947,992.1063451062089,-10035,4170,16863,20061.17877892523
1735565382445,-295,-21,947,992.1063451062089,-10016,4177,-15901,19251.217779662667
1735565382475,-306,-32,928,977.6727468841503,-9992,4183,-12661,16662.487029252265
1735565382505,-306,-32,928,977.6727468841503,-9941,4187,-9398,14306.531864851104
1735565382534,-306,-32,928,977.6727468841503,-9903,4173,-6141,12377.205621625586
1735565382565,-306,-32,928,977.6727468841503,-9890,4149,-2898,11109.667186734263
1735565382595,-323,-29,941,995.3145231533598,-9882,4141,354,10720.406755342821
1735565382624,-323,-29,941,995.3145231533598,-9879,4132,3608,11299.811016118809
1735565382655,-323,-29,941,995.3145231533598,-9885,4123,6856,12716.80345055313
1735565382685,-324,-27,930,985.1928745174723,-9893,4128,10101,14728.952237005862
1735565382715,-324,-27,930,985.1928745174723,-9891,4138,13353,17124.763764793955
1735565382744,-324,-27,930,985.1928745174723,-9882,4146,16612,19768.7071909116
1735565382774,-305,-27,938,986.7106972157543,-9872,4153,-16131,19362.66908254128
1735565382804,-305,-27,938,986.7106972157543,-9874,4162,-12906,16774.47334493694
1735565382834,-305,-27,938,986.7106972157543,-9868,4170,-9674,14434.424131221862
1735565382865,-305,-27,938,986.7106972157543,-9858,4175,-6438,12492.342974798603
1735565382895,-279,-43,953,993.9310841300819,-9851,4193,-3222,11180.551596410618
1735565382924,-279,-43,953,993.9310841300819,-9835,4205,-6,10696.227652775533
1735565382954,-279,-43,953,993.9310841300819,-9815,4209,3214,11152.564817117182
1735565382984,-290,-35,950,993.8938575119579,-9809,4214,6432,12463.743458528019
1735565383014,-290,-35,950,993.8938575119579,-9801,4222,9660,14394.460219125967
1735565383044,-290,-35,950,993.8938575119579,-9790,4226,12892,16730.4166116687
1735565383074,-276,-29,933,973.3991986846918,-9780,4226,16126,19327.580086498154
1735565383105,-276,-29,933,973.3991986846918,-9788,4226,-16654,19774.21897319841
1735565383134,-276,-29,933,973.3991986846918,-9794,4229,-13433,17153.785762915428
1735565383164,-276,-29,933,973.3991986846918,-9795,4233,-10210,14768.358541151416
1735565383194,-244,-28,942,973.4906265599068,-9814,4232,-7030,12792.393052122812
1735565383224,-244,-28,942,973.4906265599068,-9836,4240,-3860,11385.257836342575
1735565383254,-244,-28,942,973.4906265599068,-9844,4253,-682,10745.11372671318
1735565383284,-250,-38,946,979.2139704885751,-9834,4262,2514,11008.741799133995
1735565383314,-250,-38,946,979.2139704885751,-9813,4262,5723,12133.109329434068
1735565383344,-250,-38,946,979.2139704885751,-9799,4255,8928,13922.449856257339
1735565383375,-293,-18,963,1006.7482306912688,-9795,4243,12133,16160.283506176493
1735565383405,-293,-18,963,1006.7482306912688,-9784,4231,15394,18724.402607292977
1735565383435,-293,-18,963,1006.7482306912688,-9786,4218,-17354,20364.641808782202
1735565383465,-293,-18,963,1006.7482306912688,-9797,4208,-14112,17687.1992412592
1735565383495,-284,-13,948,989.7115741467309,-9821,4213,-10889,15256.85849052812
1735565383523,-284,-13,948,989.7115741467309,-9837,4225,-7664,13166.40003949447
1735565383555,-284,-13,948,989.7115741467309,-9838,4240,-4429,11592.233822693537
1735565383584,-244,-23,933,964.6522689549846,-9835,4255,-1210,10784.078541998848
1735565383614,-244,-23,933,964.6522689549846,-9836,4268,1980,10903.353612535915
1735565383644,-244,-23,933,964.6522689549846,-9827,4279,5179,11903.85697998762
1735565383674,-230,-26,946,973.9055395673648,-9812,4285,8389,13601.90758680561
1735565383705,-230,-26,946,973.9055395673648,-9803,4289,11596,15778.515329396489
1735565383734,-230,-26,946,973.9055395673648,-9794,4289,14803,18260.5248007827
1735565383764,-230,-26,946,973.9055395673648,-9789,4286,-17990,20924.493231617344
1735565383795,-250,-19,969,1000.9105854170991,-9787,4272,-14770,18226.032289009036
1735565383824,-250,-19,969,1000.9105854170991,-9794,4260,-11552,15732.728307575899
1735565383854,-250,-19,969,1000.9105854170991,-9808,4253,-8340,13558.778447928116
1735565383884,-234,-18,952,980.5019122877834,-9838,4241,-5148,11885.883601987696
1735565383914,-234,-18,952,980.5019122877834,-9883,4239,-1978,10934.134350738517
1735565383944,-234,-18,952,980.5019122877834,-9914,4252,1196,10853.447194324945
1735565383973,-216,-19,943,967.6083918610876,-9928,4266,4379,11659.313058666878
1735565384005,-216,-19,943,967.6083918610876,-9949,4271,7540,13193.772849340707
1735565384035,-216,-19,943,967.6083918610876,-9960,4282,10707,15237.354527607475
1735565384065,-216,-19,943,967.6083918610876,-9958,4295,13883,17616.653427935737
1735565384095,-240,-11,939,969.2481622371022,-9923,4290,17110,20239.12372114959
1735565384124,-240,-11,939,969.2481622371022,-9900,4274,-15661,19014.310321439483
1735565384154,-240,-11,939,969.2481622371022,-9897,4254,-12448,16462.072439398387
1735565384184,-275,-25,936,975.8821650178878,-9883,4231,-9225,14166.004200197034
1735565384214,-275,-25,936,975.8821650178878,-9863,4199,-5990,12279.677113018892
1735565384244,-275,-25,936,975.8821650178878,-9875,4167,-2778,11072.343834979114
1735565384274,-275,-13,943,982.366021399356,-9907,4145,413,10747.103935479548
1735565384305,-275,-13,943,982.366021399356,-9955,4139,3595,11364.742451987198
1735565384335,-275,-13,943,982.366021399356,-9991,4150,6780,12767.575376711116
1735565384364,-275,-13,943,982.366021399356,-10007,4172,9977,14733.844101252056
1735565384395,-269,-10,957,994.1378174076268,-10016,4194,13173,17071.55004678837
1735565384424,-269,-10,957,994.1378174076268,-10007,4215,16381,19653.076985551143
1735565384454,-269,-10,957,994.1378174076268,-9985,4229,-16397,19658.236823275885
1735565384484,-283,-6,946,987.4416438453464,-9952,4238,-13155,17031.05906865454
1735565384515,-283,-6,946,987.4416438453464,-9916,4235,-9896,14635.337269772774
1735565384545,-283,-6,946,987.4416438453464,-9894,4221,-6644,12643.212131416605
1735565384574,-287,-28,934,977.5014066486043,-9890,4205,-3408,11274.244497969697
1735565384605,-287,-28,934,977.5014066486043,-9880,4188,-184,10732.54862555954
1735565384634,-287,-28,934,977.5014066486043,-9885,4172,3026,11147.891504674773
1735565384665,-287,-28,934,977.5014066486043,-9902,4160,6228,12415.441514501206
1735565384695,-268,-20,946,983.4327633346369,-9934,4158,9411,14301.756570435675
1735565384724,-268,-20,946,983.4327633346369,-9964,4168,12591,16588.755257703935
1735565384754,-268,-20,946,983.4327633346369,-9976,4186,15781,19133.299062106358
1735565384784,-251,-13,971,1003.0009970084775,-9987,4199,-17033,20186.50190102287
1735565384814,-251,-13,971,1003.0009970084775,-9990,4213,-13844,17584.248775537726
1735565384844,-251,-13,971,1003.0009970084775,-9981,4226,-10645,15191.953857223238
1735565384874,-282,-29,953,994.2705869128383,-9966,4237,-7437,13137.058042042747
1735565384905,-282,-29,953,994.2705869128383,-9911,4240,-4187,11564.449403235763
1735565384964,-282,-29,953,994.2705869128383,-9873,4224,-943,10779.960760596487
1735565384965,-281,-18,953,993.7273267853712,-9868,4199,2280,10963.914674968973
1735565384995,-281,-18,953,993.7273267853712,-9910,4183,5478,12071.208431635998
1735565385024,-281,-18,953,993.7273267853712,-9950,4185,8673,13846.93662872767
1735565385054,-281,-18,953,993.7273267853712,-9976,4200,11874,16067.123326843546
1735565385084,-274,2,920,959.9374979653624,-10003,4204,15092,18587.686488640808
1735565385114,-274,2,920,959.9374979653624,-10024,4220,-17683,20759.99674855466
1735565385144,-274,2,920,959.9374979653624,-10026,4239,-14446,18088.026785694452
1735565385174,-268,14,924,962.1829347894297,-10005,4248,-11198,15605.791649256375
1735565385205,-268,14,924,962.1829347894297,-9992,4235,-7963,13460.485058124763
1735565385234,-268,14,924,962.1829347894297,-9994,4221,-4738,11838.307353671808
1735565385264,-294,-9,919,964.9238311908355,-9998,4206,-1515,10951.970827207311
1735565385295,-294,-9,919,964.9238311908355,-9962,4180,1740,10942.643373518118
1735565385325,-294,-9,919,964.9238311908355,-9959,4147,4973,11878.973819316212
1735565385355,-294,-9,919,964.9238311908355,-9982,4119,8185,13549.933948178494
1735565385384,-312,-18,925,976.3672464805443,-10000,4090,11422,15722.283040322101
1735565385414,-312,-18,925,976.3672464805443,-10028,4071,14650,18214.17922938061
1735565385444,-312,-18,925,976.3672464805443,-10060,4066,17871,20907.14224852359
1735565385474,-303,-5,948,995.2577555588301,-10104,4051,-14906,18457.796536965077
1735565385505,-303,-5,948,995.2577555588301,-10165,4048,-11693,16013.737165321529
1735565385534,-303,-5,948,995.2577555588301,-10208,4067,-8474,13876.3262068892
1735565385564,-292,16,955,998.771745695682,-10234,4086,-5237,12200.668875106807
1735565385595,-292,16,955,998.771745695682,-10289,4100,-2001,11255.110927929587
1735565385624,-292,16,955,998.771745695682,-10315,4130,1250,11181.172791796038
1735565385654,-292,16,955,998.771745695682,-10309,4164,4525,12003.749497552837
1735565385684,-259,19,940,975.2138227076152,-10287,4162,7774,13549.158239536506
1735565385714,-259,19,940,975.2138227076152,-10283,4155,11005,15624.152425011733
1735565385744,-259,19,940,975.2138227076152,-10286,4148,14232,18043.212685106828
1735565385774,-185,-69,933,953.6639869471846,-10255,4143,17425,20638.80081303175
1735565385805,-185,-69,933,953.6639869471846,-10219,4114,-15449,18974.313110097028
1735565385835,-185,-69,933,953.6639869471846,-10216,4078,-12348,16536.9236558678
1735565385865,-190,-48,967,986.657488696052,-10245,4034,-9260,14386.8266480138
1735565385894,-190,-48,967,986.657488696052,-10325,3990,-6177,12676.003076679968
1735565385925,-190,-48,967,986.657488696052,-10412,3980,-3110,11572.477867768856
1735565385955,-190,-48,967,986.657488696052,-10478,4001,-36,11215.960993156137
1735565385985,-267,-5,902,940.7008025934707,-10522,4045,3150,11704.572140834538
1735565386014,-267,-5,902,940.7008025934707,-10508,4099,6401,12968.911519476105
1735565386044,-267,-5,902,940.7008025934707,-10458,4138,9684,14841.58562957476
1735565386074,-272,-51,982,1020.2494792941577,-10365,4162,12998,17137.779115159585
1735565386105,-272,-51,982,1020.2494792941577,-10252,4145,16322,19715.278669093164
1735565386134,-272,-51,982,1020.2494792941577,-10192,4092,-16381,19722.030549616335
1735565386165,-220,-75,1015,1041.2732590439457,-10211,4023,-13137,17118.113768753847
1735565386195,-220,-75,1015,1041.2732590439457,-10329,3966,-10012,14921.713742060594
1735565386224,-220,-75,1015,1041.2732590439457,-10450,3958,-6903,13134.67445352187
1735565386254,-220,-75,1015,1041.2732590439457,-10538,3994,-3783,11887.496330178194
1735565386284,-200,-27,969,989.7929076327027,-10636,4037,-676,11396.43983882686
1735565386314,-200,-27,969,989.7929076327027,-10685,4112,2463,11710.855562255048
